time,seconds_elapsed,z,y,x
1683132143586205400,0.099205322265625,0.11285209655761719,-0.5003460645675659,0.039762988686561584
1683132143621886500,0.134886474609375,0.18251419067382812,-0.1105724573135376,-0.02520148828625679
1683132143639737900,0.15273779296875,-0.15555667877197266,0.05264902114868164,0.05974137783050537
1683132143657579500,0.17057958984375,0.3177347183227539,0.07225620746612549,-0.24200133979320526
1683132143675418000,0.188418212890625,-0.030686378479003906,-0.1447889804840088,0.1583634465932846
1683132143693246700,0.206246826171875,0.1278085708618164,-0.07282352447509766,-0.32951924204826355
1683132143711101000,0.224100830078125,-0.08677005767822266,-0.042952775955200195,0.2764294445514679
1683132143728940300,0.241940185546875,-0.038069725036621094,0.07142901420593262,-0.22693577408790588
1683132143746782500,0.259782470703125,-0.14260482788085938,-0.08666372299194336,0.23517082631587982
1683132143764619800,0.277619873046875,-0.1715536117553711,0.2597585916519165,-0.18128058314323425
1683132143782455300,0.295455322265625,-0.000110626220703125,-0.4436824917793274,0.08903487026691437
1683132143800300000,0.313300048828125,-0.1863870620727539,0.40579283237457275,-0.10480654984712601
1683132143818141000,0.331140869140625,0.08645248413085938,-0.5358063578605652,0.07127266377210617
1683132143835979800,0.348979736328125,-0.2649669647216797,0.5311731100082397,0.0002624206244945526
1683132143853821000,0.366821044921875,0.19526386260986328,-0.29131078720092773,0.016936184838414192
1683132143871658200,0.384658203125,-0.1480398178100586,0.27897703647613525,0.06814227998256683
1683132143889501400,0.40250146484375,0.2642536163330078,0.0695568323135376,-0.16255751252174377
1683132143907340000,0.420340087890625,-0.11338424682617188,-0.11672747135162354,0.11373017728328705
1683132143925184500,0.4381845703125,0.1990795135498047,0.03907132148742676,-0.32607293128967285
1683132143943022000,0.45602197265625,0.012502670288085938,-0.11155498027801514,0.24643062055110931
1683132143960862000,0.473862060546875,0.028900146484375,-0.05390167236328125,-0.30125853419303894
1683132143978694100,0.491694091796875,-0.07010364532470703,-0.06814515590667725,0.22803625464439392
1683132143996546800,0.509546875,-0.1357583999633789,0.18254482746124268,-0.19860272109508514
1683132144014383900,0.5273837890625,-0.023591995239257812,-0.25466132164001465,0.13535819947719574
1683132144032223000,0.545222900390625,-0.22223758697509766,0.3439815044403076,-0.10875799506902695
1683132144050063400,0.5630634765625,0.07204055786132812,-0.5507147312164307,0.04707817733287811
1683132144067903500,0.580903564453125,-0.24501800537109375,0.4544498920440674,-0.04618207737803459
1683132144085743900,0.598743896484375,0.12460899353027344,-0.4404442310333252,0.0187973789870739
1683132144103584000,0.616583984375,-0.2622690200805664,0.42472290992736816,0.06755317747592926
1683132144121424100,0.634424072265625,0.3057518005371094,-0.07520604133605957,-0.09641703963279724
1683132144139264000,0.652263916015625,-0.1307048797607422,0.05923879146575928,0.14961057901382446
1683132144157101800,0.670101806640625,0.2632284164428711,0.0955955982208252,-0.290501207113266
1683132144174946000,0.687946044921875,-0.04930877685546875,-0.2208031415939331,0.19421300292015076
1683132144192788000,0.7057880859375,0.08041000366210938,0.0010253190994262695,-0.33842378854751587
1683132144210625300,0.723625244140625,-0.026513099670410156,-0.12311983108520508,0.26211559772491455
1683132144228459500,0.74145947265625,-0.11141109466552734,0.10208117961883545,-0.216268390417099
1683132144246305500,0.759305419921875,-0.015839576721191406,-0.18161320686340332,0.17158456146717072
1683132144264146000,0.77714599609375,-0.20266437530517578,0.3695310354232788,-0.13089396059513092
1683132144281985800,0.79498583984375,0.061196327209472656,-0.4299830198287964,0.08919602632522583
1683132144299826200,0.812826171875,-0.22529220581054688,0.3455544710159302,-0.06956938654184341
1683132144317663700,0.830663818359375,0.1601400375366211,-0.4622575640678406,0.0499262735247612
1683132144335507000,0.8485068359375,-0.252655029296875,0.3881493806838989,0.08072611689567566
1683132144353346800,0.866346923828125,0.2303466796875,-0.13752639293670654,-0.06660445034503937
1683132144371187200,0.884187255859375,-0.16890811920166016,0.21013927459716797,0.1809086948633194
1683132144389015600,0.902015625,0.2875242233276367,0.10925900936126709,-0.2535974979400635
1683132144406867700,0.91986767578125,-0.034252166748046875,-0.08554565906524658,0.192450150847435
1683132144424708400,0.937708251953125,0.0987558364868164,0.06268715858459473,-0.3558250367641449
1683132144442550300,0.95555029296875,0.0040721893310546875,-0.2528038024902344,0.1627136766910553
1683132144460390400,0.973390380859375,-0.11017417907714844,0.1287020444869995,-0.27214938402175903
1683132144478224000,0.991223876953125,0.03539085388183594,-0.31206637620925903,0.11771687865257263
1683132144496067800,1.00906787109375,-0.24199867248535156,0.3452807664871216,-0.12002550065517426
1683132144513909200,1.0269091796875,0.039099693298339844,-0.3450430631637573,0.09017066657543182
1683132144531749000,1.0447490234375,-0.20352745056152344,0.34648263454437256,-0.08380240201950073
1683132144549583600,1.06258349609375,0.12524986267089844,-0.43853700160980225,0.03466277942061424
1683132144567426000,1.080426025390625,-0.2389068603515625,0.26331794261932373,-0.0014935694634914398
1683132144585267200,1.09826708984375,0.22576045989990234,-0.25535082817077637,-0.054496608674526215
1683132144603110100,1.116110107421875,-0.23503684997558594,0.3007314205169678,0.17866311967372894
1683132144620947700,1.13394775390625,0.26438426971435547,0.01800394058227539,-0.19909285008907318
1683132144638790700,1.151790771484375,-0.05904388427734375,0.07743215560913086,0.25145474076271057
1683132144656633300,1.16963330078125,0.1468191146850586,0.11653614044189453,-0.3273147940635681
1683132144674471200,1.18747119140625,-0.010172843933105469,-0.20744764804840088,0.1603570580482483
1683132144692311000,1.20531103515625,-0.08168506622314453,0.07817196846008301,-0.3214854598045349
1683132144710154200,1.223154296875,0.018751144409179688,-0.27395743131637573,0.15032115578651428
1683132144727992000,1.240991943359375,-0.1896533966064453,0.23595619201660156,-0.15835309028625488
1683132144745831200,1.2588310546875,0.05431938171386719,-0.3195708394050598,0.11526898294687271
1683132144763672000,1.276672119140625,-0.1785726547241211,0.4119478464126587,-0.06503138691186905
1683132144781512400,1.294512451171875,0.14093685150146484,-0.4119989275932312,0.04913285747170448
1683132144799346700,1.3123466796875,-0.23309898376464844,0.27155160903930664,-0.06331641227006912
1683132144817192400,1.3301923828125,0.18367385864257812,-0.32674574851989746,-0.003289874643087387
1683132144835034600,1.34803466796875,-0.20965290069580078,0.258541464805603,0.07402926683425903
1683132144852871700,1.36587158203125,0.20193195343017578,-0.13570630550384521,-0.13247662782669067
1683132144870708700,1.383708740234375,-0.18553638458251953,0.21934831142425537,0.2173745036125183
1683132144888556300,1.401556396484375,0.25922107696533203,0.06703400611877441,-0.27617838978767395
1683132144906393900,1.419393798828125,-0.04573249816894531,-0.05088639259338379,0.2278120070695877
1683132144924234000,1.43723388671875,0.07478713989257812,0.10386228561401367,-0.32819342613220215
1683132144942074400,1.455074462890625,0.019067764282226562,-0.25391995906829834,0.16169431805610657
1683132144959914500,1.47291455078125,-0.1175079345703125,0.15134453773498535,-0.2401525378227234
1683132144977754600,1.490754638671875,-0.011524200439453125,-0.2910730838775635,0.1374996304512024
1683132144995595000,1.508594970703125,-0.18878841400146484,0.367354154586792,-0.07887720316648483
1683132145013432300,1.526432373046875,0.06332015991210938,-0.33419251441955566,0.09948913753032684
1683132145031274800,1.544274658203125,-0.19077301025390625,0.3762463331222534,-0.0641663670539856
1683132145049113300,1.56211328125,0.1739654541015625,-0.45217329263687134,0.023427754640579224
1683132145066956800,1.579956787109375,-0.20461750030517578,0.20714080333709717,-0.03802892565727234
1683132145084796000,1.5977958984375,0.2076263427734375,-0.23774468898773193,-0.07537823170423508
1683132145102639000,1.61563916015625,-0.2222919464111328,0.2458287477493286,0.13666369020938873
1683132145120475000,1.633474853515625,0.21538448333740234,-0.018275856971740723,-0.171469047665596
1683132145138309400,1.651309326171875,-0.13233280181884766,0.11897289752960205,0.2778548300266266
1683132145156157000,1.669156982421875,0.21930980682373047,0.06994366645812988,-0.3184458911418915
1683132145173999000,1.6869990234375,-0.017296791076660156,-0.14587795734405518,0.1979355663061142
1683132145191833000,1.7048330078125,-0.04562664031982422,0.08742320537567139,-0.29149767756462097
1683132145209677600,1.722677490234375,0.022233963012695312,-0.2761058807373047,0.1390620470046997
1683132145227518000,1.74051806640625,-0.24819374084472656,0.26492345333099365,-0.1494521200656891
1683132145245357300,1.758357421875,0.04684925079345703,-0.4003106951713562,0.12008411437273026
1683132145263198500,1.776198486328125,-0.22330188751220703,0.4588170051574707,-0.02921914868056774
1683132145281023700,1.794023681640625,0.15938377380371094,-0.37727850675582886,0.04977298527956009
1683132145298875400,1.81187548828125,-0.19206905364990234,0.2811330556869507,-0.07615354657173157
1683132145316717800,1.8297177734375,0.2632789611816406,-0.2719559669494629,-0.014246957376599312
1683132145334559000,1.84755908203125,-0.20310688018798828,0.1281644105911255,0.039149560034275055
1683132145352399400,1.8653994140625,0.2432394027709961,-0.1237483024597168,-0.15801844000816345
1683132145370239200,1.8832392578125,-0.204986572265625,0.15162646770477295,0.2178332358598709
1683132145388066000,1.901066162109375,0.14761924743652344,0.04249846935272217,-0.270876407623291
1683132145405921300,1.91892138671875,-0.10881805419921875,0.056304216384887695,0.30059126019477844
1683132145423760400,1.936760498046875,0.02891254425048828,0.09499847888946533,-0.3056378662586212
1683132145441598500,1.954598388671875,-0.06133270263671875,-0.23659348487854004,0.17004944384098053
1683132145459439400,1.972439453125,-0.16495609283447266,0.18372249603271484,-0.191859632730484
1683132145477281000,1.990281005859375,0.025325775146484375,-0.4019383192062378,0.08319002389907837
1683132145495118300,2.008118408203125,-0.20740032196044922,0.49721086025238037,-0.047998711466789246
1683132145512961500,2.02596142578125,0.15019512176513672,-0.4789997339248657,0.02154010348021984
1683132145530799400,2.04379931640625,-0.1684246063232422,0.4422510862350464,-0.022168193012475967
1683132145548629800,2.061629638671875,0.24327564239501953,-0.30588436126708984,-0.01411459594964981
1683132145566480000,2.07947998046875,-0.1603860855102539,0.08962249755859375,-0.034134648740291595
1683132145584321800,2.09732177734375,0.19970226287841797,-0.12343192100524902,-0.13457229733467102
1683132145602162200,2.115162109375,-0.12687206268310547,0.03670060634613037,0.11122030019760132
1683132145619990800,2.13299072265625,0.19133377075195312,-0.03992938995361328,-0.236447274684906
1683132145637831200,2.1508310546875,-0.1883525848388672,0.1297847032546997,0.29364174604415894
1683132145655686400,2.168686279296875,0.11400032043457031,0.07340586185455322,-0.29268747568130493
1683132145673523200,2.186523193359375,-0.14423751831054688,-0.034871578216552734,0.2590995132923126
1683132145691363800,2.20436376953125,-0.09320354461669922,0.11584353446960449,-0.22073103487491608
1683132145709204700,2.222204833984375,-0.041459083557128906,-0.3301044702529907,0.1371145099401474
1683132145727043800,2.2400439453125,-0.22722148895263672,0.3401988744735718,-0.09279310703277588
1683132145744885000,2.257885009765625,0.10157489776611328,-0.46841245889663696,0.06504816561937332
1683132145762722300,2.275722412109375,-0.2407703399658203,0.5494351387023926,-0.00393487885594368
1683132145780564700,2.293564697265625,0.2095966339111328,-0.4126152992248535,0.012422604486346245
1683132145798404600,2.311404541015625,-0.1555633544921875,0.3272467851638794,-0.035439521074295044
1683132145816245000,2.329244873046875,0.26061248779296875,-0.17714309692382812,-0.05819842219352722
1683132145834085000,2.347085205078125,-0.1487255096435547,0.01985001564025879,0.023488136008381844
1683132145851915000,2.3649150390625,0.19295883178710938,-0.06097912788391113,-0.20355190336704254
1683132145869753900,2.38275390625,-0.21318626403808594,0.05831754207611084,0.2076711803674698
1683132145887605000,2.40060498046875,0.10679054260253906,-0.024099349975585938,-0.27288565039634705
1683132145905446400,2.4184462890625,-0.0975332260131836,0.1441326141357422,0.3328471779823303
1683132145923286300,2.436286376953125,-0.0021696090698242188,0.05792808532714844,-0.27856504917144775
1683132145941126700,2.454126708984375,-0.08745479583740234,-0.16534531116485596,0.19176150858402252
1683132145958961000,2.4719609375,-0.16519927978515625,0.20364725589752197,-0.19740980863571167
1683132145976807200,2.48980712890625,0.06312847137451172,-0.4016392230987549,0.09659401327371597
1683132145994647000,2.50764697265625,-0.24669170379638672,0.45624840259552,-0.03727950528264046
1683132146012476000,2.525475830078125,0.12027645111083984,-0.4857279658317566,0.04911705479025841
1683132146030327800,2.543327880859375,-0.20192337036132812,0.5188766717910767,-0.016819844022393227
1683132146048164600,2.56116455078125,0.2772235870361328,-0.3160139322280884,-0.006024695932865143
1683132146066009300,2.57900927734375,-0.18437480926513672,0.1771928071975708,-0.05244129151105881
1683132146083845600,2.596845703125,0.2552509307861328,-0.10250592231750488,-0.11530471593141556
1683132146101688800,2.614688720703125,-0.1064157485961914,-0.03267943859100342,0.06751032918691635
1683132146119528700,2.63252880859375,0.2002096176147461,-0.07880151271820068,-0.2425234466791153
1683132146137369000,2.650369140625,-0.2006063461303711,0.09732115268707275,0.26284319162368774
1683132146155210500,2.66821044921875,0.09561347961425781,0.030495643615722656,-0.30073243379592896
1683132146173043500,2.68604345703125,-0.1080617904663086,0.06729602813720703,0.2833110988140106
1683132146190887000,2.703886962890625,-0.1081991195678711,0.10360920429229736,-0.25553953647613525
1683132146208724200,2.72172412109375,-0.01721477508544922,-0.2713402509689331,0.14710575342178345
1683132146226570000,2.739570068359375,-0.1981658935546875,0.2782202959060669,-0.14193452894687653
1683132146244410600,2.75741064453125,0.07242584228515625,-0.4914705157279968,0.06226625293493271
1683132146262250500,2.77525048828125,-0.28397178649902344,0.5387687683105469,-0.011888919398188591
1683132146280085000,2.7930849609375,0.16608715057373047,-0.4875248670578003,0.021749727427959442
1683132146297931500,2.810931640625,-0.13532733917236328,0.38015687465667725,-0.015580713748931885
1683132146315771100,2.828771240234375,0.2465229034423828,-0.23897409439086914,-0.035230811685323715
1683132146333613800,2.84661376953125,-0.1475973129272461,0.057230234146118164,-0.01858612149953842
1683132146351450600,2.86445068359375,0.23484134674072266,-0.08970856666564941,-0.1743181347846985
1683132146369291800,2.882291748046875,-0.10302162170410156,-0.022362112998962402,0.1486513465642929
1683132146387132400,2.90013232421875,0.0863494873046875,-0.04160618782043457,-0.26711201667785645
1683132146404973300,2.917973388671875,-0.153350830078125,0.08071255683898926,0.2975321412086487
1683132146422822100,2.935822265625,-0.007312774658203125,0.06965506076812744,-0.28629860281944275
1683132146440653000,2.953653076171875,-0.07775402069091797,-0.058461546897888184,0.22302690148353577
1683132146458493200,2.9714931640625,-0.21331405639648438,0.1397930383682251,-0.20926238596439362
1683132146476334800,2.9893349609375,0.011289596557617188,-0.38888466358184814,0.10652437806129456
1683132146494175700,3.00717578125,-0.1830739974975586,0.41847455501556396,-0.07895935326814651
1683132146512011000,3.025010986328125,0.05251789093017578,-0.5393832921981812,0.05874963104724884
1683132146529848000,3.04284814453125,-0.24936962127685547,0.5503766536712646,-0.0019424669444561005
1683132146547694300,3.0606943359375,0.24779129028320312,-0.36381006240844727,0.00902336835861206
1683132146565534500,3.078534423828125,-0.12175273895263672,0.2651987075805664,-0.04247269779443741
1683132146583360500,3.096360595703125,0.26158905029296875,-0.12360620498657227,-0.08240486681461334
1683132146601210400,3.11421044921875,-0.10817146301269531,-0.022443294525146484,0.05061997473239899
1683132146619047000,3.132046875,0.1862945556640625,-0.07234847545623779,-0.24293886125087738
1683132146636895500,3.1498955078125,-0.15661907196044922,0.05541384220123291,0.22884097695350647
1683132146654736000,3.16773583984375,0.057178497314453125,-0.01007699966430664,-0.2865866720676422
1683132146672576800,3.18557666015625,-0.1519927978515625,0.08334207534790039,0.30641019344329834
1683132146690416400,3.20341650390625,-0.06736373901367188,0.10863542556762695,-0.2548898458480835
1683132146708253000,3.2212529296875,-0.03954124450683594,-0.22292089462280273,0.1825817972421646
1683132146726096600,3.2390966796875,-0.23453903198242188,0.2245875597000122,-0.17896147072315216
1683132146743936800,3.256936767578125,0.09892082214355469,-0.45173728466033936,0.08548758924007416
1683132146761779700,3.27477978515625,-0.2714347839355469,0.47796154022216797,-0.059983283281326294
1683132146779605800,3.292605712890625,0.17464065551757812,-0.5017780065536499,0.06676609814167023
1683132146797458700,3.310458740234375,-0.1457366943359375,0.45659971237182617,-0.007196763530373573
1683132146815297800,3.3282978515625,0.28304195404052734,-0.2871454954147339,-0.010379625484347343
1683132146833141200,3.346141357421875,-0.14197540283203125,0.09880006313323975,-0.007632441818714142
1683132146850973700,3.3639736328125,0.24431228637695312,-0.05849111080169678,-0.14931274950504303
1683132146868818400,3.381818359375,-0.0855703353881836,-0.054522156715393066,0.11780650913715363
1683132146886658800,3.399658935546875,0.12358474731445312,-0.053496599197387695,-0.27804720401763916
1683132146904499000,3.4174990234375,-0.13429832458496094,0.07925152778625488,0.2693798840045929
1683132146922335200,3.435335205078125,-0.028596878051757812,0.020983338356018066,-0.2721345126628876
1683132146940168000,3.45316796875,-0.11765670776367188,0.006865739822387695,0.24735280871391296
1683132146958016800,3.471016845703125,-0.1771411895751953,0.12139344215393066,-0.20857293903827667
1683132146975859000,3.48885888671875,0.00443267822265625,-0.35526108741760254,0.11336080729961395
1683132146993700000,3.5067001953125,-0.24176406860351562,0.34883105754852295,-0.1357104778289795
1683132147011540200,3.524540283203125,0.1023702621459961,-0.5364910364151001,0.0718863382935524
1683132147029380600,3.542380615234375,-0.23412799835205078,0.5691707134246826,-0.02171962335705757
1683132147047221800,3.5602216796875,0.20586109161376953,-0.42468762397766113,0.04247216880321503
1683132147065062700,3.578062744140625,-0.10002994537353516,0.349767804145813,-0.010011215694248676
1683132147082901800,3.59590185546875,0.26469898223876953,-0.1324291229248047,-0.04316437244415283
1683132147100741600,3.61374169921875,-0.1166849136352539,0.005010008811950684,0.027171552181243896
1683132147118583000,3.6315830078125,0.2001667022705078,-0.04002583026885986,-0.20975828170776367
1683132147136422100,3.649422119140625,-0.10528182983398438,-0.020815610885620117,0.19146022200584412
1683132147154262500,3.667262451171875,0.04361534118652344,-0.05146157741546631,-0.28149473667144775
1683132147172098000,3.68509814453125,-0.13823890686035156,0.08867263793945312,0.3063231110572815
1683132147189930500,3.702930419921875,-0.06665515899658203,0.1033240556716919,-0.2657507061958313
1683132147207777500,3.720777587890625,-0.07804203033447266,-0.13834071159362793,0.1863888055086136
1683132147225611000,3.738611083984375,-0.22050952911376953,0.17515254020690918,-0.19212454557418823
1683132147243461600,3.756461669921875,0.06630134582519531,-0.44389694929122925,0.09803789854049683
1683132147261304000,3.774303955078125,-0.2226104736328125,0.4481886625289917,-0.08954838663339615
1683132147279144000,3.79214404296875,0.12683486938476562,-0.5193893909454346,0.06206180155277252
1683132147296983000,3.809983154296875,-0.17335891723632812,0.521955132484436,-0.017610127106308937
1683132147314824000,3.827823974609375,0.2619752883911133,-0.30611276626586914,0.004467977210879326
1683132147332664800,3.845664794921875,-0.1453561782836914,0.21797609329223633,0.0097648985683918
1683132147350505000,3.8635048828125,0.2642068862915039,-0.04878079891204834,-0.10688731074333191
1683132147368342300,3.88134228515625,-0.0596160888671875,-0.04544699192047119,0.11039496958255768
1683132147386188500,3.8991884765625,0.1260976791381836,-0.0369793176651001,-0.2796568274497986
1683132147404022500,3.9170224609375,-0.1733407974243164,-0.006307125091552734,0.27378493547439575
1683132147421866000,3.934865966796875,-0.024423599243164062,-0.000874638557434082,-0.265291303396225
1683132147439706000,3.9527060546875,-0.07479572296142578,0.008381009101867676,0.2643144130706787
1683132147457546200,3.970546142578125,-0.17749595642089844,0.1832718849182129,-0.21866615116596222
1683132147475386600,3.98838671875,-0.00012302398681640625,-0.29004985094070435,0.1321680247783661
1683132147493225500,4.0062255859375,-0.25832462310791016,0.302093505859375,-0.1556515097618103
1683132147511069400,4.0240693359375,0.1386260986328125,-0.4868898391723633,0.06191862374544144
1683132147528907300,4.0419072265625,-0.23801612854003906,0.5406466722488403,-0.03831084817647934
1683132147546750000,4.05975,0.16705322265625,-0.4358871579170227,0.07499086111783981
1683132147564587800,4.077587890625,-0.130279541015625,0.3661535978317261,0.028660746291279793
1683132147582428400,4.095428466796875,0.2714986801147461,-0.1078416109085083,-0.07925106585025787
1683132147600268500,4.1132685546875,-0.11622905731201172,0.013321876525878906,0.07932527363300323
1683132147618107600,4.131107666015625,0.16405868530273438,0.014598608016967773,-0.2578701972961426
1683132147635937500,4.1489375,-0.03329753875732422,-0.12875545024871826,0.20504844188690186
1683132147653777700,4.166777587890625,-0.007989883422851562,-0.09177124500274658,-0.3211251497268677
1683132147671635200,4.18463525390625,-0.0718698501586914,-0.05419600009918213,0.27545151114463806
1683132147689472000,4.202471923828125,-0.14211559295654297,0.07901191711425781,-0.21419495344161987
1683132147707309800,4.220309814453125,-0.07304859161376953,-0.1513972282409668,0.17355896532535553
1683132147725149700,4.238149658203125,-0.24402713775634766,0.2630985975265503,-0.16627998650074005
1683132147742993200,4.2559931640625,0.03784942626953125,-0.5034325122833252,0.07819121330976486
1683132147760830500,4.27383056640625,-0.2072601318359375,0.4354512691497803,-0.07752996683120728
1683132147778670600,4.291670654296875,0.1474761962890625,-0.5181939005851746,0.06408314406871796
1683132147796511000,4.309510986328125,-0.19820690155029297,0.5172702074050903,0.02754819020628929
1683132147814351400,4.327351318359375,0.22659778594970703,-0.20908010005950928,-0.017829637974500656
1683132147832180200,4.34518017578125,-0.1409463882446289,0.1919175386428833,0.07827989012002945
1683132147850021400,4.363021484375,0.2220592498779297,0.09355390071868896,-0.19619037210941315
1683132147867871500,4.38087158203125,-0.09002399444580078,-0.14691638946533203,0.13711023330688477
1683132147885713700,4.398713623046875,0.08749675750732422,0.014066457748413086,-0.32369932532310486
1683132147903552500,4.416552490234375,-0.03445243835449219,-0.10888099670410156,0.2660541832447052
1683132147921392600,4.434392578125,-0.17594528198242188,-0.02892458438873291,-0.280752032995224
1683132147939227100,4.45222705078125,0.006197929382324219,-0.07287955284118652,0.19494563341140747
1683132147957073200,4.4700732421875,-0.2146749496459961,0.2127159833908081,-0.16441740095615387
1683132147974914600,4.48791455078125,0.022655487060546875,-0.3602610230445862,0.09219291806221008
1683132147992753700,4.505753662109375,-0.20157432556152344,0.3874053955078125,-0.12650273740291595
1683132148010594800,4.5235947265625,0.10851287841796875,-0.571602463722229,0.03403554856777191
1683132148028434000,4.541433837890625,-0.26090431213378906,0.48191070556640625,-0.007162261754274368
1683132148046274300,4.5592744140625,0.16845417022705078,-0.36476778984069824,-0.013098198920488358
1683132148064115000,4.577114990234375,-0.2480001449584961,0.3309851884841919,0.14179173111915588
1683132148081958000,4.5949580078125,0.2793292999267578,0.036705970764160156,-0.16242161393165588
1683132148099793000,4.61279296875,-0.1002044677734375,-0.056972503662109375,0.1715002954006195
1683132148117635300,4.63063525390625,0.16736316680908203,0.11976432800292969,-0.3309672772884369
1683132148135476700,4.648476806640625,0.007256507873535156,-0.2093430757522583,0.22641077637672424
1683132148153315600,4.666315673828125,-0.14185428619384766,-0.006623506546020508,-0.3086342513561249
1683132148171156200,4.68415625,-0.03872966766357422,-0.17898499965667725,0.1997566670179367
1683132148188999700,4.701999755859375,-0.16556930541992188,0.17814195156097412,-0.15977129340171814
1683132148206838500,4.719838623046875,-0.02234172821044922,-0.2782747745513916,0.1127016693353653
1683132148224677000,4.737677001953125,-0.1958789825439453,0.3540780544281006,-0.1345030516386032
1683132148242517200,4.755517333984375,0.03723621368408203,-0.5078856945037842,0.053602803498506546
1683132148260352800,4.773352783203125,-0.2763032913208008,0.3364837169647217,-0.062042757868766785
1683132148278194000,4.79119384765625,0.15540409088134766,-0.37642693519592285,0.02992260456085205
1683132148296037000,4.809037109375,-0.2923250198364258,0.4130866527557373,0.1473352313041687
1683132148313884200,4.82688427734375,0.2571430206298828,-0.023460745811462402,-0.09074225276708603
1683132148331718100,4.84471826171875,-0.07455158233642578,0.13924217224121094,0.2385430932044983
1683132148349558500,4.86255859375,0.21964263916015625,0.11887252330780029,-0.31720200181007385
1683132148367399000,4.88039892578125,-0.04118824005126953,-0.13929462432861328,0.17962977290153503
1683132148385239600,4.898239501953125,-0.0032682418823242188,0.07099437713623047,-0.33281752467155457
1683132148403079400,4.916079345703125,0.013541221618652344,-0.22589170932769775,0.16495174169540405
1683132148420921900,4.933921875,-0.22387123107910156,0.19854164123535156,-0.1816534548997879
1683132148438760000,4.951760009765625,0.008515357971191406,-0.3399222493171692,0.09364592283964157
1683132148456600800,4.969600830078125,-0.23470020294189453,0.38498759269714355,-0.07055248320102692
1683132148474443500,4.987443603515625,0.060390472412109375,-0.41297006607055664,0.06663575768470764
1683132148492281000,5.005281005859375,-0.19156932830810547,0.29225409030914307,-0.10538212954998016
1683132148510121500,5.02312158203125,0.19482994079589844,-0.3498360514640808,0.020756501704454422
1683132148527962600,5.040962646484375,-0.233734130859375,0.24258005619049072,0.040282972157001495
1683132148545801500,5.058801513671875,0.1595611572265625,-0.19019782543182373,-0.09560742229223251
1683132148563641900,5.076641845703125,-0.23168659210205078,0.19143736362457275,0.19702668488025665
1683132148581475300,5.094475341796875,0.32438182830810547,0.05896484851837158,-0.23225128650665283
1683132148599319300,5.1123193359375,-0.09596443176269531,0.0058383941650390625,0.2552074193954468
1683132148617162800,5.130162841796875,0.10349655151367188,0.09662425518035889,-0.3175596594810486
1683132148635004000,5.14800390625,0.0025472640991210938,-0.21123969554901123,0.15503740310668945
1683132148652843000,5.165843017578125,-0.13519668579101562,0.11382520198822021,-0.22153253853321075
1683132148670683400,5.183683349609375,-0.033779144287109375,-0.2915523052215576,0.14371716976165771
1683132148688516600,5.2015166015625,-0.20166301727294922,0.34880757331848145,-0.10015754401683807
1683132148706363000,5.21936279296875,0.04221916198730469,-0.3743773102760315,0.07514607906341553
1683132148724207400,5.237207275390625,-0.1842660903930664,0.4183088541030884,-0.07007839530706406
1683132148742044200,5.255044189453125,0.19069957733154297,-0.4165198802947998,0.017982104793190956
1683132148759883800,5.2728837890625,-0.18841838836669922,0.1895662546157837,-0.07482608407735825
1683132148777726200,5.290726318359375,0.2305736541748047,-0.24812579154968262,-0.04872586578130722
1683132148795566800,5.30856689453125,-0.24273967742919922,0.19858646392822266,0.09257213026285172
1683132148813405400,5.326405517578125,0.2347421646118164,-0.06168866157531738,-0.16457217931747437
1683132148831245600,5.34424560546875,-0.1525726318359375,0.1301943063735962,0.2708045542240143
1683132148849086000,5.3620859375,0.17473316192626953,0.09484279155731201,-0.2881067097187042
1683132148866926300,5.37992626953125,-0.0740957260131836,-0.11849713325500488,0.20772767066955566
1683132148884759000,5.397759033203125,-0.017556190490722656,0.09362936019897461,-0.26988649368286133
1683132148902610000,5.41560986328125,-0.022235870361328125,-0.23794853687286377,0.14787495136260986
1683132148920446700,5.43344677734375,-0.2159433364868164,0.25000476837158203,-0.13517433404922485
1683132148938283500,5.451283447265625,0.028708457946777344,-0.4176151156425476,0.09880923479795456
1683132148956128300,5.469128173828125,-0.24988174438476562,0.49199843406677246,-0.039473868906497955
1683132148973968000,5.4869677734375,0.18415069580078125,-0.42387640476226807,0.04264147952198982
1683132148991806700,5.504806640625,-0.15699481964111328,0.31889235973358154,-0.08072784543037415
1683132149009636600,5.52263671875,0.2720823287963867,-0.27614647150039673,-0.029143385589122772
1683132149027487700,5.54048779296875,-0.17027759552001953,0.08907139301300049,-0.018693866208195686
1683132149045332000,5.55833203125,0.22548198699951172,-0.1540696620941162,-0.14717720448970795
1683132149063173600,5.576173583984375,-0.22452068328857422,0.13453710079193115,0.19399124383926392
1683132149081009400,5.594009521484375,0.17982864379882812,0.03405904769897461,-0.24038337171077728
1683132149098850800,5.611850830078125,-0.08781909942626953,0.08402979373931885,0.3129397928714752
1683132149116690200,5.629690185546875,-0.016577720642089844,0.07988095283508301,-0.28429126739501953
1683132149134530300,5.6475302734375,-0.06215190887451172,-0.16307246685028076,0.17578330636024475
1683132149152370700,5.66537060546875,-0.18492507934570312,0.14002883434295654,-0.20643550157546997
1683132149170208800,5.683208740234375,0.0038290023803710938,-0.3283315896987915,0.1148897334933281
1683132149188051700,5.7010517578125,-0.18917560577392578,0.42224812507629395,-0.053379978984594345
1683132149205891300,5.718891357421875,0.10208415985107422,-0.4725252389907837,0.05963815003633499
1683132149223731700,5.736731689453125,-0.18709945678710938,0.5215349197387695,-0.04180039465427399
1683132149241571800,5.75457177734375,0.27474403381347656,-0.3732571601867676,0.00783633440732956
1683132149259412200,5.772412109375,-0.1789398193359375,0.17815840244293213,-0.06133804842829704
1683132149277239800,5.79023974609375,0.2760047912597656,-0.17493999004364014,-0.07386395335197449
1683132149295075600,5.80807568359375,-0.17507457733154297,0.051209092140197754,0.05794414132833481
1683132149312933400,5.825933349609375,0.20059680938720703,-0.0880730152130127,-0.21235063672065735
1683132149330776300,5.8437763671875,-0.20913219451904297,0.12503886222839355,0.24208243191242218
1683132149348607500,5.861607421875,0.11483001708984375,0.04640400409698486,-0.26688292622566223
1683132149366453500,5.87945361328125,-0.08188152313232422,0.02035975456237793,0.28662899136543274
1683132149384294100,5.897294189453125,-0.08866691589355469,0.0999763011932373,-0.24866896867752075
1683132149402134000,5.915134033203125,-0.039605140686035156,-0.24528217315673828,0.14612987637519836
1683132149419975000,5.932974853515625,-0.19110774993896484,0.2631291151046753,-0.1566457450389862
1683132149437815000,5.95081494140625,0.057010650634765625,-0.4404255151748657,0.07639656960964203
1683132149455657700,5.96865771484375,-0.25934791564941406,0.49750804901123047,-0.02591230347752571
1683132149473495800,5.986495849609375,0.17337322235107422,-0.4772568345069885,0.031025033444166183
1683132149491336000,6.0043359375,-0.1803750991821289,0.38175106048583984,-0.05209667235612869
1683132149509175800,6.02217578125,0.21726131439208984,-0.28941017389297485,-0.02362453192472458
1683132149527016200,6.04001611328125,-0.19633102416992188,0.09275734424591064,-0.028504177927970886
1683132149544857300,6.057857421875,0.23230838775634766,-0.15071356296539307,-0.13645783066749573
1683132149562693600,6.075693603515625,-0.21405982971191406,0.06897556781768799,0.1494392454624176
1683132149580537000,6.093537109375,0.1470661163330078,0.0014472007751464844,-0.22353337705135345
1683132149598364400,6.111364501953125,-0.14596843719482422,0.08629703521728516,0.29365095496177673
1683132149616218000,6.129218017578125,0.06991195678710938,0.07493007183074951,-0.2994329333305359
1683132149634058000,6.14705810546875,-0.10301399230957031,-0.06613814830780029,0.22722911834716797
1683132149651886800,6.164886962890625,-0.15981674194335938,0.10203337669372559,-0.21096082031726837
1683132149669727200,6.182727294921875,0.008657455444335938,-0.3002279996871948,0.11810874193906784
1683132149687566800,6.20056689453125,-0.23806095123291016,0.36384761333465576,-0.08094806969165802
1683132149705410600,6.21841064453125,0.092498779296875,-0.47549164295196533,0.05110771209001541
1683132149723259100,6.236259033203125,-0.17702484130859375,0.5210860967636108,-0.023548491299152374
1683132149741099500,6.254099609375,0.24207305908203125,-0.3715100884437561,0.01606067270040512
1683132149758939100,6.271939208984375,-0.17609405517578125,0.23303472995758057,-0.0680730938911438
1683132149776777200,6.289777099609375,0.2660636901855469,-0.1764920949935913,-0.069300577044487
1683132149794620400,6.307620361328125,-0.17305850982666016,0.02056872844696045,0.006943986751139164
1683132149812460800,6.325460693359375,0.2220478057861328,-0.12027502059936523,-0.2029932141304016
1683132149830301000,6.343301025390625,-0.21258163452148438,0.09268558025360107,0.22719281911849976
1683132149848141300,6.361141357421875,0.07530975341796875,0.02751946449279785,-0.266906201839447
1683132149865981700,6.378981689453125,-0.12758922576904297,0.09377360343933105,0.31670254468917847
1683132149883821600,6.396821533203125,-0.02514171600341797,0.0813983678817749,-0.26132604479789734
1683132149901662200,6.414662109375,-0.07222270965576172,-0.1835230588912964,0.18462151288986206
1683132149919495200,6.4324951171875,-0.21455669403076172,0.1890043020248413,-0.15344518423080444
1683132149937342200,6.45034228515625,0.043189048767089844,-0.38894474506378174,0.0875694677233696
1683132149955182800,6.468182861328125,-0.2555885314941406,0.5119156837463379,-0.03136882930994034
1683132149973023000,6.48602294921875,0.168426513671875,-0.5023499131202698,0.038668371737003326
1683132149990859000,6.50385888671875,-0.13051700592041016,0.47176194190979004,-0.023997098207473755
1683132150008703500,6.521703369140625,0.2508726119995117,-0.28716152906417847,-0.0020811958238482475
1683132150026540800,6.539540771484375,-0.11973285675048828,0.1021735668182373,-0.0392557717859745
1683132150044384300,6.55738427734375,0.24807262420654297,-0.10184478759765625,-0.13581283390522003
1683132150062212900,6.575212890625,-0.15024375915527344,-0.0008383989334106445,0.1136847659945488
1683132150080066300,6.59306640625,0.1999187469482422,-0.04861891269683838,-0.25912797451019287
1683132150097905200,6.6109052734375,-0.1726207733154297,0.11427199840545654,0.29395487904548645
1683132150115745500,6.62874560546875,-0.022844314575195312,0.0748518705368042,-0.26942503452301025
1683132150133586000,6.6465859375,-0.13589954376220703,-0.0102003812789917,0.2578951120376587
1683132150151425800,6.66442578125,-0.13080215454101562,0.13364887237548828,-0.21583367884159088
1683132150169266200,6.68226611328125,-0.03876972198486328,-0.3324970006942749,0.11645308881998062
1683132150187107800,6.70010791015625,-0.2863349914550781,0.35307133197784424,-0.11062674969434738
1683132150204947000,6.717947021484375,0.13102149963378906,-0.48945677280426025,0.07358115911483765
1683132150222776800,6.73577685546875,-0.20129871368408203,0.5710104703903198,0.0041849976405501366
1683132150240622600,6.75362255859375,0.23001575469970703,-0.45392489433288574,0.02510732226073742
1683132150258467600,6.771467529296875,-0.1454629898071289,0.34014570713043213,-0.03334171324968338
1683132150276308000,6.789307861328125,0.26470184326171875,-0.13586556911468506,-0.0713912770152092
1683132150294146600,6.807146484375,-0.1191110610961914,-0.0193406343460083,0.01886170357465744
1683132150311983400,6.8249833984375,0.20819377899169922,-0.041204094886779785,-0.22179561853408813
1683132150329828600,6.84282861328125,-0.12848281860351562,-0.008303523063659668,0.2036265879869461
1683132150347672000,6.860672119140625,0.10918712615966797,-0.050377845764160156,-0.27876296639442444
1683132150365512200,6.87851220703125,-0.10430240631103516,0.1091158390045166,0.3069058358669281
1683132150383349500,6.896349609375,-0.11034488677978516,0.08242285251617432,-0.2412409782409668
1683132150401189600,6.914189697265625,-0.06273078918457031,-0.15759921073913574,0.1949307918548584
1683132150419029800,6.93202978515625,-0.21746540069580078,0.21267902851104736,-0.1797952950000763
1683132150436868900,6.949868896484375,0.015959739685058594,-0.43772876262664795,0.08792781829833984
1683132150454710800,6.967710693359375,-0.2900056838989258,0.48020946979522705,-0.07756517827510834
1683132150472533000,6.985532958984375,0.19435501098632812,-0.47364068031311035,0.06556960195302963
1683132150490387000,7.003386962890625,-0.18417739868164062,0.5098117589950562,0.003431381657719612
1683132150508229000,7.02122900390625,0.2379312515258789,-0.2655736804008484,-0.005681023001670837
1683132150526070800,7.03907080078125,-0.07427501678466797,0.15544259548187256,-0.013422801159322262
1683132150543912000,7.056911865234375,0.3106260299682617,-0.028023481369018555,-0.14420127868652344
1683132150561747700,7.074747802734375,-0.08598041534423828,-0.05155956745147705,0.1178387999534607
1683132150579592400,7.092592529296875,0.08446598052978516,-0.07859992980957031,-0.28155022859573364
1683132150597435600,7.110435546875,-0.13153362274169922,0.03282284736633301,0.2810196876525879
1683132150615261400,7.128261474609375,-0.07039451599121094,0.046967148780822754,-0.24987241625785828
1683132150633110800,7.14611083984375,-0.10020828247070312,-0.013488173484802246,0.24073202908039093
1683132150650954000,7.1639541015625,-0.20484352111816406,0.16511714458465576,-0.2216963768005371
1683132150668793900,7.1817939453125,0.033553123474121094,-0.32452118396759033,0.10851366817951202
1683132150686631700,7.199631591796875,-0.2646961212158203,0.35529351234436035,-0.12756168842315674
1683132150704474600,7.217474609375,0.13197803497314453,-0.48018014430999756,0.0833243727684021
1683132150722314800,7.235314697265625,-0.24960708618164062,0.5657874345779419,-0.007251562550663948
1683132150740155400,7.2531552734375,0.20937538146972656,-0.36312949657440186,0.05431491136550903
1683132150757994500,7.270994384765625,-0.12753868103027344,0.33837318420410156,0.028607865795493126
1683132150775835600,7.288835693359375,0.2585258483886719,-0.06493246555328369,-0.08539383113384247
1683132150793678800,7.306678955078125,-0.12108421325683594,-0.022930383682250977,0.05588734894990921
1683132150811516400,7.324516357421875,0.14771080017089844,-0.037958383560180664,-0.2713911235332489
1683132150829356500,7.3423564453125,-0.003017425537109375,-0.07564246654510498,0.23323099315166473
1683132150847197000,7.360197021484375,0.013357162475585938,-0.08961057662963867,-0.3067568242549896
1683132150865040100,7.3780400390625,-0.11417961120605469,0.012254595756530762,0.278277188539505
1683132150882879200,7.395879150390625,-0.1529703140258789,0.14815783500671387,-0.20541168749332428
1683132150900701000,7.413700927734375,0.0019855499267578125,-0.16051197052001953,0.17706157267093658
1683132150918555100,7.43155517578125,-0.3343009948730469,0.2572133541107178,-0.1630515456199646
1683132150936398300,7.4493984375,0.07201957702636719,-0.4752963185310364,0.07144501060247421
1683132150954242000,7.467241943359375,-0.21745014190673828,0.4395437240600586,-0.07527408003807068
1683132150972078800,7.485078857421875,0.1009073257446289,-0.49937617778778076,0.06928403675556183
1683132150989905200,7.5029052734375,-0.18422508239746094,0.5042771100997925,0.053887538611888885
1683132151007758600,7.520758544921875,0.2554035186767578,-0.1830517053604126,-0.040590107440948486
1683132151025591300,7.53859130859375,-0.13640975952148438,0.17196404933929443,0.062136195600032806
1683132151043437800,7.556437744140625,0.2644920349121094,0.07045364379882812,-0.22871704399585724
1683132151061280500,7.574280517578125,-0.01647472381591797,-0.13941586017608643,0.1483280211687088
1683132151079114800,7.59211474609375,0.051947593688964844,-0.04079413414001465,-0.3280177414417267
1683132151096962800,7.609962890625,-0.0842142105102539,-0.05108344554901123,0.2693178951740265
1683132151114801400,7.627801513671875,-0.12777328491210938,0.0260847806930542,-0.24200567603111267
1683132151132641800,7.645641845703125,-0.01967906951904297,-0.07948100566864014,0.1994633972644806
1683132151150482000,7.66348193359375,-0.21140098571777344,0.2651320695877075,-0.15249793231487274
1683132151168317700,7.681317626953125,0.0718841552734375,-0.3592682480812073,0.09676193445920944
1683132151186163200,7.6991630859375,-0.24845600128173828,0.37421715259552,-0.0972452163696289
1683132151204003000,7.717003173828125,0.11869621276855469,-0.5332731008529663,0.05449338257312775
1683132151221827600,7.73482763671875,-0.23920154571533203,0.5317404270172119,0.015852589160203934
1683132151239679000,7.752678955078125,0.1681203842163086,-0.347034752368927,0.007773160934448242
1683132151257524000,7.77052392578125,-0.21442317962646484,0.3275097608566284,0.11443126946687698
1683132151275365000,7.788365234375,0.2629222869873047,0.053499460220336914,-0.15252374112606049
1683132151293204500,7.80620458984375,-0.07871437072753906,-0.062221646308898926,0.1417514830827713
1683132151311044600,7.824044677734375,0.15823650360107422,0.10123515129089355,-0.32369109988212585
1683132151328878800,7.84187890625,0.020532608032226562,-0.1520169973373413,0.23241108655929565
1683132151346725000,7.85972509765625,-0.06910037994384766,-0.03781414031982422,-0.29896289110183716
1683132151364558600,7.87755859375,-0.030236244201660156,-0.11679410934448242,0.23837310075759888
1683132151382401300,7.8954013671875,-0.18979167938232422,0.17682957649230957,-0.15206095576286316
1683132151400241400,7.913241455078125,0.028067588806152344,-0.2535051107406616,0.12193088978528976
1683132151418086100,7.931086181640625,-0.1944427490234375,0.38705408573150635,-0.1217648833990097
1683132151435926000,7.948926025390625,0.1305217742919922,-0.48101282119750977,0.01927458867430687
1683132151453767000,7.966766845703125,-0.28821468353271484,0.37875378131866455,-0.06679190695285797
1683132151471607300,7.984607177734375,0.15466785430908203,-0.370547890663147,0.005391797050833702
1683132151489448000,8.002447998046875,-0.2811155319213867,0.40211284160614014,0.109998419880867
1683132151507287800,8.020287841796875,0.2783527374267578,-0.03880655765533447,-0.11284542083740234
1683132151525129500,8.03812939453125,-0.08553028106689453,0.13614583015441895,0.21572451293468475
1683132151542972000,8.055971923828125,0.2232341766357422,0.1467294692993164,-0.2842075228691101
1683132151560809000,8.07380908203125,-0.022123336791992188,-0.16150224208831787,0.17141211032867432
1683132151578648800,8.09164892578125,0.00016117095947265625,0.0315173864364624,-0.33868005871772766
1683132151596490500,8.109490478515625,0.020008087158203125,-0.1834777593612671,0.17454445362091064
1683132151614329600,8.12732958984375,-0.22068309783935547,0.15939593315124512,-0.17060983180999756
1683132151632158200,8.145158203125,0.019315719604492188,-0.3045738935470581,0.11898364871740341
1683132151650004200,8.163004150390625,-0.21581268310546875,0.38646209239959717,-0.0891009122133255
1683132151667836200,8.180836181640625,0.07296371459960938,-0.42169857025146484,0.052373435348272324
1683132151685679000,8.19867919921875,-0.2597360610961914,0.26159167289733887,-0.097557932138443
1683132151703518000,8.21651806640625,0.2316732406616211,-0.33359336853027344,0.014851334504783154
1683132151721369900,8.234369873046875,-0.26848697662353516,0.22579145431518555,0.040014006197452545
1683132151739211800,8.252211669921875,0.17276477813720703,-0.1393214464187622,-0.08481088280677795
1683132151757052000,8.270052001953125,-0.1677703857421875,0.18366765975952148,0.2014329731464386
1683132151774893000,8.28789306640625,0.26415061950683594,0.05458486080169678,-0.2447919100522995
1683132151792732700,8.305732666015626,-0.054416656494140625,-0.026587367057800293,0.23563508689403534
1683132151810560300,8.323560302734375,0.06323528289794922,0.0830540657043457,-0.3118441700935364
1683132151828413200,8.3414130859375,0.021734237670898438,-0.21058833599090576,0.1618470698595047
1683132151846257000,8.3592568359375,-0.17287063598632812,0.16973114013671875,-0.22357957065105438
1683132151864093400,8.377093505859374,-0.029005050659179688,-0.3020780086517334,0.13161523640155792
1683132151881934000,8.39493408203125,-0.2584400177001953,0.39331579208374023,-0.0611744225025177
1683132151899774500,8.4127744140625,0.06026458740234375,-0.4044816493988037,0.0676104798913002
1683132151917615900,8.430615966796875,-0.1570720672607422,0.3814901113510132,-0.08896570652723312
1683132151935443200,8.448443115234374,0.1816425323486328,-0.4081394076347351,0.025169745087623596
1683132151953295600,8.466295654296875,-0.2476358413696289,0.1950465440750122,-0.051593322306871414
1683132151971131100,8.484131103515624,0.25026988983154297,-0.19761896133422852,-0.08714444190263748
1683132151988974800,8.501974853515625,-0.25064754486083984,0.21413516998291016,0.13812673091888428
1683132152006816300,8.519816162109375,0.2220449447631836,0.00332796573638916,-0.17926998436450958
1683132152024656600,8.53765673828125,-0.10002899169921875,0.1134411096572876,0.2879045307636261
1683132152042497000,8.5554970703125,0.16272354125976562,0.0948035717010498,-0.28452181816101074
1683132152060337200,8.573337158203126,-0.05078601837158203,-0.12199735641479492,0.20408250391483307
1683132152078173700,8.591173583984375,-0.095062255859375,0.10443830490112305,-0.26220622658729553
1683132152096017000,8.609016845703126,0.019484519958496094,-0.2707507610321045,0.12755689024925232
1683132152113858000,8.626858154296874,-0.24617576599121094,0.2879490852355957,-0.11641229689121246
1683132152131699700,8.64469970703125,0.05428886413574219,-0.4067373275756836,0.09525233507156372
1683132152149538600,8.66253857421875,-0.1752471923828125,0.4849921464920044,-0.02811909094452858
1683132152167380000,8.6803798828125,0.18402862548828125,-0.3954756259918213,0.035888757556676865
1683132152185219800,8.6982197265625,-0.17048358917236328,0.2998250722885132,-0.09715244174003601
1683132152203059500,8.7160595703125,0.2283773422241211,-0.2613484859466553,-0.03415248543024063
1683132152220900000,8.733900146484375,-0.2491140365600586,0.11779987812042236,0.016436701640486717
1683132152238739200,8.7517392578125,0.2523536682128906,-0.12702107429504395,-0.14904707670211792
1683132152256577500,8.76957763671875,-0.22120380401611328,0.1508549451828003,0.21230056881904602
1683132152274420700,8.787420654296875,0.12034225463867188,0.029324889183044434,-0.24158820509910583
1683132152292256500,8.805256591796875,-0.06838321685791016,0.06088376045227051,0.2931208312511444
1683132152310101500,8.8231015625,-0.0007429122924804688,0.07349050045013428,-0.2763191759586334
1683132152327941600,8.840941650390626,-0.061936378479003906,-0.2039273977279663,0.18227076530456543
1683132152345770000,8.85877001953125,-0.22161006927490234,0.16197288036346436,-0.19853779673576355
1683132152363614200,8.8766142578125,0.06428050994873047,-0.3478139638900757,0.09386400133371353
1683132152381462500,8.894462646484374,-0.23972606658935547,0.44447147846221924,-0.03359560668468475
1683132152399305700,8.9123056640625,0.11962890625,-0.45316189527511597,0.0434768907725811
1683132152417145000,8.93014501953125,-0.1521930694580078,0.48145055770874023,-0.04458828270435333
1683132152434984400,8.947984375,0.25936031341552734,-0.3715829849243164,0.00834263488650322
1683132152452824000,8.965823974609375,-0.2098531723022461,0.16663074493408203,-0.07987497746944427
1683132152470664200,8.983664306640625,0.2066669464111328,-0.17430317401885986,-0.10033559054136276
1683132152488493800,9.001493896484375,-0.13563156127929688,0.07333755493164062,0.09356474876403809
1683132152506344700,9.0193447265625,0.1806793212890625,-0.04553031921386719,-0.1958869844675064
1683132152524185000,9.03718505859375,-0.2114391326904297,0.1232835054397583,0.26526734232902527
1683132152542022400,9.0550224609375,0.14213085174560547,0.05546283721923828,-0.31326767802238464
1683132152559865600,9.072865478515626,-0.08318042755126953,-0.012625575065612793,0.2736673057079315
1683132152577706000,9.0907060546875,-0.0950918197631836,0.10670971870422363,-0.24573208391666412
1683132152595549200,9.108549072265625,-0.022812843322753906,-0.27864015102386475,0.15444590151309967
1683132152613387000,9.126386962890624,-0.18838024139404297,0.29162776470184326,-0.12282992899417877
1683132152631227100,9.14422705078125,0.09878921508789062,-0.43133753538131714,0.07939215004444122
1683132152649067000,9.16206689453125,-0.2466745376586914,0.5004955530166626,-0.02054721489548683
1683132152666896400,9.179896484375,0.2509469985961914,-0.4105720520019531,0.03922224044799805
1683132152684741000,9.1977412109375,-0.1652536392211914,0.3417621850967407,-0.03845297172665596
1683132152702576400,9.215576416015624,0.2344036102294922,-0.24940800666809082,-0.03233363851904869
1683132152720424400,9.233424560546876,-0.14326095581054688,0.0840531587600708,-0.017449593171477318
1683132152738253300,9.25125341796875,0.2149953842163086,-0.12169325351715088,-0.15483877062797546
1683132152756108000,9.26910791015625,-0.22696876525878906,0.09235715866088867,0.1761883795261383
1683132152773952300,9.2869521484375,0.15267276763916016,0.01687300205230713,-0.24583700299263
1683132152791789800,9.304789794921875,-0.12700748443603516,0.08946084976196289,0.31962820887565613
1683132152809632800,9.3226328125,0.01522064208984375,0.0731651782989502,-0.2917420268058777
1683132152827470000,9.340469970703126,-0.1121664047241211,-0.14487159252166748,0.212429940700531
1683132152845313500,9.3583134765625,-0.1528644561767578,0.11507225036621094,-0.1859188675880432
1683132152863148000,9.37614794921875,0.06071758270263672,-0.3302410840988159,0.10088665038347244
1683132152880991200,9.3939912109375,-0.27667903900146484,0.41201043128967285,-0.0456114262342453
1683132152898831400,9.411831298828124,0.1592264175415039,-0.508873462677002,0.0530841238796711
1683132152916671700,9.429671630859374,-0.0745401382446289,0.5280473232269287,0.013777920976281166
1683132152934512400,9.447512451171875,0.2256755828857422,-0.3723841905593872,0.01395501010119915
1683132152952352300,9.465352294921875,-0.167938232421875,0.2024986743927002,-0.06167595461010933
1683132152970192600,9.483192626953125,0.2696809768676758,-0.12345576286315918,-0.09783752262592316
1683132152988030500,9.501030517578124,-0.19612789154052734,0.008421659469604492,0.07451632618904114
1683132153005874700,9.518874755859375,0.1987628936767578,-0.055992722511291504,-0.22286216914653778
1683132153023713800,9.5367138671875,-0.19215679168701172,0.09607386589050293,0.2543838620185852
1683132153041539600,9.55453955078125,0.05607128143310547,0.04668450355529785,-0.27294275164604187
1683132153059388200,9.57238818359375,-0.08914947509765625,0.06573760509490967,0.2848342955112457
1683132153077234400,9.590234375,-0.09325885772705078,0.09223818778991699,-0.24992507696151733
1683132153095077000,9.6080771484375,-0.056423187255859375,-0.2424914836883545,0.148170605301857
1683132153112915000,9.6259150390625,-0.21511077880859375,0.2912271022796631,-0.12205343693494797
1683132153130755300,9.64375537109375,0.12195777893066406,-0.4647796154022217,0.07383529096841812
1683132153148584200,9.661584228515625,-0.2242755889892578,0.549001932144165,0.00027290452271699905
1683132153166436000,9.67943603515625,0.22071456909179688,-0.4730227589607239,0.03360198438167572
1683132153184276500,9.6972763671875,-0.0838785171508789,0.3984825611114502,-0.0312885046005249
1683132153202116400,9.715116455078125,0.2840585708618164,-0.19197678565979004,-0.03233621269464493
1683132153219956700,9.732956787109375,-0.1374959945678711,0.0528256893157959,0.011342570185661316
1683132153237796900,9.750796875,0.20951557159423828,-0.07004940509796143,-0.15061788260936737
1683132153255638800,9.768638671875,-0.15984630584716797,0.015146732330322266,0.16822607815265656
1683132153273477600,9.7864775390625,0.15026283264160156,-0.02314603328704834,-0.2671145796775818
1683132153291318000,9.804318115234375,-0.1598834991455078,0.10065031051635742,0.29435694217681885
1683132153309158400,9.822158447265625,-0.052285194396972656,0.10331225395202637,-0.25055262446403503
1683132153326999600,9.83999951171875,-0.11152935028076172,-0.09285235404968262,0.22250932455062866
1683132153344838100,9.857838134765625,-0.1895761489868164,0.15398597717285156,-0.1710287183523178
1683132153362679300,9.87567919921875,0.02899932861328125,-0.3800809979438782,0.09462856501340866
1683132153380515300,9.893515380859375,-0.22507953643798828,0.4403386116027832,-0.09683148562908173
1683132153398360600,9.911360595703124,0.09986114501953125,-0.5145953297615051,0.07151605188846588
1683132153416200200,9.9292001953125,-0.1925497055053711,0.5324561595916748,-0.01184316910803318
1683132153434040800,9.947040771484374,0.2826051712036133,-0.3372228145599365,0.027023987844586372
1683132153451879200,9.964879150390624,-0.13304710388183594,0.24731314182281494,-0.02961241453886032
1683132153469717800,9.9827177734375,0.26855945587158203,-0.05926012992858887,-0.09943185746669769
1683132153487561200,10.000561279296875,-0.07076358795166016,-0.013791680335998535,0.0730893537402153
1683132153505402600,10.018402587890625,0.1620616912841797,-0.042025208473205566,-0.2552458345890045
1683132153523242000,10.036241943359375,-0.15782642364501953,0.02730393409729004,0.2517404854297638
1683132153541081000,10.0540810546875,0.04290485382080078,0.0034095048904418945,-0.26855459809303284
1683132153558922500,10.071922607421875,-0.1428976058959961,0.04008662700653076,0.279480516910553
1683132153576764200,10.08976416015625,-0.12356853485107422,0.12659358978271484,-0.24152019619941711
1683132153594603000,10.10760302734375,0.014239311218261719,-0.2517235279083252,0.13793538510799408
1683132153612443100,10.125443115234376,-0.2651968002319336,0.2537497282028198,-0.15077292919158936
1683132153630283500,10.143283447265626,0.11029624938964844,-0.4874998927116394,0.07963160425424576
1683132153648125200,10.161125244140624,-0.1688213348388672,0.5336993932723999,-0.02698386088013649
1683132153665963500,10.178963623046876,0.22653961181640625,-0.44889479875564575,0.0718378946185112
1683132153683790300,10.196790283203125,-0.15984630584716797,0.4269293546676636,0.0022587506100535393
1683132153701634000,10.214634033203126,0.3126974105834961,-0.19912874698638916,-0.03393823280930519
1683132153719473700,10.2324736328125,-0.07738208770751953,0.07239401340484619,0.03083796612918377
1683132153737325300,10.2503251953125,0.21416378021240234,-0.011281013488769531,-0.1976071447134018
1683132153755166000,10.268166015625,-0.08936786651611328,-0.05348837375640869,0.18572890758514404
1683132153773005800,10.286005859375,0.04708576202392578,-0.05164492130279541,-0.29247695207595825
1683132153790846500,10.303846435546875,-0.0900421142578125,0.03354048728942871,0.303442120552063
1683132153808686300,10.321686279296875,-0.14190673828125,0.10786294937133789,-0.2221190482378006
1683132153826525700,10.339525634765625,-0.048974037170410156,-0.06500434875488281,0.19174005091190338
1683132153844367000,10.3573671875,-0.21554088592529297,0.23058831691741943,-0.20805180072784424
1683132153862207500,10.37520751953125,0.09857845306396484,-0.41504746675491333,0.08008676767349243
1683132153880047600,10.393047607421876,-0.2388601303100586,0.43239736557006836,-0.11433207988739014
1683132153897889300,10.41088916015625,0.1404705047607422,-0.5116492509841919,0.06148770451545715
1683132153915728100,10.42872802734375,-0.15164566040039062,0.5378880500793457,0.00893182773143053
1683132153933568300,10.446568359375,0.2505931854248047,-0.2834934592247009,0.028294090181589127
1683132153951409000,10.464408935546874,-0.1291189193725586,0.2542088031768799,0.04066549241542816
1683132153969237500,10.482237548828126,0.2476034164428711,-0.012671351432800293,-0.1312171071767807
1683132153987077600,10.50007763671875,-0.031241416931152344,-0.05921769142150879,0.11498217284679413
1683132154004919000,10.5179189453125,0.07963943481445312,-0.060209035873413086,-0.3112902343273163
1683132154022777900,10.53577783203125,-0.03222465515136719,-0.0660696029663086,0.2622208893299103
1683132154040611800,10.55361181640625,-0.0932168960571289,-0.02197575569152832,-0.2687379717826843
1683132154058450400,10.571450439453125,-0.037764549255371094,-0.024602770805358887,0.2538492977619171
1683132154076291000,10.589291015625,-0.1605396270751953,0.20576167106628418,-0.18435195088386536
1683132154094131200,10.607131103515625,0.02452850341796875,-0.24253714084625244,0.11644796282052994
1683132154111974700,10.624974609375,-0.25667572021484375,0.3191401958465576,-0.13555803894996643
1683132154129808400,10.642808349609375,0.12145233154296875,-0.5100893378257751,0.08000422269105911
1683132154147651300,10.6606513671875,-0.21685409545898438,0.5014008283615112,-0.027262022718787193
1683132154165489400,10.678489501953125,0.1645498275756836,-0.45509791374206543,0.048620954155921936
1683132154183332900,10.696332763671874,-0.10260391235351562,0.4374418258666992,0.05669334903359413
1683132154201170000,10.714169921875,0.25103759765625,-0.09160161018371582,-0.06259505450725555
1683132154219014100,10.73201416015625,-0.06134223937988281,0.05097055435180664,0.08968746662139893
1683132154236853500,10.749853515625,0.21802234649658203,0.11955571174621582,-0.23138871788978577
1683132154254694000,10.76769384765625,-0.04950523376464844,-0.16161441802978516,0.18735219538211823
1683132154272534300,10.7855341796875,0.01968097686767578,-0.03993344306945801,-0.3302527070045471
1683132154290374400,10.80337451171875,-0.0704507827758789,-0.052091002464294434,0.25281721353530884
1683132154308211000,10.8212109375,-0.19647502899169922,0.051409125328063965,-0.2305007129907608
1683132154326054100,10.83905419921875,0.014561653137207031,-0.13316357135772705,0.16221214830875397
1683132154343895300,10.856895263671875,-0.2598419189453125,0.30796241760253906,-0.13769914209842682
1683132154361735400,10.8747353515625,0.06994247436523438,-0.4544861912727356,0.049738653004169464
1683132154379575600,10.892575439453125,-0.13078022003173828,0.39667725563049316,-0.08399311453104019
1683132154397415000,10.910414794921875,0.13466548919677734,-0.5315250158309937,0.0428045392036438
1683132154415256300,10.92825634765625,-0.26943111419677734,0.5002018213272095,0.03298049047589302
1683132154433098000,10.946097900390624,0.23217010498046875,-0.21806693077087402,-0.017421239987015724
1683132154450941700,10.963941650390625,-0.12845611572265625,0.22381579875946045,0.13686038553714752
1683132154468764000,10.981763916015625,0.2712574005126953,0.09316205978393555,-0.18709537386894226
1683132154486614500,10.999614501953126,-0.07775688171386719,-0.14053702354431152,0.1751372367143631
1683132154504449300,11.01744921875,0.1103982925415039,0.05974125862121582,-0.332872599363327
1683132154522297900,11.0352978515625,0.0052490234375,-0.12184488773345947,0.26973265409469604
1683132154540141300,11.053141357421875,-0.14960479736328125,0.0013710260391235352,-0.2568764090538025
1683132154557978600,11.070978515625,0.0014438629150390625,-0.12966704368591309,0.215045765042305
1683132154575821800,11.08882177734375,-0.22122955322265625,0.23786866664886475,-0.13754123449325562
1683132154593662200,11.106662109375,0.03417205810546875,-0.30270546674728394,0.08255751430988312
1683132154611502000,11.124502197265626,-0.1782855987548828,0.3768106698989868,-0.12385046482086182
1683132154629336600,11.142336669921875,0.1289663314819336,-0.5042909383773804,0.03250554949045181
1683132154647179800,11.1601796875,-0.28290367126464844,0.4146643877029419,-0.02211356908082962
1683132154665021400,11.178021484375,0.19921112060546875,-0.36188238859176636,-0.0010107913985848427
1683132154682860500,11.195860595703126,-0.22892284393310547,0.36907923221588135,0.14784470200538635
1683132154700701000,11.213700927734376,0.2814464569091797,0.04215991497039795,-0.12832219898700714
1683132154718535200,11.23153515625,-0.07977962493896484,0.016985535621643066,0.18678104877471924
1683132154736381400,11.24938134765625,0.24743175506591797,0.1361386775970459,-0.3201614320278168
1683132154754221600,11.2672216796875,0.0017414093017578125,-0.1940305233001709,0.16022074222564697
1683132154772061700,11.285061767578124,-0.04506206512451172,0.037877440452575684,-0.3172169327735901
1683132154789896200,11.302896240234375,0.05514812469482422,-0.20807218551635742,0.17861773073673248
1683132154807742500,11.320742431640625,-0.21207332611083984,0.21471691131591797,-0.15597902238368988
1683132154825582800,11.338582763671875,0.017487525939941406,-0.3224305510520935,0.09857062250375748
1683132154843423000,11.356423095703125,-0.14447975158691406,0.37688004970550537,-0.07952197641134262
1683132154861265700,11.374265625,0.10329627990722656,-0.4483466148376465,0.0589730441570282
1683132154879091700,11.392091796875,-0.2782001495361328,0.2763254642486572,-0.04609007388353348
1683132154896944400,11.4099443359375,0.18015480041503906,-0.33449870347976685,0.016594000160694122
1683132154914784000,11.427783935546875,-0.25359535217285156,0.3493460416793823,0.1092008501291275
1683132154932624100,11.4456240234375,0.20808982849121094,-0.08669805526733398,-0.10035954415798187
1683132154950464300,11.46346435546875,-0.11819267272949219,0.17798244953155518,0.23664921522140503
1683132154968293400,11.48129345703125,0.2939319610595703,0.10560643672943115,-0.24875019490718842
1683132154986144300,11.499144287109376,-0.01750469207763672,-0.07023751735687256,0.21258005499839783
1683132155003972400,11.516972412109375,0.04144859313964844,0.06147325038909912,-0.33444684743881226
1683132155021825800,11.53482568359375,0.021439552307128906,-0.20246624946594238,0.18209822475910187
1683132155039660000,11.552659912109375,-0.21433734893798828,0.1429823637008667,-0.22303494811058044
1683132155057506300,11.57050634765625,0.03818798065185547,-0.28514987230300903,0.1072150468826294
1683132155075349500,11.588349609375,-0.2357339859008789,0.3678297996520996,-0.05020325258374214
1683132155093186800,11.606186767578125,0.11934185028076172,-0.36300110816955566,0.07622311264276505
1683132155111022000,11.62402197265625,-0.21237468719482422,0.36140501499176025,-0.07923068106174469
1683132155128867000,11.6418671875,0.14760875701904297,-0.4328263998031616,0.02098248153924942
1683132155146707500,11.65970751953125,-0.21950244903564453,0.24780452251434326,-0.01349651999771595
1683132155164547800,11.6775478515625,0.18061161041259766,-0.24422132968902588,-0.045806754380464554
1683132155182388200,11.69538818359375,-0.23788070678710938,0.24771523475646973,0.15639269351959229
1683132155200228400,11.713228271484375,0.27854061126708984,0.03443467617034912,-0.17346781492233276
1683132155218068500,11.731068359375,-0.09911727905273438,0.08036434650421143,0.25398343801498413
1683132155235909000,11.7489091796875,0.1761798858642578,0.11927127838134766,-0.29786139726638794
1683132155253749200,11.766749267578126,0.025376319885253906,-0.16101229190826416,0.18633674085140228
1683132155271589400,11.78458935546875,-0.04971885681152344,0.0779116153717041,-0.26209115982055664
1683132155289430000,11.802429931640624,0.050438880920410156,-0.19794154167175293,0.1797381192445755
1683132155307271200,11.820271240234375,-0.222747802734375,0.2627110481262207,-0.13894417881965637
1683132155325110300,11.8381103515625,-0.0050144195556640625,-0.33765357732772827,0.10805680602788925
1683132155342950400,11.855950439453125,-0.2194061279296875,0.4537454843521118,-0.04861723631620407
1683132155360786200,11.8737861328125,0.16136455535888672,-0.4206429719924927,0.05512750521302223
1683132155378631000,11.891630859375,-0.21246051788330078,0.3072241544723511,-0.08117750287055969
1683132155396471300,11.90947119140625,0.18372821807861328,-0.3291221261024475,-0.0023507392033934593
1683132155414310000,11.927309814453125,-0.2221384048461914,0.25231313705444336,0.06507709622383118
1683132155432134000,11.9451337890625,0.18848705291748047,-0.14027297496795654,-0.11006565392017365
1683132155449996000,11.96299609375,-0.2271728515625,0.19135892391204834,0.22076889872550964
1683132155467818800,11.98081884765625,0.3039226531982422,0.10124564170837402,-0.2388862520456314
1683132155485672700,11.998672607421875,-0.03183937072753906,-0.010137319564819336,0.25540831685066223
1683132155503501000,12.0165009765625,0.02415180206298828,0.12384486198425293,-0.29601070284843445
1683132155521350100,12.03435009765625,0.037876129150390625,-0.22355592250823975,0.17292436957359314
1683132155539196000,12.05219580078125,-0.15227603912353516,0.15549588203430176,-0.21434679627418518
1683132155557032400,12.070032470703126,0.022292137145996094,-0.2995184659957886,0.13043302297592163
1683132155574877000,12.087876953125,-0.27599048614501953,0.3917520046234131,-0.02758452668786049
1683132155592714000,12.1057138671875,0.0872344970703125,-0.37196075916290283,0.08411504328250885
1683132155610556200,12.12355615234375,-0.1476449966430664,0.42812228202819824,-0.062209393829107285
1683132155628399400,12.1413994140625,0.17794322967529297,-0.4043534994125366,-0.0013749636709690094
1683132155646235000,12.15923486328125,-0.2098398208618164,0.17663288116455078,-0.057263560593128204
1683132155664063700,12.177063720703124,0.21262645721435547,-0.19803965091705322,-0.09047941863536835
1683132155681911000,12.1949111328125,-0.22181129455566406,0.16453278064727783,0.12223360687494278
1683132155699752400,12.21275244140625,0.16734695434570312,-0.018682003021240234,-0.17142659425735474
1683132155717584400,12.23058447265625,-0.11001300811767578,0.080605149269104,0.2778407633304596
1683132155735425300,12.24842529296875,0.11776256561279297,0.10985064506530762,-0.30633363127708435
1683132155753279700,12.26627978515625,-0.04629039764404297,-0.13040626049041748,0.22249530255794525
1683132155771119400,12.284119384765624,-0.0758199691772461,0.08316540718078613,-0.23807694017887115
1683132155788957000,12.30195703125,0.0357208251953125,-0.24455857276916504,0.1377629041671753
1683132155806796000,12.319796142578125,-0.2254047393798828,0.3096308708190918,-0.09029529988765717
1683132155824637400,12.337637451171876,0.12282466888427734,-0.43946993350982666,0.0789879709482193
1683132155842477600,12.3554775390625,-0.1755228042602539,0.5107488632202148,-0.009838428348302841
1683132155860318200,12.373318115234374,0.19416522979736328,-0.429684579372406,0.02395019680261612
1683132155878153000,12.391153076171875,-0.16001605987548828,0.2791856527328491,-0.08584369719028473
1683132155895997700,12.408997802734374,0.2974424362182617,-0.20652151107788086,-0.053488053381443024
1683132155913838600,12.426838623046875,-0.18229198455810547,0.049529075622558594,0.019948884844779968
1683132155931679000,12.444678955078125,0.18759632110595703,-0.08614945411682129,-0.1740664541721344
1683132155949519000,12.46251904296875,-0.18935108184814453,0.12223517894744873,0.2181229442358017
1683132155967359500,12.480359375,0.18895435333251953,0.04492485523223877,-0.24430683255195618
1683132155985199900,12.498199951171875,-0.10931968688964844,0.08284950256347656,0.31148606538772583
1683132156003039700,12.516039794921875,-0.025274276733398438,0.07661747932434082,-0.2738349139690399
1683132156020865800,12.53386572265625,-0.011438369750976562,-0.2106844186782837,0.18085840344429016
1683132156038720500,12.551720458984375,-0.15488338470458984,0.1902763843536377,-0.15811790525913239
1683132156056560600,12.569560546875,0.0432281494140625,-0.3764212727546692,0.08971773833036423
1683132156074401300,12.5874013671875,-0.23598194122314453,0.4875911474227905,-0.02513520047068596
1683132156092241200,12.6052412109375,0.22537708282470703,-0.4632259011268616,0.037026386708021164
1683132156110081500,12.62308154296875,-0.1651315689086914,0.48450565338134766,-0.0057075368240475655
1683132156127920600,12.640920654296876,0.21770191192626953,-0.33182692527770996,0.006323695182800293
1683132156145762000,12.658761962890624,-0.16359901428222656,0.14435970783233643,-0.043657053261995316
1683132156163595800,12.676595703125,0.220306396484375,-0.1499650478363037,-0.10846026986837387
1683132156181442300,12.6944423828125,-0.16701126098632812,0.011276721954345703,0.08808121085166931
1683132156199276800,12.71227685546875,0.1828632354736328,-0.033025145530700684,-0.21053478121757507
1683132156217120000,12.7301201171875,-0.1824045181274414,0.11589384078979492,0.277286171913147
1683132156234961200,12.747961181640624,0.10319995880126953,0.05272805690765381,-0.2694406807422638
1683132156252803600,12.765803466796875,-0.10760116577148438,0.01935553550720215,0.27757662534713745
1683132156270643700,12.783643798828125,-0.06705474853515625,0.1040034294128418,-0.23068535327911377
1683132156288478000,12.80147802734375,0.0021734237670898438,-0.265497088432312,0.1345423460006714
1683132156306322700,12.81932275390625,-0.21741485595703125,0.306878924369812,-0.09465073049068451
1683132156324164600,12.83716455078125,0.10407447814941406,-0.47314727306365967,0.06892149150371552
1683132156342004700,12.855004638671875,-0.23594379425048828,0.5630674362182617,0.02040225826203823
1683132156359844600,12.8728447265625,0.21278953552246094,-0.4634624719619751,0.017405454069375992
1683132156377685000,12.89068505859375,-0.1599569320678711,0.36906886100769043,-0.047824617475271225
1683132156395528200,12.908528076171875,0.2545814514160156,-0.1962672472000122,-0.044913146644830704
1683132156413365500,12.926365478515624,-0.14905738830566406,0.009035468101501465,-0.014349314384162426
1683132156431206100,12.9442060546875,0.2445058822631836,-0.05908918380737305,-0.1579807698726654
1683132156449040000,12.962039794921875,-0.12699413299560547,0.034806251525878906,0.18200665712356567
1683132156466886100,12.97988623046875,0.13197040557861328,-0.01208651065826416,-0.24341967701911926
1683132156484726500,12.9977265625,-0.13492584228515625,0.13112664222717285,0.3175863027572632
1683132156502566700,13.015566650390625,0.010883331298828125,0.06827068328857422,-0.307447224855423
1683132156520402700,13.033402587890626,-0.0876922607421875,-0.10392892360687256,0.2191983461380005
1683132156538243300,13.051243408203124,-0.1863422393798828,0.13873159885406494,-0.1839834749698639
1683132156556086300,13.069086181640625,0.04810905456542969,-0.37850260734558105,0.10738826543092728
1683132156573928000,13.086927978515625,-0.2552165985107422,0.4386775493621826,-0.03912898898124695
1683132156591768000,13.10476806640625,0.1551656723022461,-0.5075666308403015,0.037937287241220474
1683132156609608000,13.12260791015625,-0.1681356430053711,0.5290788412094116,-0.01073544193059206
1683132156627448300,13.1404482421875,0.29010868072509766,-0.3601030111312866,0.004801963455975056
1683132156645288200,13.1582880859375,-0.14735984802246094,0.1984241008758545,-0.04700290784239769
1683132156663128800,13.17612890625,0.28589916229248047,-0.1213383674621582,-0.09169892966747284
1683132156680969200,13.19396923828125,-0.12752723693847656,-0.025797605514526367,0.040869392454624176
1683132156698808600,13.21180859375,0.18514633178710938,-0.05511116981506348,-0.22863103449344635
1683132156716650500,13.229650390625,-0.20669078826904297,0.07928740978240967,0.2572253942489624
1683132156734489600,13.247489501953124,0.11453914642333984,0.03830254077911377,-0.2645813226699829
1683132156752329700,13.265329833984374,-0.11235332489013672,0.07487189769744873,0.3119036555290222
1683132156770165500,13.28316552734375,-0.13086891174316406,0.08405518531799316,-0.24104739725589752
1683132156788010500,13.301010498046875,0.02524852752685547,-0.23450422286987305,0.14458559453487396
1683132156805850600,13.3188505859375,-0.22511005401611328,0.26586222648620605,-0.13554367423057556
1683132156823689200,13.336689208984374,0.07486438751220703,-0.47530901432037354,0.0707012265920639
1683132156841526500,13.354526611328126,-0.21149063110351562,0.5479475259780884,-0.004564350470900536
1683132156859371000,13.37237109375,0.17391681671142578,-0.48519665002822876,0.039649054408073425
1683132156877208600,13.39020849609375,-0.12952709197998047,0.3857760429382324,-0.027926411479711533
1683132156895052300,13.40805224609375,0.3099040985107422,-0.22274255752563477,-0.04048442840576172
1683132156912892200,13.42589208984375,-0.12427139282226562,0.04894757270812988,-0.002529948018491268
1683132156930732300,13.443732177734375,0.19439697265625,-0.055042386054992676,-0.14666864275932312
1683132156948572200,13.461572265625,-0.07007122039794922,0.004820108413696289,0.1670444905757904
1683132156966413800,13.479413818359374,0.1127777099609375,-0.05363178253173828,-0.24495281279087067
1683132156984255700,13.497255859375,-0.16249561309814453,0.10148119926452637,0.29246339201927185
1683132157002090800,13.5150908203125,-0.014346122741699219,0.07856881618499756,-0.2561938464641571
1683132157019933400,13.532933349609374,-0.06781864166259766,-0.04548537731170654,0.21211040019989014
1683132157037762800,13.5507626953125,-0.25174903869628906,0.12210345268249512,-0.18650051951408386
1683132157055614000,13.568614013671874,0.041172027587890625,-0.3677740693092346,0.10161134600639343
1683132157073454000,13.5864541015625,-0.22748661041259766,0.43182194232940674,-0.07693514972925186
1683132157091289900,13.604289794921876,0.10389995574951172,-0.5236245393753052,0.07606809586286545
1683132157109134300,13.62213427734375,-0.1662607192993164,0.5735523700714111,0.010161635465919971
1683132157126974500,13.639974365234375,0.26511478424072266,-0.3646667003631592,0.0228436216711998
1683132157144818000,13.65781787109375,-0.10914802551269531,0.25518667697906494,-0.038646288216114044
1683132157162652400,13.67565234375,0.29532527923583984,-0.07272517681121826,-0.10549870133399963
1683132157180495400,13.693495361328125,-0.07413196563720703,-0.03702962398529053,0.046443212777376175
1683132157198328300,13.711328369140626,0.17192363739013672,-0.04271554946899414,-0.23766228556632996
1683132157216174800,13.7291748046875,-0.13962745666503906,0.013526201248168945,0.24993836879730225
1683132157234017300,13.747017333984376,0.06630325317382812,-0.01314091682434082,-0.25267428159713745
1683132157251856000,13.76485595703125,-0.1108560562133789,0.09355390071868896,0.2983339726924896
1683132157269696300,13.7826962890625,-0.1674022674560547,0.1081397533416748,-0.21952177584171295
1683132157287537700,13.80053759765625,-0.005611419677734375,-0.21878230571746826,0.15922677516937256
1683132157305376800,13.818376708984376,-0.2269763946533203,0.26896727085113525,-0.1564198136329651
1683132157323217000,13.836216796875,0.12212562561035156,-0.48063576221466064,0.08949674665927887
1683132157341057300,13.854057373046874,-0.24115657806396484,0.507459282875061,-0.028045065701007843
1683132157358898700,13.871898681640625,0.21045207977294922,-0.47490382194519043,0.07613305002450943
1683132157376737500,13.889737548828125,-0.13360023498535156,0.4513436555862427,0.0028179222717881203
1683132157394578000,13.907577880859375,0.2855186462402344,-0.17860722541809082,-0.032537683844566345
1683132157412418300,13.925418212890625,-0.09917354583740234,0.06650710105895996,0.030882949009537697
1683132157430258400,13.943258544921875,0.22447490692138672,0.005518794059753418,-0.19442960619926453
1683132157448098300,13.961098388671875,-0.01839447021484375,-0.09741950035095215,0.1519204080104828
1683132157465937700,13.978937744140625,0.0998077392578125,-0.07030618190765381,-0.30192697048187256
1683132157483779000,13.996779052734375,-0.1436634063720703,0.01322019100189209,0.28684183955192566
1683132157501602300,14.014602294921875,-0.12314224243164062,0.06433296203613281,-0.22478210926055908
1683132157519459000,14.032458984375,-0.0274658203125,-0.06322288513183594,0.21033617854118347
1683132157537287000,14.050286865234375,-0.2373485565185547,0.1975855827331543,-0.20447814464569092
1683132157555139800,14.068139892578126,0.016465187072753906,-0.4264957904815674,0.08838844299316406
1683132157572980000,14.08597998046875,-0.20880889892578125,0.4371424913406372,-0.09276716411113739
1683132157590820600,14.103820556640626,0.13993167877197266,-0.5108307600021362,0.0716472938656807
1683132157608663000,14.1216630859375,-0.22691726684570312,0.5319762229919434,0.010242066346108913
1683132157626500600,14.13950048828125,0.2681760787963867,-0.28308796882629395,0.03007744997739792
1683132157644341800,14.157341796875,-0.0805349349975586,0.29714977741241455,0.06245078518986702
1683132157662180600,14.1751806640625,0.2624998092651367,0.013411402702331543,-0.11688561737537384
1683132157680021200,14.193021240234375,-0.07202816009521484,-0.07865774631500244,0.1057814285159111
1683132157697860900,14.21086083984375,0.1447439193725586,-0.0025758743286132812,-0.30695879459381104
1683132157715687400,14.2286875,0.015775680541992188,-0.08583760261535645,0.24215853214263916
1683132157733528000,14.246528076171876,-0.08282184600830078,-0.05179715156555176,-0.28436896204948425
1683132157751374300,14.264374267578125,-0.03370189666748047,-0.03512120246887207,0.24180883169174194
1683132157769212000,14.2822119140625,-0.1836414337158203,0.16011667251586914,-0.18813654780387878
1683132157787062500,14.3000625,0.01149749755859375,-0.21198368072509766,0.132710263133049
1683132157804903400,14.3179033203125,-0.28890228271484375,0.3017162084579468,-0.11118844896554947
1683132157822734000,14.335734130859375,0.10928630828857422,-0.5151257514953613,0.07080826908349991
1683132157840582700,14.353582763671875,-0.20049381256103516,0.5154989957809448,-0.027514055371284485
1683132157858417400,14.37141748046875,0.13540172576904297,-0.4803996682167053,0.060216501355171204
1683132157876260600,14.389260498046875,-0.12774181365966797,0.4451940059661865,0.060955535620450974
1683132157894103600,14.407103515625,0.2724752426147461,-0.07246267795562744,-0.05889502912759781
1683132157911944000,14.42494384765625,-0.0889577865600586,0.03488194942474365,0.10100434720516205
1683132157929783800,14.44278369140625,0.26810741424560547,0.13928866386413574,-0.239626944065094
1683132157947624200,14.460624267578124,-0.03294086456298828,-0.18245720863342285,0.18819627165794373
1683132157965464300,14.47846435546875,0.07805156707763672,-0.01469576358795166,-0.3275279700756073
1683132157983304700,14.4963046875,-0.009909629821777344,-0.06717371940612793,0.2940000295639038
1683132158001144800,14.514144775390625,-0.18506813049316406,0.019535541534423828,-0.18691734969615936
1683132158018985000,14.53198486328125,0.04981040954589844,-0.11530435085296631,0.1721961945295334
1683132158036825000,14.5498251953125,-0.20579242706298828,0.34479820728302,-0.11348820477724075
1683132158054665200,14.567665283203125,0.07215499877929688,-0.44351667165756226,0.04484733194112778
1683132158072505600,14.585505615234375,-0.19009876251220703,0.3989067077636719,-0.1016324833035469
1683132158090346000,14.603345947265625,0.19144248962402344,-0.5103872418403625,0.018162202090024948
1683132158108182300,14.621182373046874,-0.2552814483642578,0.4646756649017334,0.06683553010225296
1683132158126026500,14.639026611328125,0.16710758209228516,-0.1742401123046875,-0.022835159674286842
1683132158143866600,14.65686669921875,-0.1288013458251953,0.1888427734375,0.1723591536283493
1683132158161706500,14.67470654296875,0.2792673110961914,0.12154364585876465,-0.21396329998970032
1683132158179539200,14.692539306640626,-0.024888038635253906,-0.11030066013336182,0.188703253865242
1683132158197387000,14.710386962890626,0.08614158630371094,0.054587483406066895,-0.32938235998153687
1683132158215226400,14.728226318359376,0.029183387756347656,-0.1396770477294922,0.23164576292037964
1683132158233064400,14.746064453125,-0.11852550506591797,0.02116072177886963,-0.22934524714946747
1683132158250904600,14.763904541015625,0.045004844665527344,-0.2288593053817749,0.15761755406856537
1683132158268747500,14.78174755859375,-0.18544483184814453,0.3333704471588135,-0.09539604932069778
1683132158286585000,14.799585205078126,0.03997516632080078,-0.36857473850250244,0.10168538987636566
1683132158304428300,14.81742822265625,-0.21312427520751953,0.3265291452407837,-0.09101502597332001
1683132158322268000,14.835267822265624,0.13416004180908203,-0.44593822956085205,0.04620632901787758
1683132158340108500,14.853108642578125,-0.26751136779785156,0.2655792236328125,0.014023128896951675
1683132158357948700,14.87094873046875,0.15377330780029297,-0.25952982902526855,-0.039832133799791336
1683132158375790000,14.8887900390625,-0.22696304321289062,0.294120192527771,0.17824815213680267
1683132158393629200,14.906629150390625,0.3187894821166992,0.048046112060546875,-0.18743570148944855
1683132158411469300,14.92446923828125,-0.06241035461425781,0.03703486919403076,0.2620086669921875
1683132158429309000,14.942308837890625,0.1542959213256836,0.10710430145263672,-0.3232438266277313
1683132158447150300,14.960150390625,0.015145301818847656,-0.19495224952697754,0.18871359527111053
1683132158464990700,14.97799072265625,-0.12327098846435547,0.09947335720062256,-0.2423534393310547
1683132158482829600,14.99582958984375,0.008504867553710938,-0.22940731048583984,0.16768118739128113
1683132158500665300,15.013665283203125,-0.21476364135742188,0.3409278392791748,-0.07720243185758591
1683132158518498600,15.03149853515625,0.012892723083496094,-0.36806023120880127,0.09132308512926102
1683132158536350200,15.04935009765625,-0.14187240600585938,0.4126453399658203,-0.07569334656000137
1683132158554190600,15.067190673828126,0.1871318817138672,-0.44550013542175293,0.02377398870885372
1683132158572030700,15.08503076171875,-0.2633953094482422,0.23323297500610352,-0.08225353062152863
1683132158589865500,15.102865478515625,0.2294759750366211,-0.2591170072555542,-0.012532657012343407
1683132158607711200,15.120711181640624,-0.24052047729492188,0.24408769607543945,0.0881989523768425
1683132158625551400,15.13855126953125,0.2100543975830078,-0.06941401958465576,-0.1405194103717804
1683132158643391500,15.1563916015625,-0.1766519546508789,0.13534879684448242,0.23956628143787384
1683132158661235000,15.17423486328125,0.24602794647216797,0.07976508140563965,-0.2539145052433014
1683132158679069200,15.192069091796874,0.00091552734375,-0.06640911102294922,0.23514989018440247
1683132158696915000,15.2099150390625,-0.032128334045410156,0.06921732425689697,-0.28720277547836304
1683132158714751000,15.2277509765625,0.0030193328857421875,-0.22155535221099854,0.16443222761154175
1683132158732589300,15.24558935546875,-0.1641693115234375,0.20985984802246094,-0.15043510496616364
1683132158750431000,15.263430908203125,0.018067359924316406,-0.3343603014945984,0.1181403249502182
1683132158768270300,15.281270263671875,-0.2310628890991211,0.4490199089050293,-0.030186675488948822
1683132158786111200,15.299111328125,0.1294574737548828,-0.3683863878250122,0.05651260167360306
1683132158803953200,15.316953125,-0.18754863739013672,0.382091760635376,-0.06647706031799316
1683132158821788700,15.33478857421875,0.24490737915039062,-0.3430890440940857,0.004158084746450186
1683132158839633200,15.352633056640625,-0.1889514923095703,0.1657172441482544,-0.03165606036782265
1683132158857473500,15.3704736328125,0.2070770263671875,-0.17319977283477783,-0.1065959706902504
1683132158875313700,15.388313720703126,-0.1994485855102539,0.1538078784942627,0.15626977384090424
1683132158893155800,15.40615576171875,0.20678329467773438,0.021741271018981934,-0.19314740598201752
1683132158910994200,15.423994140625,-0.112060546875,0.08070588111877441,0.30082225799560547
1683132158928834000,15.441833984375,0.03935527801513672,0.08806335926055908,-0.2821500599384308
1683132158946673400,15.45967333984375,0.005394935607910156,-0.13121986389160156,0.2013600766658783
1683132158964514600,15.4775146484375,-0.12014961242675781,0.12111282348632812,-0.2266351580619812
1683132158982354700,15.495354736328125,0.020137786865234375,-0.2708951234817505,0.13165612518787384
1683132159000192000,15.51319189453125,-0.20842361450195312,0.33457350730895996,-0.06562300026416779
1683132159018036200,15.5310361328125,0.0937814712524414,-0.4293249845504761,0.07260200381278992
1683132159035875300,15.548875244140625,-0.1924419403076172,0.4764835834503174,-0.02632169984281063
1683132159053715500,15.566715576171875,0.2258749008178711,-0.3889174461364746,0.03886917605996132
1683132159071555300,15.584555419921875,-0.16263103485107422,0.22503304481506348,-0.07774423062801361
1683132159089396000,15.60239599609375,0.16189002990722656,-0.2215806245803833,-0.033280521631240845
1683132159107235800,15.62023583984375,-0.1683969497680664,0.11726081371307373,0.06136437878012657
1683132159125078000,15.638078125,0.20104312896728516,-0.11546146869659424,-0.16014772653579712
1683132159142904600,15.655904541015625,-0.23543548583984375,0.16496896743774414,0.22826465964317322
1683132159160756500,15.673756591796876,0.20944976806640625,0.062215328216552734,-0.24014928936958313
1683132159178596400,15.691596435546876,-0.041207313537597656,0.019441962242126465,0.2832310199737549
1683132159196433400,15.709433349609375,-0.09882259368896484,0.10629832744598389,-0.2736591100692749
1683132159214276900,15.72727685546875,0.02546977996826172,-0.2020324468612671,0.1563488245010376
1683132159232103400,15.745103515625,-0.16219520568847656,0.20264756679534912,-0.1806420385837555
1683132159249957000,15.76295703125,0.020577430725097656,-0.3800203800201416,0.09540507197380066
1683132159267794400,15.78079443359375,-0.26871204376220703,0.44525861740112305,-0.026704706251621246
1683132159285637600,15.7986376953125,0.1785717010498047,-0.44633907079696655,0.049598485231399536
1683132159303482000,15.816482177734375,-0.13182353973388672,0.4215911626815796,-0.05348287895321846
1683132159321318000,15.83431787109375,0.2281169891357422,-0.3425648808479309,-0.002250642515718937
1683132159339157200,15.8521572265625,-0.19568157196044922,0.13025295734405518,-0.05501241981983185
1683132159356998100,15.869998046875,0.22426891326904297,-0.18906807899475098,-0.0904601588845253
1683132159374838000,15.887838134765625,-0.18213558197021484,0.11215925216674805,0.11385748535394669
1683132159392678400,15.905678466796875,0.17406749725341797,-0.07319271564483643,-0.18695290386676788
1683132159410515700,15.923515625,-0.16664409637451172,0.1052776575088501,0.28533536195755005
1683132159428359200,15.941359130859375,0.12690067291259766,0.06769120693206787,-0.2815827429294586
1683132159446196200,15.9591962890625,-0.10124397277832031,-0.07242321968078613,0.241502046585083
1683132159464039700,15.977039794921875,-0.09449195861816406,0.07258379459381104,-0.22183632850646973
1683132159481879300,15.99487939453125,0.0282745361328125,-0.23908376693725586,0.13825048506259918
1683132159499708000,16.0127080078125,-0.2058124542236328,0.2710310220718384,-0.09198158979415894
1683132159517558500,16.03055859375,0.12909317016601562,-0.4299694299697876,0.07947223633527756
1683132159535400000,16.04839990234375,-0.20062637329101562,0.5317492485046387,-0.008011223748326302
1683132159553239800,16.06623974609375,0.24930953979492188,-0.41437119245529175,0.029917322099208832
1683132159571080200,16.084080078125,-0.1325225830078125,0.31546449661254883,-0.0675370991230011
1683132159588914700,16.101914794921875,0.23331832885742188,-0.2344682216644287,-0.03749373182654381
1683132159606760200,16.11976025390625,-0.12299251556396484,0.07643568515777588,0.0011096796952188015
1683132159624600800,16.137600830078124,0.21032238006591797,-0.11251294612884521,-0.14587420225143433
1683132159642440700,16.155440673828124,-0.24598312377929688,0.11296999454498291,0.19695091247558594
1683132159660280800,16.17328076171875,0.15131378173828125,0.04201817512512207,-0.24254709482192993
1683132159678121000,16.191120849609376,-0.10871505737304688,0.09506404399871826,0.3207460939884186
1683132159695960600,16.208960693359376,-0.050574302673339844,0.07195758819580078,-0.27931761741638184
1683132159713801200,16.22680126953125,-0.07456588745117188,-0.12365853786468506,0.20556020736694336
1683132159731627000,16.244626953125,-0.16991519927978516,0.1509113311767578,-0.1817343682050705
1683132159749472300,16.26247216796875,0.09279632568359375,-0.33074235916137695,0.08955610543489456
1683132159767310300,16.280310302734375,-0.2193927764892578,0.43353092670440674,-0.03737860172986984
1683132159785162800,16.298162841796874,0.17798137664794922,-0.47515761852264404,0.049354784190654755
1683132159803002000,16.316002197265625,-0.08404827117919922,0.5081839561462402,0.005300281103700399
1683132159820845300,16.33384521484375,0.26032161712646484,-0.36131876707077026,0.024909112602472305
1683132159838676700,16.3516767578125,-0.13325023651123047,0.17830395698547363,-0.05089963972568512
1683132159856526800,16.36952685546875,0.2422494888305664,-0.11858940124511719,-0.08319747447967529
1683132159874361300,16.387361328125,-0.1285409927368164,0.0022836923599243164,0.08541978895664215
1683132159892202800,16.40520263671875,0.18533039093017578,-0.04786717891693115,-0.20531725883483887
1683132159910035200,16.42303515625,-0.22114181518554688,0.09996628761291504,0.2706618309020996
1683132159927883000,16.440883056640626,0.036553382873535156,0.057590603828430176,-0.2988292872905731
1683132159945723100,16.45872314453125,-0.057005882263183594,0.034149169921875,0.27390095591545105
1683132159963563500,16.4765634765625,-0.1559743881225586,0.08584475517272949,-0.22685976326465607
1683132159981403600,16.494403564453126,0.012391090393066406,-0.24953949451446533,0.13767604529857635
1683132159999232500,16.512232421875,-0.2497882843017578,0.30422377586364746,-0.12108569592237473
1683132160017084000,16.530083984375,0.1616230010986328,-0.492489218711853,0.07948046177625656
1683132160034924800,16.5479248046875,-0.18764781951904297,0.5377532243728638,0.009593803435564041
1683132160052764200,16.56576416015625,0.21997642517089844,-0.47543758153915405,0.030577104538679123
1683132160070604300,16.583604248046875,-0.08506011962890625,0.37916409969329834,-0.018467020243406296
1683132160088444200,16.601444091796875,0.28038692474365234,-0.19034385681152344,-0.03696909174323082
1683132160106285600,16.61928564453125,-0.15966796875,0.031142354011535645,0.004675573669373989
1683132160124124400,16.63712451171875,0.22828292846679688,-0.06803548336029053,-0.17340391874313354
1683132160141964500,16.654964599609375,-0.09485340118408203,0.019309282302856445,0.19468432664871216
1683132160159799000,16.672799072265626,0.0976419448852539,-0.024608850479125977,-0.24707245826721191
1683132160177645000,16.69064501953125,-0.13846492767333984,0.1122821569442749,0.31672900915145874
1683132160195486000,16.70848583984375,-0.047149658203125,0.07943069934844971,-0.2820506691932678
1683132160213313500,16.7263134765625,-0.07686328887939453,-0.08823108673095703,0.19361062347888947
1683132160231160800,16.744160888671875,-0.2065906524658203,0.16035103797912598,-0.1719726324081421
1683132160249000000,16.762,0.06172657012939453,-0.4030308127403259,0.10307254642248154
1683132160266845700,16.779845703125,-0.22129440307617188,0.44898056983947754,-0.05541164427995682
1683132160284689700,16.797689697265625,0.17368125915527344,-0.5081843137741089,0.055828504264354706
1683132160302518800,16.815518798828126,-0.1394634246826172,0.5056010484695435,-0.0012843352742493153
1683132160320369200,16.833369140625,0.27836036682128906,-0.33499497175216675,0.015680309385061264
1683132160338202600,16.85120263671875,-0.06909656524658203,0.18207550048828125,-0.019544478505849838
1683132160356048000,16.8690478515625,0.23353290557861328,-0.07953214645385742,-0.09540977329015732
1683132160373886700,16.88688671875,-0.09531021118164062,-0.047289371490478516,0.08257585018873215
1683132160391729700,16.904729736328125,0.17282390594482422,-0.062012672424316406,-0.23125062882900238
1683132160409566700,16.922566650390625,-0.1699686050415039,0.05110955238342285,0.27139416337013245
1683132160427408100,16.940408203125,-0.01563739776611328,0.030097484588623047,-0.25722405314445496
1683132160445247000,16.9582470703125,-0.09462928771972656,0.04088306427001953,0.2777232527732849
1683132160463087000,16.976087158203125,-0.14740371704101562,0.123771071434021,-0.20632705092430115
1683132160480922600,16.993922607421876,0.03004932403564453,-0.2634366750717163,0.13890409469604492
1683132160498767400,17.011767333984373,-0.2913990020751953,0.2676119804382324,-0.1474534273147583
1683132160516607500,17.029607421875,0.11217594146728516,-0.4816242456436157,0.07860714942216873
1683132160534447600,17.047447509765625,-0.13393402099609375,0.5452204942703247,-0.018188048154115677
1683132160552283000,17.065282958984376,0.21164226531982422,-0.4673306941986084,0.061662741005420685
1683132160570128000,17.0831279296875,-0.08111000061035156,0.4081614017486572,0.008721347898244858
1683132160587968000,17.100968017578126,0.3149280548095703,-0.18139910697937012,-0.01432290393859148
1683132160605808000,17.11880810546875,-0.10779666900634766,0.05735504627227783,0.0033128540962934494
1683132160623648500,17.1366484375,0.19666767120361328,-0.012746095657348633,-0.16025225818157196
1683132160641488400,17.15448828125,-0.08155155181884766,-0.04188072681427002,0.16234418749809265
1683132160659328500,17.17232861328125,0.0879964828491211,-0.07611274719238281,-0.2862569987773895
1683132160677167400,17.19016748046875,-0.14393329620361328,0.07361412048339844,0.3124657869338989
1683132160695010000,17.208010009765626,-0.08277702331542969,0.07717931270599365,-0.23165710270404816
1683132160712841700,17.225841796875,-0.08140850067138672,-0.05555129051208496,0.22208671271800995
1683132160730689000,17.24368896484375,-0.2535514831542969,0.19879400730133057,-0.20756638050079346
1683132160748530200,17.2615302734375,0.10526371002197266,-0.41482019424438477,0.0834273025393486
1683132160766369000,17.279369140625,-0.2800168991088867,0.4184901714324951,-0.09210124611854553
1683132160784197600,17.29719775390625,0.14818572998046875,-0.5172679424285889,0.0830867812037468
1683132160802045000,17.315044921875,-0.148101806640625,0.5431598424911499,0.012262039817869663
1683132160819892000,17.33289208984375,0.23444747924804688,-0.3387800455093384,0.03940976411104202
1683132160837729800,17.350729736328127,-0.11856269836425781,0.25677430629730225,0.004951884504407644
1683132160855574000,17.368573974609376,0.2221546173095703,-0.03841531276702881,-0.0867191031575203
1683132160873410000,17.38641015625,-0.0633392333984375,-0.05589151382446289,0.08873970806598663
1683132160891250400,17.40425048828125,0.15222549438476562,-0.05210518836975098,-0.25468045473098755
1683132160909090000,17.422090087890624,-0.10445690155029297,-0.014088630676269531,0.251852422952652
1683132160926929200,17.43992919921875,-0.007203102111816406,-0.03546464443206787,-0.2577827572822571
1683132160944770600,17.4577705078125,-0.09581565856933594,0.011488914489746094,0.27118319272994995
1683132160962610400,17.4756103515625,-0.1722116470336914,0.1838686466217041,-0.19175678491592407
1683132160980450600,17.493450439453124,0.01692485809326172,-0.24367451667785645,0.1327580213546753
1683132160998289200,17.5112890625,-0.2627134323120117,0.31533563137054443,-0.1608276516199112
1683132161016130600,17.529130615234376,0.1298666000366211,-0.5009180903434753,0.07922550290822983
1683132161033973800,17.546973876953125,-0.2301502227783203,0.495947003364563,-0.05158628150820732
1683132161051811000,17.56481103515625,0.1954669952392578,-0.45509421825408936,0.07282114773988724
1683132161069651000,17.58265087890625,-0.1282968521118164,0.4517918825149536,0.04884904623031616
1683132161087491000,17.600490966796876,0.2728137969970703,-0.10808455944061279,-0.034562624990940094
1683132161105331700,17.618331787109376,-0.053910255432128906,0.09771215915679932,0.05804799497127533
1683132161123171600,17.636171630859376,0.19971656799316406,0.05141115188598633,-0.21762365102767944
1683132161141011700,17.65401171875,-0.008080482482910156,-0.14686429500579834,0.1767672598361969
1683132161158851800,17.671851806640625,0.015183448791503906,-0.05934178829193115,-0.3130810260772705
1683132161176692000,17.68969189453125,-0.07099628448486328,-0.05726659297943115,0.2717345356941223
1683132161194532400,17.707532470703125,-0.1325397491455078,0.04880666732788086,-0.2165178507566452
1683132161212372000,17.7253720703125,0.0034646987915039062,-0.08466923236846924,0.17876313626766205
1683132161230212000,17.743212158203125,-0.2525196075439453,0.23789870738983154,-0.14629428088665009
1683132161248044500,17.76104443359375,0.03133964538574219,-0.43854886293411255,0.06461604684591293
1683132161265892600,17.778892578125,-0.183441162109375,0.41788291931152344,-0.08654651790857315
1683132161283729700,17.796729736328125,0.14387130737304688,-0.5395193099975586,0.0735260471701622
1683132161301572600,17.814572509765625,-0.14334487915039062,0.547015905380249,0.04100358113646507
1683132161319411500,17.832411376953125,0.2165822982788086,-0.28047478199005127,0.016757745295763016
1683132161337252900,17.8502529296875,-0.11992549896240234,0.2410421371459961,0.07896460592746735
1683132161355096300,17.868096435546875,0.30634117126464844,0.09289288520812988,-0.15799234807491302
1683132161372933000,17.88593310546875,-0.04859447479248047,-0.12020158767700195,0.12473192811012268
1683132161390773500,17.9037734375,0.10378646850585938,0.058074116706848145,-0.30830833315849304
1683132161408613400,17.92161328125,0.023406028747558594,-0.1320645809173584,0.2549889087677002
1683132161426453500,17.93945361328125,-0.07262134552001953,-0.03041207790374756,-0.26827695965766907
1683132161444293600,17.957293701171874,-0.02013397216796875,-0.07489705085754395,0.20435060560703278
1683132161462133800,17.9751337890625,-0.22382450103759766,0.2054884433746338,-0.15051035583019257
1683132161479973600,17.9929736328125,0.09357643127441406,-0.2831258773803711,0.07542380690574646
1683132161497816800,18.01081689453125,-0.16022396087646484,0.3759725093841553,-0.12237497419118881
1683132161515655200,18.0286552734375,0.08363151550292969,-0.558976948261261,0.03801098093390465
1683132161533494000,18.046493896484375,-0.26038169860839844,0.46958625316619873,-0.040880486369132996
1683132161551334400,18.06433447265625,0.16056537628173828,-0.38029932975769043,0.00785699114203453
1683132161569168100,18.082168212890625,-0.2608976364135742,0.3589057922363281,0.11504634469747543
1683132161587014400,18.100014404296875,0.24658870697021484,0.002629876136779785,-0.10863762348890305
1683132161604855300,18.117855224609375,-0.056618690490722656,0.030095458030700684,0.20322605967521667
1683132161622694700,18.135694580078123,0.24506282806396484,0.12825345993041992,-0.2831340730190277
1683132161640530000,18.153530029296874,0.019655227661132812,-0.1857776641845703,0.20166979730129242
1683132161658363100,18.171363037109376,-0.012158393859863281,0.03210568428039551,-0.3032675087451935
1683132161676214800,18.18921484375,0.037346839904785156,-0.20504188537597656,0.1986202746629715
1683132161694055200,18.20705517578125,-0.17294025421142578,0.15478527545928955,-0.13872021436691284
1683132161711894800,18.224894775390624,0.028939247131347656,-0.3056146502494812,0.11483117192983627
1683132161729722400,18.242722412109377,-0.14653968811035156,0.3795367479324341,-0.08450480550527573
1683132161747560700,18.260560791015624,0.07081031799316406,-0.4628560543060303,0.05438675731420517
1683132161765404200,18.278404052734373,-0.2723665237426758,0.2905844449996948,-0.0712650716304779
1683132161783242800,18.29624267578125,0.17937183380126953,-0.37545621395111084,0.00047039613127708435
1683132161801098200,18.31409814453125,-0.24820709228515625,0.32484257221221924,0.0968628078699112
1683132161818923800,18.331923828125,0.24663925170898438,-0.06738531589508057,-0.08140170574188232
1683132161836777000,18.34977685546875,-0.1566314697265625,0.15779519081115723,0.22462598979473114
1683132161854615800,18.36761572265625,0.25456905364990234,0.08833098411560059,-0.26495903730392456
1683132161872456200,18.385456298828124,0.013730049133300781,-0.08166682720184326,0.2215660810470581
1683132161890291700,18.403291748046875,-0.03124237060546875,0.06975781917572021,-0.3163911700248718
1683132161908137000,18.421136962890625,0.04153156280517578,-0.22228598594665527,0.15627934038639069
1683132161925977900,18.438977783203125,-0.18445110321044922,0.18410861492156982,-0.1869410276412964
1683132161943813600,18.456813720703124,0.04749011993408203,-0.3420233726501465,0.1040058359503746
1683132161961651700,18.474651611328124,-0.2236499786376953,0.3986523151397705,-0.035067252814769745
1683132161979493600,18.49249365234375,0.1144857406616211,-0.3912603259086609,0.04867541417479515
1683132161997336600,18.510336669921877,-0.13747882843017578,0.3248037099838257,-0.08816052228212357
1683132162015174100,18.528174072265625,0.17440032958984375,-0.4058837294578552,0.011357950046658516
1683132162033014500,18.5460146484375,-0.3069162368774414,0.19621169567108154,-0.002880426123738289
1683132162050857000,18.56385693359375,0.25026893615722656,-0.1927480697631836,-0.08882661163806915
1683132162068696600,18.581696533203125,-0.21271991729736328,0.20046091079711914,0.18293187022209167
1683132162086537000,18.599536865234374,0.23282241821289062,0.047682881355285645,-0.1610976755619049
1683132162104376000,18.6173759765625,-0.0670461654663086,0.059380412101745605,0.27956143021583557
1683132162122217200,18.63521728515625,0.1127767562866211,0.07819998264312744,-0.28969600796699524
1683132162140057300,18.653057373046874,-0.0029573440551757812,-0.16155076026916504,0.18708938360214233
1683132162157898800,18.670898681640626,-0.07119083404541016,0.12360155582427979,-0.21744923293590546
1683132162175737900,18.68873779296875,0.01607513427734375,-0.3019675016403198,0.12347815930843353
1683132162193577700,18.70657763671875,-0.24863719940185547,0.3293102979660034,-0.06942781805992126
1683132162211413000,18.7244130859375,0.13544940948486328,-0.410475492477417,0.07688722014427185
1683132162229257500,18.742257568359374,-0.1685934066772461,0.4458271265029907,-0.027883853763341904
1683132162247097900,18.760097900390626,0.20674705505371094,-0.3915661573410034,0.03182341903448105
1683132162264938800,18.777938720703126,-0.18373870849609375,0.21380746364593506,-0.0867447629570961
1683132162282778400,18.7957783203125,0.21044635772705078,-0.21626293659210205,-0.054517921060323715
1683132162300618200,18.8136181640625,-0.1578664779663086,0.07660400867462158,0.05813734605908394
1683132162318444000,18.831444091796875,0.1978740692138672,-0.1046832799911499,-0.1657288819551468
1683132162336297200,18.849297119140626,-0.2263498306274414,0.0897822380065918,0.23978431522846222
1683132162354138400,18.867138427734375,0.19919681549072266,0.07034969329833984,-0.2541106343269348
1683132162371978500,18.884978515625,-0.07990550994873047,-0.010825753211975098,0.2786199748516083
1683132162389818600,18.902818603515627,-0.062386512756347656,0.10022366046905518,-0.24252115190029144
1683132162407660000,18.920659912109375,0.006657600402832031,-0.2291048765182495,0.15790070593357086
1683132162425499000,18.938498779296875,-0.1572732925415039,0.2546248435974121,-0.09673978388309479
1683132162443338800,18.9563388671875,0.05654144287109375,-0.414950966835022,0.09976967424154282
1683132162461176600,18.974176513671875,-0.26826953887939453,0.5280513763427734,-0.007968162186443806
1683132162479017200,18.992017333984375,0.1969470977783203,-0.4752465486526489,0.02227366901934147
1683132162496859100,19.009859130859375,-0.14589405059814453,0.4076322317123413,-0.04940888285636902
1683132162514699300,19.02769921875,0.2597379684448242,-0.26036787033081055,-0.018289707601070404
1683132162532536600,19.04553662109375,-0.18663501739501953,0.08662521839141846,-0.030659304931759834
1683132162550379500,19.063379638671876,0.2670564651489258,-0.11598801612854004,-0.1303347647190094
1683132162568218600,19.081218505859376,-0.17960739135742188,0.09022915363311768,0.1597587615251541
1683132162586059000,19.09905908203125,0.10955333709716797,-0.009525656700134277,-0.20458711683750153
1683132162603899600,19.116899658203124,-0.10473251342773438,0.11571311950683594,0.2984279692173004
1683132162621739800,19.13473974609375,-0.0029239654541015625,0.0753171443939209,-0.2748836874961853
1683132162639580000,19.152579833984376,-0.06522846221923828,-0.06747424602508545,0.22240257263183594
1683132162657418800,19.170418701171876,-0.1110992431640625,0.12279653549194336,-0.19619472324848175
1683132162675260200,19.18826025390625,0.015017509460449219,-0.32410240173339844,0.1130848228931427
1683132162693099800,19.206099853515624,-0.22800922393798828,0.35202181339263916,-0.06382154673337936
1683132162710940200,19.223940185546876,0.15511035919189453,-0.4731305241584778,0.0669073760509491
1683132162728781000,19.241781005859377,-0.24686717987060547,0.5219451189041138,0.010978215374052525
1683132162746620000,19.259619873046876,0.2681741714477539,-0.4019206166267395,0.02135675959289074
1683132162764460000,19.2774599609375,-0.10707950592041016,0.24506866931915283,-0.07103048264980316
1683132162782300200,19.295300048828125,0.20746326446533203,-0.17096519470214844,-0.052405234426259995
1683132162800140000,19.31314013671875,-0.1409311294555664,0.0134660005569458,0.027559002861380577
1683132162817980400,19.33098046875,0.2077960968017578,-0.1074599027633667,-0.1830141544342041
1683132162835809000,19.34880908203125,-0.21052932739257812,0.09168577194213867,0.21379566192626953
1683132162853660700,19.36666064453125,0.09911441802978516,0.029340744018554688,-0.24948668479919434
1683132162871500800,19.384500732421873,-0.08764171600341797,0.0990227460861206,0.3132479786872864
1683132162889341200,19.402341064453125,-0.046721458435058594,0.08203494548797607,-0.2525465786457062
1683132162907180800,19.420180908203125,-0.03728199005126953,-0.18295466899871826,0.17670735716819763
1683132162925022200,19.438022216796874,-0.2317190170288086,0.20371639728546143,-0.1516641229391098
1683132162942860800,19.45586083984375,0.10704326629638672,-0.4058789014816284,0.08265397697687149
1683132162960702500,19.473702392578126,-0.2726583480834961,0.5040991306304932,-0.022763533517718315
1683132162978528500,19.491528564453127,0.17981815338134766,-0.5321985483169556,0.04130665957927704
1683132162996378400,19.50937841796875,-0.10419845581054688,0.505156397819519,-0.010918784886598587
1683132163014221600,19.5272216796875,0.2807197570800781,-0.30843907594680786,-0.015593526884913445
1683132163032060400,19.545060302734374,-0.16990947723388672,0.12066948413848877,-0.03905278071761131
1683132163049901300,19.5629013671875,0.2594184875488281,-0.10431480407714844,-0.1201789379119873
1683132163067743700,19.58074365234375,-0.11818408966064453,-0.03289151191711426,0.10508757829666138
1683132163085581800,19.598581787109374,0.14412975311279297,-0.058579206466674805,-0.24039289355278015
1683132163103422000,19.616421875,-0.17543983459472656,0.08943498134613037,0.2781890332698822
1683132163121261600,19.634261474609374,0.005957603454589844,0.05143296718597412,-0.2733035385608673
1683132163139101700,19.652101806640626,-0.11217880249023438,-0.001650691032409668,0.24032026529312134
1683132163156941800,19.66994189453125,-0.1377696990966797,0.09633326530456543,-0.21117088198661804
1683132163174782200,19.6877822265625,0.023626327514648438,-0.3227871060371399,0.122127003967762
1683132163192622300,19.705622314453127,-0.2649393081665039,0.34404492378234863,-0.09171654284000397
1683132163210462200,19.723462158203127,0.13040637969970703,-0.5077549815177917,0.0677206963300705
1683132163228298200,19.74129833984375,-0.17563343048095703,0.5653063058853149,0.003742045722901821
1683132163246142000,19.759141845703127,0.22769546508789062,-0.422695517539978,0.03267699107527733
1683132163263970600,19.776970458984376,-0.10403156280517578,0.3375890254974365,-0.023817844688892365
1683132163281822200,19.794822265625,0.29760169982910156,-0.13177108764648438,-0.046551357954740524
1683132163299656700,19.81265673828125,-0.09370708465576172,0.009385108947753906,0.02018396183848381
1683132163317502200,19.830502197265623,0.23790454864501953,-0.0719069242477417,-0.18944776058197021
1683132163335338800,19.8483388671875,-0.1666736602783203,0.01599133014678955,0.21420252323150635
1683132163353183000,19.866182861328124,0.09061431884765625,-0.02687811851501465,-0.2458360195159912
1683132163371022600,19.884022705078124,-0.13452529907226562,0.10357093811035156,0.30701249837875366
1683132163388851700,19.901851806640625,-0.12570953369140625,0.08399689197540283,-0.23181632161140442
1683132163406702800,19.919702880859376,-0.024553298950195312,-0.15605759620666504,0.17098276317119598
1683132163424543000,19.93754296875,-0.2184438705444336,0.20094549655914307,-0.17565065622329712
1683132163442386000,19.955385986328125,0.043529510498046875,-0.4462661147117615,0.09152884781360626
1683132163460220200,19.97322021484375,-0.21740055084228516,0.46851813793182373,-0.05804897099733353
1683132163478063400,19.9910634765625,0.1806182861328125,-0.4893109202384949,0.06270807236433029
1683132163495901000,20.00890087890625,-0.12511444091796875,0.46802592277526855,-0.0020350301638245583
1683132163513743400,20.026743408203124,0.27101612091064453,-0.29802966117858887,0.012593680061399937
1683132163531581400,20.04458154296875,-0.10391712188720703,0.15398120880126953,-0.04589822143316269
1683132163549423400,20.06242333984375,0.28003787994384766,-0.07416343688964844,-0.1278214305639267
1683132163567264500,20.080264404296877,-0.11472511291503906,-0.08561944961547852,0.10546621680259705
1683132163585104000,20.098103759765625,0.11523914337158203,-0.0652543306350708,-0.26505863666534424
1683132163602943500,20.115943603515625,-0.15313720703125,0.055428504943847656,0.2678212523460388
1683132163620779000,20.133779052734376,-0.08953571319580078,0.017626166343688965,-0.2277793139219284
1683132163638614000,20.151614013671875,-0.07479572296142578,0.004706859588623047,0.2400818020105362
1683132163656464000,20.1694638671875,-0.1792449951171875,0.1595468521118164,-0.21473173797130585
1683132163674304000,20.187303955078125,-0.006226539611816406,-0.31543290615081787,0.11511766910552979
1683132163692143900,20.205143798828125,-0.2725238800048828,0.3087958097457886,-0.1446816325187683
1683132163709984000,20.22298388671875,0.15503692626953125,-0.47705358266830444,0.07144667208194733
1683132163727824100,20.24082421875,-0.18840885162353516,0.5281339883804321,-0.013351887464523315
1683132163745664000,20.2586640625,0.2158517837524414,-0.40814489126205444,0.07981409132480621
1683132163763489800,20.27648974609375,-0.05618000030517578,0.36687779426574707,0.01857926696538925
1683132163781333000,20.2943330078125,0.28250598907470703,-0.15506470203399658,-0.05822817236185074
1683132163799173000,20.312173095703123,-0.0952911376953125,0.027276039123535156,0.048127636313438416
1683132163817025300,20.330025390625,0.15977096557617188,-0.03856635093688965,-0.2388080507516861
1683132163834865400,20.347865478515626,-0.034423828125,-0.06968033313751221,0.2267359048128128
1683132163852704500,20.36570458984375,0.016887664794921875,-0.08566641807556152,-0.2952630817890167
1683132163870545000,20.383544921875,-0.09575748443603516,-0.008113503456115723,0.2751723527908325
1683132163888374000,20.4013740234375,-0.15666866302490234,0.12032544612884521,-0.19047224521636963
1683132163906224600,20.419224609375,-0.0219268798828125,-0.132696270942688,0.17698250710964203
1683132163924065000,20.43706494140625,-0.2392263412475586,0.2255232334136963,-0.18404552340507507
1683132163941900500,20.454900634765625,0.05637168884277344,-0.4673308730125427,0.0860392153263092
1683132163959747000,20.4727470703125,-0.24499034881591797,0.43445825576782227,-0.08538810163736343
1683132163977578800,20.490578857421873,0.1549072265625,-0.5481442809104919,0.08350222557783127
1683132163995428000,20.508427978515623,-0.15199947357177734,0.5328590869903564,0.026391372084617615
1683132164013265200,20.52626513671875,0.23388290405273438,-0.24540388584136963,-0.00513570848852396
1683132164031105000,20.54410498046875,-0.07659053802490234,0.2098066806793213,0.05026362091302872
1683132164048942300,20.5619423828125,0.24973678588867188,0.04402816295623779,-0.1819247454404831
1683132164066784300,20.5797841796875,-0.0578460693359375,-0.13576018810272217,0.13803954422473907
1683132164084625400,20.59762548828125,0.08413314819335938,-0.05963313579559326,-0.3199693262577057
1683132164102465500,20.615465576171875,-0.03192138671875,-0.09612119197845459,0.278263658285141
1683132164120305700,20.6333056640625,-0.13176631927490234,-0.010962128639221191,-0.24437586963176727
1683132164138150400,20.651150390625,-0.02164936065673828,-0.08174026012420654,0.22078537940979004
1683132164155984600,20.668984619140623,-0.17174530029296875,0.2207028865814209,-0.14088521897792816
1683132164173825800,20.68682568359375,0.04078483581542969,-0.32517409324645996,0.09785431623458862
1683132164191666000,20.704666015625,-0.28229713439941406,0.3359334468841553,-0.11485657840967178
1683132164209505500,20.722505615234375,0.13968849182128906,-0.5011790990829468,0.064640574157238
1683132164227346000,20.740345947265624,-0.18307876586914062,0.5223115682601929,-0.007042030803859234
1683132164245188600,20.758188720703124,0.14723491668701172,-0.4126322865486145,0.039091892540454865
1683132164263026000,20.77602587890625,-0.14705848693847656,0.3757585287094116,0.07843631505966187
1683132164280865800,20.79386572265625,0.2982978820800781,-0.020072102546691895,-0.10729476064443588
1683132164298706000,20.811705810546876,-0.09591007232666016,-0.048519253730773926,0.11205030232667923
1683132164316544800,20.829544677734376,0.14084625244140625,0.13690412044525146,-0.29300376772880554
1683132164334386200,20.84738623046875,-0.010077476501464844,-0.1612989902496338,0.21637362241744995
1683132164352226000,20.86522607421875,-0.010501861572265625,-0.052330613136291504,-0.3044617474079132
1683132164370066400,20.88306640625,-0.05591869354248047,-0.08055543899536133,0.2553943693637848
1683132164387905300,20.9009052734375,-0.22629928588867188,0.11160993576049805,-0.15857592225074768
1683132164405746400,20.918746337890624,0.08388900756835938,-0.1871654987335205,0.12732568383216858
1683132164423586600,20.936586669921876,-0.2503242492675781,0.3476482629776001,-0.13050810992717743
1683132164441426400,20.954426513671876,0.1171112060546875,-0.5139204263687134,0.02353699505329132
1683132164459266300,20.972266357421876,-0.16809749603271484,0.39805519580841064,-0.07675357162952423
1683132164477106700,20.990106689453125,0.1839151382446289,-0.46234166622161865,0.013064790517091751
1683132164494944500,21.007944580078124,-0.2401142120361328,0.4420466423034668,0.06920884549617767
1683132164512784100,21.0257841796875,0.21108531951904297,-0.16674137115478516,-0.05998668819665909
1683132164530624000,21.0436240234375,-0.12353706359863281,0.14289486408233643,0.16900983452796936
1683132164548467000,21.061467041015625,0.28664493560791016,0.12169992923736572,-0.2396269142627716
1683132164566306800,21.079306884765625,0.010785102844238281,-0.15251028537750244,0.1881687045097351
1683132164584147200,21.097147216796873,0.0073871612548828125,0.04678630828857422,-0.31282880902290344
1683132164601987000,21.114987060546873,0.054200172424316406,-0.144364595413208,0.24435652792453766
1683132164619826700,21.13282666015625,-0.1379537582397461,0.05983757972717285,-0.19605615735054016
1683132164637666000,21.150666015625,0.021343231201171875,-0.22333943843841553,0.146285742521286
1683132164655504400,21.16850439453125,-0.1852283477783203,0.36781883239746094,-0.08135402202606201
1683132164673347300,21.186347412109374,0.06330204010009766,-0.3974398970603943,0.0689336508512497
1683132164691187500,21.2041875,-0.21164798736572266,0.32116401195526123,-0.08469555526971817
1683132164709021400,21.222021484375,0.13304996490478516,-0.4241981506347656,0.035226285457611084
1683132164726867500,21.239867431640626,-0.2760934829711914,0.30709517002105713,0.02723463624715805
1683132164744707600,21.25770751953125,0.1708669662475586,-0.2192540168762207,-0.04950922727584839
1683132164762547500,21.27554736328125,-0.20488357543945312,0.3069593906402588,0.19240263104438782
1683132164780387600,21.2933876953125,0.2607288360595703,0.027475953102111816,-0.1952647566795349
1683132164798224100,21.31122412109375,0.01554107666015625,0.025862693786621094,0.2382899969816208
1683132164816066600,21.329066650390626,0.07931900024414062,0.12074053287506104,-0.32285749912261963
1683132164833907700,21.34690771484375,0.014902114868164062,-0.24731802940368652,0.16208574175834656
1683132164851748600,21.36474853515625,-0.08742523193359375,0.11760842800140381,-0.2735986113548279
1683132164869587700,21.382587646484374,0.042140960693359375,-0.27641093730926514,0.14121013879776
1683132164887431200,21.40043115234375,-0.2940998077392578,0.26427483558654785,-0.088294118642807
1683132164905269200,21.418269287109375,0.11989593505859375,-0.32491934299468994,0.08608407527208328
1683132164923108000,21.436108154296875,-0.20001888275146484,0.3660261631011963,-0.07237984240055084
1683132164940948000,21.453947998046875,0.15958309173583984,-0.4478248953819275,0.03654962778091431
1683132164958781000,21.471781005859373,-0.2395000457763672,0.2519875764846802,-0.07623877376317978
1683132164976628500,21.48962841796875,0.17754459381103516,-0.31845253705978394,-0.023377031087875366
1683132164994467800,21.5074677734375,-0.24583816528320312,0.27888524532318115,0.11096366494894028
1683132165012305400,21.525305419921875,0.18999290466308594,-0.08954107761383057,-0.1285073310136795
1683132165030142700,21.543142822265626,-0.09006595611572266,0.14960110187530518,0.24260377883911133
1683132165047987500,21.560987548828123,0.20311355590820312,0.09868741035461426,-0.27666744589805603
1683132165065828400,21.578828369140624,-0.007395744323730469,-0.09789466857910156,0.20375074446201324
1683132165083665400,21.59666552734375,0.0006952285766601562,0.06397747993469238,-0.28785544633865356
1683132165101508600,21.614508544921875,0.04779338836669922,-0.20908725261688232,0.16640923917293549
1683132165119348200,21.63234814453125,-0.19931507110595703,0.15178966522216797,-0.17109599709510803
1683132165137188600,21.650188720703124,0.020519256591796875,-0.3333275318145752,0.12089021503925323
1683132165155030000,21.668030029296876,-0.210968017578125,0.3854200839996338,-0.035096943378448486
1683132165172868600,21.68586865234375,0.1199188232421875,-0.3903239369392395,0.06985453516244888
1683132165190709200,21.703709228515624,-0.20807361602783203,0.32186222076416016,-0.07662180811166763
1683132165208548900,21.721548828125,0.1712188720703125,-0.40094053745269775,0.00588358286768198
1683132165226390000,21.73939013671875,-0.2410879135131836,0.20117413997650146,-0.02014981582760811
1683132165244229000,21.75722900390625,0.1529073715209961,-0.2139652967453003,-0.06493229418992996
1683132165262068700,21.77506884765625,-0.22164630889892578,0.20124804973602295,0.190467968583107
1683132165279905500,21.792905517578124,0.2401752471923828,0.05099213123321533,-0.19230473041534424
1683132165297749000,21.8107490234375,-0.08118247985839844,0.043840646743774414,0.2614498734474182
1683132165315589000,21.828589111328125,0.13961219787597656,0.08872795104980469,-0.3020101487636566
1683132165333429200,21.84642919921875,0.015410423278808594,-0.1602252721786499,0.18697862327098846
