time,seconds_elapsed,z,y,x
1683132143599582700,0.112582763671875,9.476176261901855,1.8137595653533936,-0.05503492057323456
1683132143617426200,0.13042626953125,9.768099784851074,0.550349235534668,0.06759724020957947
1683132143635278000,0.148278076171875,9.375677108764648,1.9561325311660767,0.04127619042992592
1683132143653118500,0.166118408203125,10.0073823928833,0.8165507316589355,0.012562318705022335
1683132143670958000,0.1839580078125,9.494122505187988,1.689931035041809,0.12861421704292297
1683132143688787200,0.201787109375,10.0612211227417,1.3423734903335571,-0.16929219663143158
1683132143706638800,0.219638916015625,9.686744689941406,1.1222338676452637,0.1663011759519577
1683132143724479200,0.237479248046875,10.031908988952637,1.4321043491363525,-0.3774677813053131
1683132143742319000,0.255319091796875,9.7064847946167,0.8919246196746826,0.2913261651992798
1683132143760163600,0.27316357421875,9.826126098632812,1.2532408237457275,-0.44327038526535034
1683132143777998600,0.29099853515625,9.66221809387207,1.1377872228622437,0.3565305769443512
1683132143795840000,0.308840087890625,9.57787036895752,1.4608181715011597,-0.23270200192928314
1683132143813683500,0.326683349609375,9.648459434509277,1.0857433080673218,0.24287149310112
1683132143831520500,0.3445205078125,9.427123069763184,1.654038667678833,-0.09511470049619675
1683132143849361000,0.36236083984375,9.80518913269043,0.5712863802909851,0.06041877344250679
1683132143867200800,0.38020068359375,9.388837814331055,1.866999864578247,-0.025722842663526535
1683132143885044700,0.398044677734375,9.883553504943848,0.5581258535385132,0.03888336941599846
1683132143902881500,0.415881591796875,9.451051712036133,1.9573289155960083,0.1339980661869049
1683132143920721700,0.4337216796875,10.090533256530762,1.114457130432129,-0.064606212079525
1683132143938561800,0.451561767578125,9.625727653503418,1.415354609489441,0.1986042857170105
1683132143956397600,0.4693974609375,10.077372550964355,1.5876377820968628,-0.29790642857551575
1683132143974242300,0.4872421875,9.667601585388184,0.8614161610603333,0.2063809484243393
1683132143992082200,0.505082275390625,9.897911071777344,1.3758729696273804,-0.47676992416381836
1683132144009922600,0.522922607421875,9.808777809143066,1.0019944906234741,0.3577269911766052
1683132144027751200,0.540751220703125,9.551549911499023,1.2436695098876953,-0.3242274820804596
1683132144045587700,0.558587646484375,9.713663101196289,1.1617153882980347,0.26081767678260803
1683132144063443500,0.576443359375,9.486345291137695,1.6157535314559937,-0.1136590763926506
1683132144081287400,0.594287353515625,9.726225852966309,0.8027920126914978,0.09152546525001526
1683132144099113700,0.61211376953125,9.42891788482666,1.7790635824203491,-0.06819544732570648
1683132144116964000,0.629964111328125,9.930213928222656,0.503689169883728,0.007178467698395252
1683132144134804500,0.647804443359375,9.334999084472656,1.846660852432251,0.06041877344250679
1683132144152644600,0.66564453125,9.969695091247559,0.8009973764419556,-0.061016976833343506
1683132144170484700,0.683484619140625,9.42353343963623,1.657029628753662,0.2153540402650833
1683132144188320800,0.70132080078125,10.137791633605957,1.459621787071228,-0.251844584941864
1683132144206168000,0.71916796875,9.68913745880127,1.0618150234222412,0.268594354391098
1683132144224005400,0.73700537109375,9.954142570495605,1.5499508380889893,-0.4576273262500763
1683132144241844700,0.7548447265625,9.812965393066406,0.8291130661964417,0.27397820353507996
1683132144259686000,0.772685791015625,9.601799011230469,1.2664014101028442,-0.4145565330982208
1683132144277526000,0.790526123046875,9.744172096252441,0.9900303483009338,0.2997010350227356
1683132144295368000,0.808367919921875,9.33739185333252,1.5122638940811157,-0.14057832956314087
1683132144313206500,0.82620654296875,9.754341125488281,0.9349954724311829,0.1740778535604477
1683132144331043000,0.84404296875,9.461220741271973,1.83828604221344,-0.024526432156562805
1683132144348886800,0.86188671875,9.815957069396973,0.6448656916618347,0.037088751792907715
1683132144366728400,0.879728515625,9.406784057617188,1.6342978477478027,-0.010767702013254166
1683132144384567600,0.897567626953125,10.010972023010254,0.8620143532752991,0
1683132144402407700,0.91540771484375,9.381659507751465,1.7222341299057007,0.2638086974620819
1683132144420242000,0.933241943359375,10.088738441467285,1.3262219429016113,-0.17527425289154053
1683132144438088200,0.951088134765625,9.664012908935547,1.3764712810516357,0.37148571014404297
1683132144455927300,0.96892724609375,10.048060417175293,1.5655041933059692,-0.4259224236011505
1683132144473768400,0.9867685546875,9.769296646118164,0.9409775137901306,0.23808585107326508
1683132144491611400,1.004611328125,9.659226417541504,1.3800604343414307,-0.4695914387702942
1683132144509448700,1.02244873046875,9.80399227142334,0.8799605369567871,0.18963119387626648
1683132144527293200,1.040293212890625,9.442078590393066,1.500898003578186,-0.18723836541175842
1683132144545127700,1.058127685546875,9.718449592590332,0.8123632669448853,0.12681959569454193
1683132144562969300,1.07596923828125,9.379864692687988,1.8813568353652954,0.031106693670153618
1683132144580810000,1.09381005859375,9.870991706848145,0.8081758618354797,0.06281159073114395
1683132144598638300,1.111638427734375,9.403793334960938,1.6468602418899536,0.018544375896453857
1683132144616487400,1.1294873046875,9.999007225036621,0.771087110042572,-0.014955141581594944
1683132144634320600,1.147320556640625,9.494122505187988,1.4841482639312744,0.11844471842050552
1683132144652166400,1.16516650390625,9.983454704284668,1.1240284442901611,-0.11066804826259613
1683132144670010600,1.1830107421875,9.487542152404785,1.51166570186615,0.3445664644241333
1683132144687853300,1.200853271484375,10.063613891601562,1.4620146751403809,-0.3116651475429535
1683132144705691600,1.218691650390625,9.767501831054688,1.2370892763137817,0.37866419553756714
1683132144723531500,1.236531494140625,9.832108497619629,1.5098711252212524,-0.4546363055706024
1683132144741367300,1.2543671875,9.828518867492676,0.8219345808029175,0.19680966436862946
1683132144759211800,1.272211669921875,9.486345291137695,1.4297115802764893,-0.35533416271209717
1683132144777052400,1.290052490234375,9.784850120544434,0.8404789566993713,0.16031911969184875
1683132144794892000,1.30789208984375,9.315258979797363,1.667797327041626,-0.06161518394947052
1683132144812731100,1.325731201171875,9.794421195983887,0.8045865893363953,0.1052841991186142
1683132144830573000,1.343572998046875,9.5264253616333,1.800000786781311,0.016749758273363113
1683132144848412700,1.36141259765625,9.878767967224121,0.7651050686836243,0.02871387079358101
1683132144866252000,1.379251953125,9.451051712036133,1.5056836605072021,-0.020338991656899452
1683132144884093400,1.397093505859375,9.990034103393555,0.9182456731796265,-0.07118647545576096
1683132144901933600,1.41493359375,9.463613510131836,1.4943177700042725,0.1950150430202484
1683132144919773700,1.432773681640625,10.00857925415039,1.2741780281066895,-0.20817556977272034
1683132144937615400,1.450615478515625,9.56650447845459,1.389631748199463,0.39601215720176697
1683132144955454500,1.468454345703125,10.045069694519043,1.5146567821502686,-0.4133601188659668
1683132144973293300,1.486293212890625,9.78544807434082,1.0360921621322632,0.2961117923259735
1683132144991135000,1.504135009765625,9.707681655883789,1.435693621635437,-0.39960137009620667
1683132145008976400,1.521976318359375,9.81236743927002,0.8267202377319336,0.20039889216423035
1683132145026815500,1.5398154296875,9.397212982177734,1.482353687286377,-0.2105683982372284
1683132145044655400,1.5576552734375,9.768099784851074,0.7585247755050659,0.12382857501506805
1683132145062491100,1.5754912109375,9.401998519897461,1.851446509361267,0.025722842663526535
1683132145080333300,1.593333251953125,9.866804122924805,0.7579265832901001,0.04366901144385338
1683132145098171100,1.611171142578125,9.446864128112793,1.693520188331604,-0.014955141581594944
1683132145116015600,1.629015625,10.012765884399414,0.7920243144035339,-0.007178467698395252
1683132145133856800,1.646856689453125,9.41037368774414,1.368694543838501,0.02392822690308094
1683132145151697000,1.66469677734375,10.093523979187012,1.1018948554992676,-0.13040883839130402
1683132145169536800,1.682536865234375,9.473783493041992,1.4524433612823486,0.28893333673477173
1683132145187364400,1.7003642578125,9.982855796813965,1.4231312274932861,-0.3038884699344635
1683132145205220400,1.718220458984375,9.704092025756836,1.2538390159606934,0.4247260093688965
1683132145223057700,1.7360576171875,9.790233612060547,1.4895321130752563,-0.40797626972198486
1683132145240902400,1.75390234375,9.776474952697754,0.8895317912101746,0.23270200192928314
1683132145258739200,1.7717392578125,9.540184020996094,1.4327025413513184,-0.28115665912628174
1683132145276578300,1.789578369140625,9.769296646118164,0.8141579031944275,0.14715859293937683
1683132145294418700,1.807418701171875,9.364311218261719,1.7120646238327026,-0.04486542567610741
1683132145312258800,1.8252587890625,9.823135375976562,0.6975077986717224,0.07956135272979736
1683132145330099200,1.84309912109375,9.402596473693848,1.9519450664520264,0.08255238085985184
1683132145347939000,1.86093896484375,9.982855796813965,0.7621139883995056,0.03290131315588951
1683132145365776600,1.878776611328125,9.515657424926758,1.4315061569213867,-0.014356935396790504
1683132145383619800,1.896619873046875,9.973882675170898,1.0839486122131348,-0.10229317098855972
1683132145401459700,1.914459716796875,9.571290969848633,1.201795220375061,0.12861421704292297
1683132145419300000,1.932300048828125,9.949356079101562,1.2406785488128662,-0.29730820655822754
1683132145437139200,1.95013916015625,9.44447135925293,1.3591232299804688,0.39900317788124084
1683132145454981400,1.9679814453125,9.892526626586914,1.4009976387023926,-0.40378883481025696
1683132145472818000,1.98581787109375,9.725028991699219,1.2586246728897095,0.42771705985069275
1683132145490661400,2.003661376953125,9.589237213134766,1.4715858697891235,-0.3026920557022095
1683132145508498200,2.021498291015625,9.717850685119629,0.784247636795044,0.14775680005550385
1683132145526344200,2.03934423828125,9.384650230407715,1.6247265338897705,-0.10468599200248718
1683132145544181800,2.057181640625,9.90149974822998,0.5856433510780334,0.04486542567610741
1683132145562022000,2.07502197265625,9.362516403198242,2.0135602951049805,0.09092725813388824
1683132145579862000,2.092862060546875,10.015159606933594,0.6496513485908508,-0.028115665540099144
1683132145597703400,2.110703369140625,9.623334884643555,1.7856439352035522,0.03888336941599846
1683132145615531300,2.12853125,10.097113609313965,1.0169496536254883,-0.07776673883199692
1683132145633371600,2.14637158203125,9.546764373779297,1.1389836072921753,0.02751746028661728
1683132145651211000,2.1642109375,10.01575756072998,1.2693923711776733,-0.23688943684101105
1683132145669060400,2.182060302734375,9.597013473510742,1.1545369625091553,0.275174617767334
1683132145686903600,2.199903564453125,9.860223770141602,1.2999008893966675,-0.3517449200153351
1683132145704748500,2.21774853515625,9.57787036895752,1.3770694732666016,0.4701896607875824
1683132145722584000,2.235583984375,9.768099784851074,1.444068431854248,-0.3565305769443512
1683132145740424200,2.253424072265625,9.619147300720215,1.1018948554992676,0.31465616822242737
1683132145758259700,2.271259765625,9.426525115966797,1.4895321130752563,-0.19621145725250244
1683132145776103700,2.289103759765625,9.80817985534668,0.6789634227752686,0.08434699475765228
1683132145793945000,2.306945068359375,9.45045280456543,1.8239290714263916,0.02153540402650833
1683132145811787800,2.324787841796875,9.961320877075195,0.5509474277496338,0.03409772366285324
1683132145829617700,2.34261767578125,9.403194427490234,1.9836499691009521,0.12203395366668701
1683132145847465500,2.360465576171875,10.083354949951172,0.8189435601234436,-0.02632104977965355
1683132145865305900,2.378305908203125,9.565906524658203,1.4656038284301758,0.010767702013254166
1683132145883146000,2.39614599609375,10.101301193237305,1.210768222808838,-0.1453639715909958
1683132145900971300,2.41397119140625,9.565906524658203,1.0785647630691528,0.10169496387243271
1683132145918826200,2.431826171875,9.93559741973877,1.236491084098816,-0.3170489966869354
1683132145936666400,2.449666259765625,9.516854286193848,1.2849457263946533,0.35473597049713135
1683132145954507000,2.467507080078125,9.829116821289062,1.3645070791244507,-0.3655036687850952
1683132145972347000,2.485346923828125,9.664610862731934,1.3657035827636719,0.4486542344093323
1683132145990187500,2.5031875,9.612566947937012,1.4321043491363525,-0.30149564146995544
1683132146008027600,2.521027587890625,9.69631576538086,0.8841479420661926,0.20099709928035736
1683132146025868500,2.53886865234375,9.430113792419434,1.6031911373138428,-0.10229317098855972
1683132146043707600,2.556707763671875,9.875179290771484,0.607776939868927,0.0526420995593071
1683132146061548000,2.574548095703125,9.351150512695312,1.9836499691009521,0.06819544732570648
1683132146079375600,2.592375732421875,9.946365356445312,0.5874379873275757,0.024526432156562805
1683132146097228300,2.610228271484375,9.56650447845459,1.8861424922943115,0.08554340898990631
1683132146115071000,2.628071044921875,10.121041297912598,0.9529415965080261,-0.07058826833963394
1683132146132912000,2.645912109375,9.539586067199707,1.2490534782409668,-0.012562318705022335
1683132146150744600,2.66374462890625,10.02293586730957,1.306481122970581,-0.20937198400497437
1683132146168589300,2.68158935546875,9.615557670593262,1.0767701864242554,0.1902294009923935
1683132146186426600,2.699426513671875,9.851848602294922,1.2789636850357056,-0.3433700501918793
1683132146204269800,2.717269775390625,9.552745819091797,1.3471591472625732,0.41934216022491455
1683132146222110200,2.735110107421875,9.716654777526855,1.4141582250595093,-0.3601198196411133
1683132146239948300,2.7529482421875,9.665806770324707,1.2472587823867798,0.372682124376297
1683132146257788000,2.770787841796875,9.479166984558105,1.454237937927246,-0.24526432156562805
1683132146275630800,2.788630859375,9.731011390686035,0.7513462901115417,0.12741780281066895
1683132146293471000,2.806470947265625,9.378069877624512,1.7168502807617188,-0.0526420995593071
1683132146311311400,2.824311279296875,9.906285285949707,0.5288137793540955,0.004187439568340778
1683132146329140500,2.842140380859375,9.394221305847168,2.043470621109009,0.09032905846834183
1683132146346992600,2.85999267578125,10.02592658996582,0.6586244106292725,-0.019142581149935722
1683132146364831700,2.877831787109375,9.629316329956055,1.6564314365386963,0.01375873014330864
1683132146382672400,2.89567236328125,10.028319358825684,1.1653046607971191,-0.10468599200248718
1683132146400504600,2.913504638671875,9.593423843383789,1.0755738019943237,0.047258246690034866
1683132146418334200,2.931334228515625,10.006186485290527,1.3363914489746094,-0.27397820353507996
1683132146436192800,2.94919287109375,9.640682220458984,1.155733346939087,0.31824541091918945
1683132146454033200,2.967033203125,9.741779327392578,1.293320655822754,-0.37507495284080505
1683132146471868700,2.98486865234375,9.640682220458984,1.3704891204833984,0.4624129831790924
1683132146489713700,3.002713623046875,9.647262573242188,1.423729419708252,-0.3248256742954254
1683132146507553800,3.0205537109375,9.578469276428223,1.0007981061935425,0.2512463629245758
1683132146525394000,3.038393798828125,9.407382011413574,1.5481562614440918,-0.16331014037132263
1683132146543234300,3.056234375,9.839884757995605,0.6352944374084473,0.06699903309345245
1683132146561077200,3.0740771484375,9.33858871459961,1.8963119983673096,-0.0011964113218709826
1683132146578914600,3.09191455078125,9.918848037719727,0.5485545992851257,0.03349951654672623
1683132146596756700,3.1097568359375,9.54915714263916,1.954936146736145,0.08255238085985184
1683132146614592500,3.127592529296875,10.103693962097168,0.877567708492279,-0.03290131315588951
1683132146632435500,3.145435546875,9.622138023376465,1.404586911201477,0.022133609279990196
1683132146650275600,3.163275634765625,10.003194808959961,1.275374412536621,-0.1950150430202484
1683132146668117000,3.181116943359375,9.619745254516602,1.0247262716293335,0.15613168478012085
1683132146685949700,3.19894970703125,9.948758125305176,1.3046865463256836,-0.3397808074951172
1683132146703781400,3.216781494140625,9.537193298339844,1.2508480548858643,0.4103690981864929
1683132146721632000,3.234632080078125,9.68794059753418,1.319043517112732,-0.32662028074264526
1683132146739477200,3.252477294921875,9.6466646194458,1.323829174041748,0.3810569941997528
1683132146757318400,3.270318359375,9.418149948120117,1.4327025413513184,-0.2667997181415558
1683132146775157200,3.2881572265625,9.757332801818848,0.7962117195129395,0.14117653667926788
1683132146792997600,3.30599755859375,9.351150512695312,1.6689938306808472,-0.13220344483852386
1683132146810838000,3.323838134765625,9.852447509765625,0.5222335457801819,0.046061836183071136
1683132146828677600,3.341677734375,9.418149948120117,1.9962122440338135,0.03469592705368996
1683132146846516700,3.359516845703125,10.012167930603027,0.6610172390937805,0.017946170642971992
1683132146864358400,3.3773583984375,9.620942115783691,1.771286964416504,0.08793623000383377
1683132146882198800,3.39519873046875,10.149157524108887,1.150349497795105,-0.07058826833963394
1683132146900042000,3.4130419921875,9.605388641357422,1.1676974296569824,0.03529413416981697
1683132146917878000,3.4308779296875,9.978070259094238,1.332203984260559,-0.25004997849464417
1683132146935719400,3.448719482421875,9.671789169311523,1.0618150234222412,0.2632105052471161
1683132146953559600,3.4665595703125,9.817750930786133,1.2675977945327759,-0.3762713670730591
1683132146971399400,3.4843994140625,9.547362327575684,1.2993026971817017,0.4295116662979126
1683132146989237500,3.502237548828125,9.616754531860352,1.3980066776275635,-0.3290131092071533
1683132147007069200,3.520069091796875,9.619147300720215,1.1264212131500244,0.2757728099822998
1683132147024921600,3.537921630859375,9.373882293701172,1.5242279767990112,-0.21774685382843018
1683132147042761000,3.555760986328125,9.796216011047363,0.6221339106559753,0.05802594870328903
1683132147060601000,3.57360107421875,9.361320495605469,1.8035900592803955,-0.08015955984592438
1683132147078438100,3.591438232421875,9.90688419342041,0.5341976284980774,0.03409772366285324
1683132147096281300,3.60928125,9.467801094055176,1.9555343389511108,0.0729810893535614
1683132147114124500,3.62712451171875,10.039087295532227,0.8590233325958252,0.01196411345154047
1683132147131962000,3.644962158203125,9.646066665649414,1.583450436592102,0.061016976833343506
1683132147149802000,3.662802001953125,10.054640769958496,1.2993026971817017,-0.11545369029045105
1683132147167639300,3.680639404296875,9.65085220336914,1.090528964996338,0.14476576447486877
1683132147185482800,3.698482666015625,9.920642852783203,1.3316057920455933,-0.3415754437446594
1683132147203320000,3.716320068359375,9.608379364013672,1.1419745683670044,0.3475574851036072
1683132147221163300,3.734163330078125,9.708279609680176,1.26699960231781,-0.37507495284080505
1683132147238997200,3.751997314453125,9.621540069580078,1.3112667798995972,0.42831525206565857
1683132147256843800,3.76984375,9.489336013793945,1.4901303052902222,-0.26440688967704773
1683132147274684000,3.787683837890625,9.704689979553223,0.9517452120780945,0.20757736265659332
1683132147292519400,3.80551953125,9.357730865478516,1.604387640953064,-0.18125630915164948
1683132147310360800,3.82336083984375,9.850054740905762,0.5682953596115112,0.03888336941599846
1683132147328201200,3.841201171875,9.43489933013916,1.9513468742370605,-0.004785645287483931
1683132147346047000,3.859046875,9.989436149597168,0.5587241053581238,0.048454657196998596
1683132147363885300,3.87688525390625,9.542576789855957,1.8849459886550903,0.12681959569454193
1683132147381725200,3.89472509765625,10.057631492614746,1.0199406147003174,-0.05623133108019829
1683132147399565600,3.912565673828125,9.579665184020996,1.2586246728897095,0.06759724020957947
1683132147417405700,3.93040576171875,10.02173900604248,1.3938192129135132,-0.259621262550354
1683132147435247600,3.94824755859375,9.69511890411377,1.00259268283844,0.24227328598499298
1683132147453089300,3.96608935546875,9.78126049041748,1.2693923711776733,-0.4091726839542389
1683132147470922500,3.983922607421875,9.602995872497559,1.2149556875228882,0.4408775866031647
1683132147488753700,4.001753662109375,9.479166984558105,1.3680963516235352,-0.3122633695602417
1683132147506606800,4.01960693359375,9.7005033493042,1.2077772617340088,0.3128615617752075
1683132147524447200,4.037447265625,9.45882797241211,1.6163517236709595,-0.2027917206287384
1683132147542287600,4.05528759765625,9.772287368774414,0.6975077986717224,0.08075776696205139
1683132147560119000,4.073119140625,9.471389770507812,1.7778671979904175,-0.09571290761232376
1683132147577953500,4.09095361328125,9.966106414794922,0.5790630578994751,0.022133609279990196
1683132147595806000,4.108805908203125,9.45583724975586,1.9669002294540405,0.08434699475765228
1683132147613651500,4.1266513671875,10.043274879455566,0.8793623447418213,0.016749758273363113
1683132147631477500,4.1444775390625,9.644271850585938,1.5882359743118286,0.14656038582324982
1683132147649317600,4.162317626953125,10.074979782104492,1.384247899055481,-0.17946170270442963
1683132147667158000,4.180157958984375,9.653244972229004,1.0193424224853516,0.16151553392410278
1683132147685010700,4.1980107421875,9.884750366210938,1.4207384586334229,-0.42711883783340454
1683132147702849800,4.215849853515625,9.753743171691895,0.9355936646461487,0.33439695835113525
1683132147720690000,4.23368994140625,9.620343208312988,1.1994023323059082,-0.4414757788181305
1683132147738530300,4.2515302734375,9.659226417541504,1.1306086778640747,0.33020952343940735
1683132147756370400,4.269370361328125,9.392427444458008,1.5032907724380493,-0.20398813486099243
1683132147774210800,4.2872109375,9.713663101196289,0.9840483069419861,0.15613168478012085
1683132147792051200,4.30505126953125,9.340981483459473,1.6785650253295898,-0.1010967567563057
1683132147809885700,4.3228857421875,9.882955551147461,0.5282155871391296,0.025722842663526535
1683132147827731700,4.340731689453125,9.53659439086914,1.9058831930160522,0.031106693670153618
1683132147845571800,4.35857177734375,9.954142570495605,0.6293123364448547,0.014356935396790504
1683132147863412000,4.376411865234375,9.547362327575684,1.8903298377990723,0.1657029688358307
1683132147881244400,4.394244384765625,10.043872833251953,1.2245270013809204,-0.11066804826259613
1683132147899082000,4.41208203125,9.647860527038574,1.2149556875228882,0.1908276081085205
1683132147916922400,4.42992236328125,10.03011417388916,1.6342978477478027,-0.3409772217273712
1683132147934772500,4.4477724609375,9.765707015991211,0.8219345808029175,0.251844584941864
1683132147952613400,4.46561328125,9.66221809387207,1.3160524368286133,-0.46719861030578613
1683132147970453500,4.48345361328125,9.742975234985352,1.1324033737182617,0.36729827523231506
1683132147988290000,4.5012900390625,9.42173957824707,1.3022937774658203,-0.22911277413368225
1683132148006135600,4.519135498046875,9.718449592590332,1.095314621925354,0.2111666053533554
1683132148023974400,4.536974365234375,9.404391288757324,1.740180253982544,-0.0729810893535614
1683132148041818600,4.554818603515625,9.854840278625488,0.6963114142417908,0.020937198773026466
1683132148059654700,4.572654541015625,9.430113792419434,1.8041882514953613,-0.03888336941599846
1683132148077496300,4.590496337890625,9.966106414794922,0.5551348328590393,0
1683132148095338200,4.608338134765625,9.375677108764648,1.827518343925476,0.11246266216039658
1683132148113172500,4.62617236328125,9.987641334533691,1.0534402132034302,-0.07537391036748886
1683132148131011300,4.64401123046875,9.572486877441406,1.4691931009292603,0.3008974492549896
1683132148148855800,4.661855712890625,10.05404281616211,1.612762451171875,-0.3080759048461914
1683132148166696000,4.679696044921875,9.720243453979492,0.9463613629341125,0.26081767678260803
1683132148184536300,4.697536376953125,9.862018585205078,1.4901303052902222,-0.486939400434494
1683132148202376700,4.715376708984375,9.81356430053711,0.8889335989952087,0.2715853750705719
1683132148220215800,4.7332158203125,9.504291534423828,1.2849457263946533,-0.3326023519039154
1683132148238057000,4.751056884765625,9.704092025756836,0.9296116232872009,0.2063809484243393
1683132148255900700,4.768900634765625,9.388239860534668,1.6360924243927002,-0.05503492057323456
1683132148273738000,4.786738037109375,9.823135375976562,0.8303094506263733,0.10707881301641464
1683132148291578000,4.804578125,9.41037368774414,1.7443677186965942,-0.04666004329919815
1683132148309418000,4.82241796875,9.829116821289062,0.617946445941925,0.01375873014330864
1683132148327259400,4.84025927734375,9.407382011413574,1.5541383028030396,0.04366901144385338
1683132148345098800,4.8580986328125,9.930811882019043,0.9900303483009338,-0.06580262631177902
1683132148362939100,4.875939208984375,9.43489933013916,1.628315806388855,0.2991028428077698
1683132148380775200,4.893775146484375,10.109077453613281,1.441077470779419,-0.23210379481315613
1683132148398616800,4.911616943359375,9.714262008666992,1.277767300605774,0.4043870270252228
1683132148416460000,4.9294599609375,9.869196891784668,1.5355939865112305,-0.4289134442806244
1683132148434300200,4.947300048828125,9.81356430053711,0.8949156403541565,0.21296121180057526
1683132148452135400,4.965135498046875,9.559925079345703,1.4015958309173584,-0.381655216217041
1683132148469980200,4.982980224609375,9.748359680175781,0.8889335989952087,0.17347964644432068
1683132148487817700,5.000817626953125,9.364909172058105,1.5852450132369995,-0.10588239878416061
1683132148505661200,5.0186611328125,9.762716293334961,0.7914260625839233,0.08075776696205139
1683132148523501800,5.036501708984375,9.384650230407715,1.8215361833572388,-0.008973085321485996
1683132148541344500,5.054344482421875,9.881759643554688,0.6933203339576721,-0.003589233849197626
1683132148559181600,5.072181640625,9.501898765563965,1.5481562614440918,-0.0729810893535614
1683132148577019400,5.090019287109375,10.036096572875977,0.9475577473640442,-0.012562318705022335
1683132148594863600,5.107863525390625,9.419346809387207,1.4799607992172241,0.1459621787071228
1683132148612702500,5.125702392578125,10.086345672607422,1.2041879892349243,-0.17766708135604858
1683132148630543000,5.143543212890625,9.507282257080078,1.4261223077774048,0.37866419553756714
1683132148648373000,5.161373046875,9.975079536437988,1.4979069232940674,-0.3601198196411133
1683132148666223000,5.17922314453125,9.710074424743652,1.0767701864242554,0.33858439326286316
1683132148684060700,5.197060791015625,9.747760772705078,1.4709876775741577,-0.4001995921134949
1683132148701904000,5.21490380859375,9.766305923461914,0.8297112584114075,0.1866401731967926
1683132148719730700,5.232730712890625,9.393623352050781,1.4506487846374512,-0.22193430364131927
1683132148737584400,5.25058447265625,9.751350402832031,0.8237292170524597,0.12921242415905
1683132148755424800,5.2684248046875,9.363713264465332,1.812563180923462,0.020338991656899452
1683132148773265200,5.28626513671875,9.809974670410156,0.7148557901382446,0.04247260093688965
1683132148791105300,5.304105224609375,9.525827407836914,1.794616937637329,-0.0364905446767807
1683132148808945200,5.321945068359375,10.040882110595703,0.7746763229370117,-0.03529413416981697
1683132148826785000,5.339784912109375,9.448060035705566,1.3513466119766235,-0.008973085321485996
1683132148844626000,5.3576259765625,10.020543098449707,1.1048858165740967,-0.14416755735874176
1683132148862469400,5.375469482421875,9.428318977355957,1.3627125024795532,0.23449662327766418
1683132148880306400,5.393306396484375,9.999007225036621,1.3812568187713623,-0.28594231605529785
1683132148898149000,5.411149169921875,9.647860527038574,1.2873386144638062,0.43968117237091064
1683132148915986400,5.428986328125,9.835697174072266,1.4662020206451416,-0.38703906536102295
1683132148933828000,5.446828125,9.724431037902832,0.9690931439399719,0.26141586899757385
1683132148951672300,5.46467236328125,9.531808853149414,1.451246976852417,-0.2805584669113159
1683132148969511000,5.482510986328125,9.778867721557617,0.8183453679084778,0.1333998590707779
1683132148987345200,5.50034521484375,9.359525680541992,1.6911274194717407,-0.052043892443180084
1683132149005191200,5.518191162109375,9.934401512145996,0.6652047038078308,0.0526420995593071
1683132149023028700,5.53602880859375,9.437292098999023,1.9597218036651611,0.06400800496339798
1683132149040868900,5.553868896484375,10.048060417175293,0.7597211599349976,-0.006580262444913387
1683132149058709000,5.571708984375,9.586843490600586,1.5391831398010254,-0.052043892443180084
1683132149076552200,5.58955224609375,10.04267692565918,1.0528420209884644,-0.09511470049619675
1683132149094387200,5.60738720703125,9.509675025939941,1.1958130598068237,0.07417750358581543
1683132149112230000,5.62522998046875,9.971489906311035,1.2275179624557495,-0.25304099917411804
1683132149130075000,5.643074951171875,9.45583724975586,1.3525429964065552,0.35533416271209717
1683132149147910400,5.660910400390625,9.849455833435059,1.4243277311325073,-0.34576287865638733
1683132149165739800,5.67873974609375,9.681958198547363,1.2717852592468262,0.4588237404823303
1683132149183591200,5.696591064453125,9.647860527038574,1.461416482925415,-0.3433700501918793
1683132149201431000,5.71443115234375,9.685547828674316,0.8691928386688232,0.1950150430202484
1683132149219265800,5.732265869140625,9.363713264465332,1.550549030303955,-0.15314064919948578
1683132149237111800,5.75011181640625,9.820143699645996,0.7112665176391602,0.06400800496339798
1683132149254951000,5.767950927734375,9.403194427490234,1.8999011516571045,0.0526420995593071
1683132149272792600,5.78579248046875,9.975677490234375,0.6376872062683105,0.010169495828449726
1683132149290632700,5.8036328125,9.528220176696777,1.8957136869430542,0.016749758273363113
1683132149308472600,5.82147265625,10.077970504760742,0.8745766878128052,-0.02632104977965355
1683132149326313000,5.83931298828125,9.540184020996094,1.2903295755386353,-0.05383851006627083
1683132149344153000,5.857153076171875,10.010972023010254,1.1874382495880127,-0.15074782073497772
1683132149361999400,5.874999267578125,9.559326171875,1.184447169303894,0.20159530639648438
1683132149379833900,5.892833740234375,9.956535339355469,1.2849457263946533,-0.29730820655822754
1683132149397678300,5.91067822265625,9.487542152404785,1.3800604343414307,0.4462614357471466
1683132149415517700,5.928517578125,9.786046028137207,1.456630825996399,-0.38703906536102295
1683132149433354800,5.946354736328125,9.698110580444336,1.1772687435150146,0.3732803463935852
1683132149451195000,5.96419482421875,9.5264253616333,1.454836130142212,-0.25363919138908386
1683132149469035000,5.982034912109375,9.79083251953125,0.8129615187644958,0.13040883839130402
1683132149486876700,5.999876708984375,9.346963882446289,1.688734531402588,-0.06999006122350693
1683132149504716000,6.017716064453125,9.945767402648926,0.5676971673965454,0.03170489892363548
1683132149522548000,6.0355478515625,9.408578872680664,1.9710876941680908,0.07178468257188797
1683132149540392000,6.053391845703125,10.059426307678223,0.6628118753433228,-0.025722842663526535
1683132149558230300,6.071230224609375,9.568299293518066,1.649253010749817,-0.014356935396790504
1683132149576076300,6.089076171875,10.081560134887695,1.0600204467773438,-0.1010967567563057
1683132149593917200,6.106917236328125,9.514460563659668,1.144965648651123,0.010169495828449726
1683132149611757300,6.12475732421875,9.954740524291992,1.2143574953079224,-0.26560330390930176
1683132149629601000,6.14260107421875,9.524032592773438,1.2598211765289307,0.27397820353507996
1683132149647423500,6.160423583984375,9.865608215332031,1.3435698747634888,-0.349352091550827
1683132149665266700,6.1782666015625,9.5862455368042,1.363310694694519,0.49232324957847595
1683132149683105500,6.19610546875,9.659226417541504,1.4327025413513184,-0.3409772217273712
1683132149700945700,6.213945556640625,9.680164337158203,1.054038405418396,0.268594354391098
1683132149718800100,6.231800048828125,9.463613510131836,1.5140584707260132,-0.16749759018421173
1683132149736625700,6.249625732421875,9.787840843200684,0.706480860710144,0.07956135272979736
1683132149754479900,6.26747998046875,9.369096755981445,1.8245272636413574,0.0077766734175384045
1683132149772319700,6.28531982421875,9.986445426940918,0.5748756527900696,0.037088751792907715
1683132149790160400,6.303160400390625,9.482755661010742,1.9854445457458496,0.06161518394947052
1683132149807990300,6.320990234375,10.103693962097168,0.8123632669448853,-0.05024927482008934
1683132149825840600,6.338840576171875,9.57607650756836,1.4069796800613403,-0.04486542567610741
1683132149843678200,6.35667822265625,10.03729248046875,1.2089736461639404,-0.16271193325519562
1683132149861516500,6.3745166015625,9.56889820098877,1.0785647630691528,0.11665010452270508
1683132149879361500,6.392361572265625,9.976275444030762,1.2346965074539185,-0.28534409403800964
1683132149897202000,6.410201904296875,9.479764938354492,1.3483555316925049,0.4019941985607147
1683132149915046000,6.4280458984375,9.791430473327637,1.40279221534729,-0.3445664644241333
1683132149932882700,6.445882568359375,9.654440879821777,1.319043517112732,0.4384847581386566
1683132149950722600,6.46372265625,9.498908042907715,1.4488540887832642,-0.28594231605529785
1683132149968562700,6.481562744140625,9.752547264099121,0.8249256014823914,0.15672987699508667
1683132149986400500,6.499400390625,9.381659507751465,1.6307085752487183,-0.08673982322216034
1683132150004241200,6.5172412109375,9.88833999633789,0.6203392744064331,0.04307080805301666
1683132150022084000,6.535083984375,9.449256896972656,1.9956140518188477,0.07118647545576096
1683132150039924000,6.552924072265625,10.030712127685547,0.6005984544754028,-0.009571290574967861
1683132150057767200,6.57076708984375,9.614959716796875,1.800000786781311,0.04366901144385338
1683132150075604500,6.5886044921875,10.145567893981934,1.0271191596984863,-0.08075776696205139
1683132150093444900,6.60644482421875,9.54496955871582,1.1545369625091553,0.01136590726673603
1683132150111282000,6.624281982421875,10.040882110595703,1.3130614757537842,-0.24825534224510193
1683132150129125400,6.64212548828125,9.622735977172852,1.0929217338562012,0.26141586899757385
1683132150146968800,6.65996875,9.81655502319336,1.2813565731048584,-0.35054850578308105
1683132150164806000,6.677805908203125,9.512666702270508,1.3728820085525513,0.46360939741134644
1683132150182646500,6.695646484375,9.65683364868164,1.412961721420288,-0.35413774847984314
1683132150200486700,6.713486572265625,9.719047546386719,1.1330015659332275,0.3044866919517517
1683132150218323000,6.731322998046875,9.399605751037598,1.4973087310791016,-0.16869398951530457
1683132150236165000,6.7491650390625,9.763314247131348,0.6592226624488831,0.07537391036748886
1683132150254009600,6.767009521484375,9.378668785095215,1.828116536140442,-0.01734796352684498
1683132150271844900,6.784844970703125,9.930213928222656,0.5527420043945312,0.030508488416671753
1683132150289688000,6.80268798828125,9.479166984558105,2.0279171466827393,0.09152546525001526
1683132150307527200,6.820527099609375,10.090533256530762,0.8189435601234436,-0.008973085321485996
1683132150325368800,6.838368896484375,9.56351375579834,1.5296118259429932,-0.0029910283628851175
1683132150343209000,6.856208984375,10.112068176269531,1.3046865463256836,-0.1657029688358307
1683132150361037300,6.874037353515625,9.655637741088867,1.0115658044815063,0.11844471842050552
1683132150378881500,6.891881591796875,9.946365356445312,1.334596872329712,-0.37447673082351685
1683132150396732700,6.909732666015625,9.613164901733398,1.1694921255111694,0.4043870270252228
1683132150414572000,6.927572021484375,9.768698692321777,1.308275818824768,-0.34695929288864136
1683132150432410600,6.94541064453125,9.56471061706543,1.3465609550476074,0.4247260093688965
1683132150450250500,6.96325048828125,9.44447135925293,1.482353687286377,-0.2350948303937912
1683132150468091000,6.9810908203125,9.809974670410156,0.8973084688186646,0.16929219663143158
1683132150485930200,6.99893017578125,9.276973724365234,1.6139588356018066,-0.1178465187549591
1683132150503771400,7.016771484375,9.908679008483887,0.5563312768936157,0.053240302950143814
1683132150521611800,7.03461181640625,9.45882797241211,1.9800606966018677,0.04426721855998039
1683132150539447300,7.052447265625,9.981060981750488,0.6203392744064331,0.06281159073114395
1683132150557279500,7.070279541015625,9.558728218078613,1.8239290714263916,0.07956135272979736
1683132150575135500,7.088135498046875,10.107880592346191,1.1096714735031128,-0.09990034252405167
1683132150592973800,7.105973876953125,9.652647018432617,1.2011969089508057,0.06699903309345245
1683132150610813200,7.123813232421875,9.968499183654785,1.3770694732666016,-0.2877369225025177
1683132150628647400,7.1416474609375,9.710074424743652,1.0133603811264038,0.26500511169433594
1683132150646493700,7.15949365234375,9.79262638092041,1.215553879737854,-0.4301098585128784
1683132150664334300,7.177334228515625,9.590433120727539,1.2478569746017456,0.4295116662979126
1683132150682174200,7.19517431640625,9.518050193786621,1.439282774925232,-0.2626122832298279
1683132150700017200,7.21301708984375,9.711270332336426,1.1335997581481934,0.2997010350227356
1683132150717857300,7.230857177734375,9.425926208496094,1.6079767942428589,-0.18544375896453857
1683132150735695400,7.2486953125,9.803394317626953,0.6604190468788147,0.06939185410737991
1683132150753535700,7.26653564453125,9.412766456604004,1.8035900592803955,-0.062213387340307236
1683132150771375600,7.284375732421875,9.985248565673828,0.6143572330474854,0.03469592705368996
1683132150789216000,7.302216064453125,9.42891788482666,2.002194404602051,0.10588239878416061
1683132150807056400,7.320056396484375,10.096514701843262,0.9146564602851868,0.008973085321485996
1683132150824901000,7.337901123046875,9.66939640045166,1.545763373374939,0.13519448041915894
1683132150842737000,7.35573681640625,10.053443908691406,1.430907964706421,-0.2105683982372284
1683132150860577800,7.373577880859375,9.674779891967773,0.9690931439399719,0.16869398951530457
1683132150878403800,7.39140380859375,9.866804122924805,1.3776676654815674,-0.4103690981864929
1683132150896258000,7.409258056640625,9.759127616882324,1.042074203491211,0.389431893825531
1683132150914098200,7.42709814453125,9.524630546569824,1.2185449600219727,-0.3481557071208954
1683132150931938600,7.4449384765625,9.69212818145752,1.189831018447876,0.34277185797691345
1683132150949765600,7.462765625,9.430712699890137,1.567897081375122,-0.16809579730033875
1683132150967612400,7.4806123046875,9.725627899169922,0.9020941257476807,0.1256231814622879
1683132150985459200,7.498459228515625,9.394820213317871,1.6923238039016724,-0.09152546525001526
1683132151003299800,7.5162998046875,9.899106979370117,0.5228317379951477,0.04307080805301666
1683132151021137000,7.534136962890625,9.446864128112793,1.887937068939209,0.01136590726673603
1683132151038983000,7.55198291015625,9.967302322387695,0.6622136831283569,0.017946170642971992
1683132151056820500,7.569820556640625,9.569496154785156,1.8454644680023193,0.1417747437953949
1683132151074660900,7.587660888671875,10.03549861907959,1.2340983152389526,-0.12801600992679596
1683132151092501200,7.605501220703125,9.647860527038574,1.215553879737854,0.15194423496723175
1683132151110332000,7.623331787109375,10.02413272857666,1.5361921787261963,-0.3595215976238251
1683132151128177000,7.641177001953125,9.736993789672852,0.8823533654212952,0.26500511169433594
1683132151146022100,7.659022216796875,9.69631576538086,1.2628121376037598,-0.45104706287384033
1683132151163865300,7.676865234375,9.746564865112305,1.0827522277832031,0.3768695592880249
1683132151181702700,7.69470263671875,9.391230583190918,1.3280165195465088,-0.2350948303937912
1683132151199537000,7.712536865234375,9.829715728759766,1.1114661693572998,0.2021935135126114
1683132151217383000,7.7303828125,9.442676544189453,1.7527425289154053,-0.08434699475765228
1683132151235223600,7.7482236328125,9.842277526855469,0.623330295085907,0.016749758273363113
1683132151253063400,7.7660634765625,9.430113792419434,1.7868403196334839,-0.0023928226437419653
1683132151270899500,7.7838994140625,9.984650611877441,0.589830756187439,0.013160524889826775
1683132151288737300,7.8017373046875,9.403194427490234,1.8843477964401245,0.13639089465141296
1683132151306584300,7.819584228515625,9.9409818649292,1.01814603805542,-0.06400800496339798
1683132151324428000,7.837427978515625,9.601201057434082,1.470389485359192,0.24466611444950104
1683132151342265000,7.85526513671875,10.110872268676758,1.5649060010910034,-0.31345975399017334
1683132151360105500,7.87310546875,9.7938232421875,0.9326026439666748,0.25782662630081177
1683132151377945900,7.89094580078125,9.812965393066406,1.4691931009292603,-0.4666004180908203
1683132151395786000,7.908785888671875,9.776474952697754,0.97148597240448,0.32721850275993347
1683132151413626600,7.926626708984375,9.479764938354492,1.2340983152389526,-0.2919243574142456
1683132151431457300,7.944457275390625,9.734601020812988,1.0277173519134521,0.25064817070961
1683132151449310500,7.962310546875,9.343374252319336,1.679761528968811,-0.04307080805301666
1683132151467148300,7.980148193359375,9.810572624206543,0.8135597109794617,0.07417750358581543
1683132151484988400,7.997988525390625,9.485149383544922,1.7341982126235962,-0.08733802288770676
1683132151502827800,8.015827880859375,9.89551830291748,0.6191428303718567,-0.02512463741004467
1683132151520660500,8.033660400390625,9.367302894592285,1.6827524900436401,0.06699903309345245
1683132151538508500,8.051508544921875,9.975677490234375,0.9726824164390564,-0.0323031060397625
1683132151556351500,8.0693515625,9.424132347106934,1.6713865995407104,0.29431718587875366
1683132151574189000,8.08718896484375,10.119247436523438,1.4518451690673828,-0.23629122972488403
1683132151592024800,8.10502490234375,9.765109062194824,1.2370892763137817,0.364905446767807
1683132151609872100,8.1228720703125,9.868000984191895,1.5391831398010254,-0.4486542344093323
1683132151627710000,8.1407099609375,9.850054740905762,0.8506484627723694,0.1902294009923935
1683132151645550000,8.158550048828126,9.515059471130371,1.3668999671936035,-0.32602208852767944
1683132151663387600,8.1763876953125,9.69930648803711,0.877567708492279,0.15672987699508667
1683132151681219600,8.194219482421875,9.329017639160156,1.6498512029647827,-0.07896314561367035
1683132151699060000,8.21206005859375,9.821340560913086,0.7914260625839233,0.08255238085985184
1683132151716913000,8.229912841796875,9.394221305847168,1.811964988708496,-0.005383851006627083
1683132151734751700,8.247751708984374,9.903892517089844,0.7543373107910156,0.02751746028661728
1683132151752595000,8.265594970703125,9.467203140258789,1.5152549743652344,-0.07118647545576096
1683132151770430200,8.28343017578125,10.034899711608887,0.9481559991836548,-0.04127619042992592
1683132151788270300,8.301270263671874,9.471389770507812,1.4979069232940674,0.15672987699508667
1683132151806111200,8.319111328125,10.01456069946289,1.2658032178878784,-0.2027917206287384
1683132151823957200,8.336957275390626,9.561120986938477,1.378864049911499,0.40319061279296875
1683132151841789000,8.354788818359374,10.005587577819824,1.5020943880081177,-0.3900300860404968
1683132151859627300,8.372627197265626,9.76391315460205,1.0360921621322632,0.32602208852767944
1683132151877462800,8.390462890625,9.658628463745117,1.4452649354934692,-0.3487538993358612
1683132151895317200,8.408317138671874,9.7938232421875,0.8739784955978394,0.18783657252788544
1683132151913155000,8.426155029296876,9.351749420166016,1.5499508380889893,-0.16151553392410278
1683132151930995200,8.4439951171875,9.693922996520996,0.7603194117546082,0.11066804826259613
1683132151948835000,8.4618349609375,9.354142189025879,1.8658034801483154,0.04366901144385338
1683132151966674700,8.4796748046875,9.921838760375977,0.7076773047447205,0.01734796352684498
1683132151984515800,8.497515869140624,9.508479118347168,1.6528422832489014,-0.05144568532705307
1683132152002356200,8.515356201171874,10.06002426147461,0.8428717851638794,-0.04666004329919815
1683132152020199400,8.533199462890625,9.46181869506836,1.3459627628326416,0.03170489892363548
1683132152038023700,8.551023681640626,10.071989059448242,1.1593226194381714,-0.1788634955883026
1683132152055875000,8.568875,9.463613510131836,1.4003994464874268,0.27816563844680786
1683132152073717500,8.586717529296875,9.997213363647461,1.4434702396392822,-0.29790642857551575
1683132152091557600,8.6045576171875,9.686145782470703,1.28255295753479,0.4420739710330963
1683132152109397800,8.622397705078125,9.765109062194824,1.4769697189331055,-0.4013960063457489
1683132152127238100,8.640238037109375,9.742975234985352,0.96370929479599,0.24287149310112
1683132152145070600,8.658070556640626,9.503693580627441,1.4620146751403809,-0.24406790733337402
1683132152162919200,8.675919189453126,9.825528144836426,0.8045865893363953,0.10887342691421509
1683132152180759300,8.69375927734375,9.339784622192383,1.7748762369155884,-0.014356935396790504
1683132152198595800,8.711595947265625,9.865009307861328,0.6442674994468689,0.061016976833343506
1683132152216440000,8.729440185546874,9.470791816711426,1.8867406845092773,0.046061836183071136
1683132152234280200,8.7472802734375,10.074381828308105,0.7824530005455017,0.0029910283628851175
1683132152252120300,8.765120361328124,9.507881164550781,1.4470595121383667,-0.06400800496339798
1683132152269961700,8.782961669921875,10.01575756072998,1.0671988725662231,-0.11246266216039658
1683132152287798300,8.80079833984375,9.545567512512207,1.2496516704559326,0.11186445504426956
1683132152305629700,8.818629638671876,9.93978500366211,1.2239288091659546,-0.2667997181415558
1683132152323481000,8.836481201171875,9.449854850769043,1.337587833404541,0.3858426511287689
1683132152341322000,8.854322021484375,9.892526626586914,1.4243277311325073,-0.3756731450557709
1683132152359156500,8.872156494140626,9.713663101196289,1.2346965074539185,0.4205385744571686
1683132152377002500,8.89000244140625,9.501898765563965,1.466800332069397,-0.30568310618400574
1683132152394843000,8.9078427734375,9.721440315246582,0.8356932997703552,0.16151553392410278
1683132152412683300,8.925683349609375,9.4121675491333,1.5966109037399292,-0.13878370821475983
1683132152430523600,8.943523681640626,9.814760208129883,0.7028916478157043,0.07956135272979736
1683132152448358700,8.961358642578125,9.334999084472656,1.9884356260299683,0.05802594870328903
1683132152466188000,8.97918798828125,10.02293586730957,0.6675975322723389,-0.017946170642971992
1683132152484044500,8.99704443359375,9.56650447845459,1.7922241687774658,0.025722842663526535
1683132152501881600,9.014881591796875,10.059426307678223,0.9032905697822571,-0.017946170642971992
1683132152519724800,9.032724853515624,9.522835731506348,1.2717852592468262,-0.04127619042992592
1683132152537565400,9.0505654296875,10.03131103515625,1.201795220375061,-0.18125630915164948
1683132152555409000,9.068408935546875,9.514460563659668,1.2293126583099365,0.21954147517681122
1683132152573248800,9.086248779296875,9.88833999633789,1.3196417093276978,-0.3068794906139374
1683132152591086300,9.10408642578125,9.587442398071289,1.334596872329712,0.4695914387702942
1683132152608924700,9.121924560546875,9.845867156982422,1.4434702396392822,-0.3732803463935852
1683132152626766800,9.139766845703125,9.680164337158203,1.0995019674301147,0.32243284583091736
1683132152644607000,9.15760693359375,9.477372169494629,1.44945228099823,-0.2470589429140091
1683132152662447000,9.175447021484375,9.835697174072266,0.7824530005455017,0.12203395366668701
1683132152680283400,9.193283447265625,9.311071395874023,1.7102699279785156,-0.02751746028661728
1683132152698128100,9.211128173828126,9.93978500366211,0.5904290080070496,0.04666004329919815
1683132152715967200,9.22896728515625,9.483952522277832,1.973480463027954,0.08255238085985184
1683132152733809000,9.246808837890624,10.03549861907959,0.7441678643226624,0.004187439568340778
1683132152751649000,9.26464892578125,9.611370086669922,1.5840486288070679,-0.04785645380616188
1683132152769489200,9.2824892578125,10.074979782104492,1.1168500185012817,-0.08374879509210587
1683132152787329500,9.30032958984375,9.519247055053711,1.160519003868103,0.07238288223743439
1683132152805172200,9.318172119140625,9.957133293151855,1.2077772617340088,-0.2590230405330658
1683132152823010300,9.33601025390625,9.449854850769043,1.2741780281066895,0.3529413342475891
1683132152840850400,9.353850341796875,9.871589660644531,1.4051851034164429,-0.35832518339157104
1683132152858690800,9.37169091796875,9.645467758178711,1.292722463607788,0.4588237404823303
1683132152876529200,9.389529052734375,9.527621269226074,1.430309772491455,-0.32542386651039124
1683132152894371600,9.40737158203125,9.743574142456055,0.9445667266845703,0.19202402234077454
1683132152912211700,9.425211669921875,9.445667266845703,1.4919248819351196,-0.1381855010986328
1683132152930046000,9.4430458984375,9.812965393066406,0.6933203339576721,0.040677983313798904
1683132152947892200,9.460892333984376,9.41037368774414,1.9268203973770142,0.062213387340307236
1683132152965732400,9.478732421875,10.031908988952637,0.582054078578949,-0.005982056725770235
1683132152983573000,9.496572998046876,9.546764373779297,1.8843477964401245,0.0687936544418335
1683132153001404000,9.51440380859375,10.13898754119873,0.924227774143219,-0.04127619042992592
1683132153019253200,9.532253173828124,9.5533447265625,1.2711870670318604,-0.035892341285943985
1683132153037090800,9.5500908203125,10.00857925415039,1.275374412536621,-0.18065811693668365
1683132153054935000,9.56793505859375,9.638887405395508,1.1186445951461792,0.18903298676013947
1683132153072774400,9.5857744140625,9.839884757995605,1.2741780281066895,-0.33798620104789734
1683132153090615000,9.603614990234375,9.451051712036133,1.3226326704025269,0.4211367964744568
1683132153108455000,9.621454833984375,9.733404159545898,1.4333007335662842,-0.3355933725833893
1683132153126296600,9.639296630859375,9.664610862731934,1.2191431522369385,0.36191442608833313
1683132153144136000,9.657135986328125,9.41336441040039,1.4500504732131958,-0.24107688665390015
1683132153161975800,9.674975830078125,9.80100154876709,0.7280163168907166,0.08434699475765228
1683132153179813000,9.692813232421875,9.33858871459961,1.7431713342666626,-0.04666004329919815
1683132153197655000,9.710655029296875,9.944570541381836,0.5778666734695435,0.022133609279990196
1683132153215496400,9.728496337890626,9.520442962646484,2.00518536567688,0.08973085135221481
1683132153233334500,9.74633447265625,10.03131103515625,0.6813562512397766,0
1683132153251172600,9.764172607421875,9.645467758178711,1.6414763927459717,0.014356935396790504
1683132153269016000,9.78201611328125,10.108479499816895,1.1467602252960205,-0.10767702013254166
1683132153286858000,9.79985791015625,9.516854286193848,1.1114661693572998,0.05922235921025276
1683132153304698000,9.817697998046874,9.955936431884766,1.3232308626174927,-0.2877369225025177
1683132153322538800,9.835538818359375,9.619745254516602,1.1491531133651733,0.34995031356811523
1683132153340379000,9.85337890625,9.760921478271484,1.3058829307556152,-0.33379876613616943
1683132153358215400,9.87121533203125,9.609575271606445,1.342971682548523,0.44327038526535034
1683132153376059000,9.889058837890625,9.582656860351562,1.4865410327911377,-0.2883351147174835
1683132153393899800,9.906899658203125,9.605388641357422,1.0295119285583496,0.22911277413368225
1683132153411740200,9.924740234375,9.33141040802002,1.5481562614440918,-0.1537388563156128
1683132153429580000,9.942580078125,9.877572059631348,0.6125625967979431,0.05922235921025276
1683132153447421700,9.960421630859376,9.44028377532959,1.9471594095230103,0.0023928226437419653
1683132153465261000,9.978260986328126,9.988838195800781,0.5694918036460876,0.04007977992296219
1683132153483098000,9.99609814453125,9.626325607299805,1.9860427379608154,0.0933200865983963
1683132153500929500,10.013929443359375,10.122836112976074,0.9696913957595825,-0.017946170642971992
1683132153518782700,10.03178271484375,9.688538551330566,1.3663017749786377,-0.0023928226437419653
1683132153536608300,10.049608154296875,10.064809799194336,1.3776676654815674,-0.20398813486099243
1683132153554462200,10.067462158203124,9.595816612243652,1.0701899528503418,0.1824527233839035
1683132153572286500,10.085286376953125,9.89432144165039,1.2783654928207397,-0.38703906536102295
1683132153590143000,10.10314306640625,9.542576789855957,1.23589289188385,0.41874396800994873
1683132153607983000,10.120983154296875,9.55513858795166,1.3591232299804688,-0.3068794906139374
1683132153625823700,10.13882373046875,9.674779891967773,1.2687941789627075,0.35413774847984314
1683132153643664100,10.1566640625,9.46899700164795,1.5200406312942505,-0.21176479756832123
1683132153661504300,10.174504150390625,9.77707290649414,0.784247636795044,0.10169496387243271
1683132153679341600,10.192341552734375,9.2859468460083,1.6929219961166382,-0.11306086927652359
1683132153697171500,10.21017138671875,10.006186485290527,0.5611169338226318,0.0323031060397625
1683132153715013000,10.22801318359375,9.504291534423828,1.9776679277420044,0.07238288223743439
1683132153732868000,10.2458681640625,10.04985523223877,0.7549355626106262,0.03888336941599846
1683132153750705700,10.26370556640625,9.637093544006348,1.6767704486846924,0.09032905846834183
1683132153768539100,10.2815390625,10.116853713989258,1.2233306169509888,-0.10229317098855972
1683132153786385700,10.2993857421875,9.651450157165527,1.1228320598602295,0.11485548317432404
1683132153804214500,10.317214599609375,9.890732765197754,1.3824533224105835,-0.3481557071208954
1683132153822067000,10.33506689453125,9.729216575622559,1.0671988725662231,0.3451646566390991
1683132153839907000,10.352906982421874,9.674779891967773,1.2340983152389526,-0.40319061279296875
1683132153857746200,10.37074609375,9.604191780090332,1.2041879892349243,0.4049852192401886
1683132153875590700,10.388590576171875,9.415757179260254,1.4949159622192383,-0.23748764395713806
1683132153893428200,10.40642822265625,9.724431037902832,1.0277173519134521,0.1818545162677765
1683132153911268000,10.42426806640625,9.425328254699707,1.6372889280319214,-0.1860419660806656
1683132153929108200,10.442108154296875,9.830911636352539,0.5694918036460876,0.02273181453347206
1683132153946948600,10.459948486328125,9.46899700164795,1.8562321662902832,-0.04127619042992592
1683132153964789200,10.477789306640625,10.053443908691406,0.6209374666213989,0.03768695518374443
1683132153982629400,10.49562939453125,9.595816612243652,1.9543378353118896,0.12801600992679596
1683132154000469500,10.513469482421876,9.994221687316895,1.0666006803512573,-0.03469592705368996
1683132154018304500,10.531304443359375,9.724431037902832,1.4039887189865112,0.11006984114646912
1683132154036147500,10.5491474609375,10.064809799194336,1.4673985242843628,-0.2679961323738098
1683132154053990700,10.56699072265625,9.725028991699219,0.9092726111412048,0.23330020904541016
1683132154071830800,10.584830810546874,9.760323524475098,1.3010972738265991,-0.47258245944976807
1683132154089671400,10.60267138671875,9.707083702087402,1.1180464029312134,0.40259242057800293
1683132154107511000,10.620510986328124,9.470791816711426,1.2951152324676514,-0.2799602448940277
1683132154125354200,10.638354248046875,9.735198974609375,1.1653046607971191,0.28175488114356995
1683132154143191800,10.65619189453125,9.370891571044922,1.6360924243927002,-0.13280165195465088
1683132154161032200,10.6740322265625,9.820143699645996,0.7884350419044495,0.06819544732570648
1683132154178872600,10.69187255859375,9.330811500549316,1.7437695264816284,-0.035892341285943985
1683132154196715800,10.7097158203125,9.914660453796387,0.5473581552505493,0.01615155301988125
1683132154214553000,10.727552978515625,9.569496154785156,1.9411773681640625,0.06939185410737991
1683132154232381700,10.745381591796875,9.967302322387695,0.7998009920120239,0.01734796352684498
1683132154250233600,10.763233642578125,9.600603103637695,1.673181176185608,0.17946170270442963
1683132154268064800,10.781064697265625,10.066006660461426,1.4315061569213867,-0.1746760457754135
1683132154285916200,10.798916259765624,9.660423278808594,1.0546365976333618,0.16091732680797577
1683132154303747800,10.816747802734374,9.888937950134277,1.5553346872329712,-0.4366901218891144
1683132154321595000,10.834594970703124,9.725627899169922,0.9044869542121887,0.3128615617752075
1683132154339430700,10.8524306640625,9.56471061706543,1.2131611108779907,-0.4133601188659668
1683132154357275600,10.870275634765624,9.698110580444336,1.140179991722107,0.3164508044719696
1683132154375118800,10.888118896484375,9.433703422546387,1.4638092517852783,-0.15194423496723175
1683132154392956200,10.9059560546875,9.759725570678711,1.0103694200515747,0.1178465187549591
1683132154410800000,10.923800048828125,9.390034675598145,1.7539390325546265,-0.09810572862625122
1683132154428625000,10.941625,9.908679008483887,0.5748756527900696,-0.017946170642971992
1683132154446476500,10.9594765625,9.487542152404785,1.827518343925476,-0.003589233849197626
1683132154464317200,10.977317138671875,9.920044898986816,0.6215356588363647,0.02632104977965355
1683132154482157300,10.9951572265625,9.470193862915039,1.8460626602172852,0.17228323221206665
1683132154499997700,11.012997802734375,10.052248001098633,1.1982059478759766,-0.10767702013254166
1683132154517837800,11.030837890625,9.653244972229004,1.311864972114563,0.2829512655735016
1683132154535681300,11.048681396484374,10.045069694519043,1.6468602418899536,-0.3487538993358612
1683132154553518600,11.0665185546875,9.77109146118164,0.8297112584114075,0.26979073882102966
1683132154571358700,11.084358642578126,9.732806205749512,1.389631748199463,-0.4713860750198364
1683132154589199400,11.102199462890624,9.787242889404297,1.0289137363433838,0.3194418251514435
1683132154607040300,11.120040283203124,9.422337532043457,1.2891331911087036,-0.22372891008853912
1683132154624880400,11.13788037109375,9.734601020812988,1.0013962984085083,0.19202402234077454
1683132154642719700,11.1557197265625,9.382855415344238,1.770688772201538,-0.03349951654672623
1683132154660555500,11.173555419921875,9.862018585205078,0.7411768436431885,0.037088751792907715
1683132154678401300,11.1914013671875,9.428318977355957,1.7539390325546265,-0.04546362906694412
1683132154696240600,11.20924072265625,9.919445991516113,0.6508477330207825,0.013160524889826775
1683132154714081000,11.2270810546875,9.353543281555176,1.6815561056137085,0.09511470049619675
1683132154731902500,11.24490234375,10.002596855163574,1.0737791061401367,-0.08015955984592438
1683132154749761300,11.26276123046875,9.472586631774902,1.5858432054519653,0.30987054109573364
1683132154767597800,11.280597900390624,10.13898754119873,1.5409778356552124,-0.27756741642951965
1683132154785442300,11.2984423828125,9.844670295715332,1.1180464029312134,0.33080771565437317
1683132154803280600,11.31628076171875,9.803394317626953,1.552343726158142,-0.48574298620224
1683132154821127200,11.334127197265625,9.80219841003418,0.8434699773788452,0.17946170270442963
1683132154838966000,11.351966064453125,9.582656860351562,1.342971682548523,-0.3314059376716614
1683132154856804400,11.369804443359374,9.79801082611084,0.8763712644577026,0.1657029688358307
1683132154874645000,11.38764501953125,9.332008361816406,1.6325032711029053,-0.038285162299871445
1683132154892483600,11.405483642578124,9.848259925842285,0.8129615187644958,0.07417750358581543
1683132154910326000,11.423325927734375,9.399007797241211,1.7312071323394775,-0.01615155301988125
1683132154928161500,11.44116162109375,9.897911071777344,0.6562315821647644,0.017946170642971992
1683132154946003500,11.45900341796875,9.390632629394531,1.521835207939148,0.006580262444913387
1683132154963848000,11.476847900390625,9.969097137451172,0.9798609018325806,-0.014955141581594944
1683132154981680400,11.494680419921876,9.454042434692383,1.5828521251678467,0.2554338276386261
1683132154999525000,11.512525146484375,10.067203521728516,1.3519448041915894,-0.2069791555404663
1683132155017365800,11.53036572265625,9.67777156829834,1.322034478187561,0.38285163044929504
1683132155035208700,11.548208740234376,9.950552940368652,1.5314065217971802,-0.4175475537776947
1683132155053046300,11.56604638671875,9.807581901550293,1.0055837631225586,0.27038896083831787
1683132155070886400,11.583886474609375,9.603593826293945,1.3603196144104004,-0.4013960063457489
1683132155088723200,11.60172314453125,9.835099220275879,0.914058268070221,0.18484555184841156
1683132155106565600,11.619565673828125,9.339784622192383,1.5074782371520996,-0.16031911969184875
1683132155124407300,11.6374072265625,9.80219841003418,0.7423732280731201,0.05802594870328903
1683132155142247700,11.65524755859375,9.409774780273438,1.8335003852844238,0.06640082597732544
1683132155160087600,11.673087646484374,9.846465110778809,0.7328019142150879,0.047258246690034866
1683132155177929500,11.690929443359375,9.490532875061035,1.6761722564697266,-0.05742774158716202
1683132155195768600,11.7087685546875,9.973882675170898,0.7734799385070801,-0.0005982056609354913
1683132155213608700,11.726608642578125,9.400203704833984,1.4476577043533325,0.037088751792907715
1683132155231430400,11.744430419921875,10.03729248046875,1.1102696657180786,-0.14476576447486877
1683132155249288700,11.762288818359375,9.479166984558105,1.4943177700042725,0.32183465361595154
1683132155267129000,11.780129150390625,10.054640769958496,1.466800332069397,-0.2709871530532837
1683132155284970500,11.797970458984375,9.825528144836426,1.2011969089508057,0.397208571434021
1683132155302813000,11.81581298828125,9.815957069396973,1.511067509651184,-0.43190449476242065
1683132155320653000,11.833653076171874,9.77408218383789,0.8656035661697388,0.21415762603282928
1683132155338492700,11.85149267578125,9.533005714416504,1.425524115562439,-0.3038884699344635
1683132155356329500,11.86932958984375,9.77109146118164,0.893121063709259,0.17946170270442963
1683132155374171100,11.887171142578126,9.279964447021484,1.6558332443237305,-0.03469592705368996
1683132155392011500,11.905011474609376,9.875179290771484,0.7639086246490479,0.053240302950143814
1683132155409851400,11.922851318359376,9.561120986938477,1.8340985774993896,0.015553346835076809
1683132155427690500,11.9406904296875,9.953543663024902,0.6598208546638489,-0.0077766734175384045
1683132155445533000,11.958532958984375,9.461220741271973,1.5463616847991943,-0.05383851006627083
1683132155463372300,11.976372314453124,10.063015937805176,1.0097711086273193,-0.04007977992296219
1683132155481212400,11.99421240234375,9.400801658630371,1.4632110595703125,0.18065811693668365
1683132155499052500,12.012052490234375,9.930811882019043,1.262213945388794,-0.19920247793197632
1683132155516893000,12.029892822265625,9.620343208312988,1.3645070791244507,0.4001995921134949
1683132155534733000,12.047733154296875,10.031908988952637,1.4991034269332886,-0.3888336718082428
1683132155552573400,12.065573486328125,9.79083251953125,1.036690354347229,0.32721850275993347
1683132155570413600,12.08341357421875,9.67657470703125,1.4679967164993286,-0.34636107087135315
1683132155588250400,12.10125048828125,9.844072341918945,0.8715856671333313,0.1866401731967926
1683132155606093300,12.11909326171875,9.482755661010742,1.5152549743652344,-0.12741780281066895
1683132155623934500,12.1369345703125,9.745966911315918,0.7668996453285217,0.1052841991186142
1683132155641774800,12.15477490234375,9.378668785095215,1.8951154947280884,0.06819544732570648
1683132155659615000,12.172614990234376,9.978668212890625,0.7489534616470337,0.005982056725770235
1683132155677454000,12.1904541015625,9.580862045288086,1.740180253982544,-0.006580262444913387
1683132155695295700,12.208295654296874,10.05823040008545,0.8482556343078613,-0.03290131315588951
1683132155713124900,12.226124755859376,9.522835731506348,1.3070793151855469,-0.019740786403417587
1683132155730964000,12.2439638671875,9.952347755432129,1.155733346939087,-0.18364913761615753
1683132155748804900,12.261804931640626,9.490532875061035,1.3070793151855469,0.2715853750705719
1683132155766656300,12.27965625,9.91825008392334,1.441077470779419,-0.3026920557022095
1683132155784497000,12.297496826171875,9.675976753234863,1.2759727239608765,0.4546363055706024
1683132155802326800,12.315326904296874,9.771689414978027,1.430309772491455,-0.381655216217041
1683132155820177200,12.33317724609375,9.771689414978027,0.99481600522995,0.2392822653055191
1683132155838013400,12.351013427734374,9.42353343963623,1.454836130142212,-0.2350948303937912
1683132155855858000,12.36885791015625,9.846465110778809,0.7890332937240601,0.07597211748361588
1683132155873698600,12.386698486328125,9.374481201171875,1.8137595653533936,-0.001794616924598813
1683132155891538700,12.40453857421875,9.929018020629883,0.6161518096923828,0.038285162299871445
1683132155909382400,12.42238232421875,9.429515838623047,1.9417755603790283,0.07238288223743439
1683132155927218700,12.44021875,10.05284595489502,0.786640465259552,-0.02392822690308094
1683132155945062100,12.458062255859375,9.589237213134766,1.4291132688522339,-0.04187439754605293
1683132155962895000,12.47589501953125,10.072587013244629,1.1335997581481934,-0.1423729509115219
1683132155980739800,12.49373974609375,9.531808853149414,1.1431710720062256,0.08853443711996078
1683132155998572300,12.511572265625,9.916455268859863,1.2664014101028442,-0.28953152894973755
1683132156016420000,12.529420166015624,9.519845008850098,1.3124631643295288,0.37507495284080505
1683132156034258400,12.547258544921876,9.817750930786133,1.415354609489441,-0.3475574851036072
1683132156052100600,12.5651005859375,9.681360244750977,1.2699905633926392,0.4169493317604065
1683132156069934800,12.582934814453125,9.635298728942871,1.4315061569213867,-0.3026920557022095
1683132156087778000,12.600778076171874,9.836296081542969,0.8745766878128052,0.1704886108636856
1683132156105621500,12.61862158203125,9.381659507751465,1.5792629718780518,-0.09451649338006973
1683132156123461600,12.636461669921875,9.923633575439453,0.6346961855888367,0.04546362906694412
1683132156141304800,12.654304931640626,9.442676544189453,1.9902302026748657,0.1010967567563057
1683132156159142100,12.67214208984375,9.982257843017578,0.5892325639724731,0.0005982056609354913
1683132156176982300,12.689982177734375,9.57487964630127,1.80717933177948,0.031106693670153618
1683132156194822700,12.70782275390625,10.076175689697266,0.9720842242240906,-0.04127619042992592
1683132156212662800,12.725662841796876,9.525228500366211,1.2215359210968018,-0.006580262444913387
1683132156230503200,12.743503173828126,10.020543098449707,1.236491084098816,-0.19800607860088348
1683132156248334800,12.7613349609375,9.564111709594727,1.1724830865859985,0.22193430364131927
1683132156266183700,12.77918359375,9.88833999633789,1.3256237506866455,-0.2991028428077698
1683132156284023800,12.79702392578125,9.574281692504883,1.34476637840271,0.44327038526535034
1683132156301857800,12.81485791015625,9.764511108398438,1.435693621635437,-0.36251261830329895
1683132156319698400,12.832698486328125,9.64965534210205,1.181456208229065,0.3397808074951172
1683132156337544400,12.85054443359375,9.436694145202637,1.4518451690673828,-0.1908276081085205
1683132156355384800,12.868384765625,9.811769485473633,0.760917603969574,0.10408778488636017
1683132156373225200,12.88622509765625,9.361918449401855,1.8149559497833252,-0.013160524889826775
1683132156391061000,12.90406103515625,9.981060981750488,0.5413761138916016,0.014356935396790504
1683132156408905200,12.9219052734375,9.482157707214355,2.038684844970703,0.10348957777023315
1683132156426743000,12.939742919921875,10.113265037536621,0.7280163168907166,-0.03349951654672623
1683132156444589300,12.95758935546875,9.626325607299805,1.6007983684539795,-0.015553346835076809
1683132156462424300,12.97542431640625,10.072587013244629,1.170688509941101,-0.11006984114646912
1683132156480266200,12.993266357421875,9.564111709594727,1.073180913925171,0.03888336941599846
1683132156498106600,13.011106689453126,9.981659889221191,1.3070793151855469,-0.2919243574142456
1683132156515944400,13.0289443359375,9.518648147583008,1.2394821643829346,0.33918261528015137
1683132156533784000,13.0467841796875,9.79801082611084,1.3537393808364868,-0.33858439326286316
1683132156551627500,13.06462744140625,9.686744689941406,1.3561322689056396,0.4743770956993103
1683132156569467400,13.08246728515625,9.582656860351562,1.412961721420288,-0.32243284583091736
1683132156587309000,13.10030908203125,9.730413436889648,0.9984052777290344,0.22073788940906525
1683132156605151500,13.1181513671875,9.379864692687988,1.5284154415130615,-0.13519448041915894
1683132156622988300,13.13598828125,9.854242324829102,0.6711867451667786,0.04785645380616188
1683132156640824000,13.153823974609375,9.33021354675293,1.937588095664978,0.07178468257188797
1683132156658668800,13.171668701171875,10.00439167022705,0.5467599630355835,-0.02273181453347206
1683132156676509000,13.189509033203125,9.593423843383789,1.9112670421600342,0.05383851006627083
1683132156694349300,13.207349365234375,10.079765319824219,0.9337990283966064,-0.050847481936216354
1683132156712184800,13.225184814453126,9.600004196166992,1.2837493419647217,-0.040677983313798904
1683132156730029600,13.243029541015625,10.090533256530762,1.2891331911087036,-0.16091732680797577
1683132156747870000,13.260869873046875,9.606584548950195,1.042074203491211,0.17647066712379456
1683132156765710000,13.2787099609375,9.927223205566406,1.272383451461792,-0.3200400173664093
1683132156783550500,13.296550537109376,9.598209381103516,1.323829174041748,0.41156548261642456
1683132156801388500,13.314388427734375,9.705288887023926,1.412961721420288,-0.37148571014404297
1683132156819219000,13.332218994140625,9.657432556152344,1.2658032178878784,0.3595215976238251
1683132156837069800,13.35006982421875,9.504291534423828,1.4775680303573608,-0.23030917346477509
1683132156854912300,13.367912353515624,9.750154495239258,0.7680960893630981,0.11904292553663254
1683132156872754400,13.38575439453125,9.395418167114258,1.6983058452606201,-0.07238288223743439
1683132156890592000,13.403592041015624,9.960722923278809,0.5443671345710754,0.004187439568340778
1683132156908434700,13.4214345703125,9.363713264465332,1.999801516532898,0.09032905846834183
1683132156926275300,13.439275390625,10.094720840454102,0.7070791125297546,0.0029910283628851175
1683132156944115500,13.457115478515625,9.69093132019043,1.6432709693908691,0.02392822690308094
1683132156961946400,13.4749462890625,10.103095054626465,1.1623135805130005,-0.08015955984592438
1683132156979792400,13.49279248046875,9.594620704650879,1.0719845294952393,0.049651071429252625
1683132156997630500,13.51063037109375,9.973284721374512,1.3046865463256836,-0.2841476798057556
1683132157015462100,13.528462158203125,9.632905960083008,1.1084750890731812,0.30568310618400574
1683132157033313000,13.54631298828125,9.750752449035645,1.277767300605774,-0.3798605799674988
1683132157051154000,13.56415380859375,9.637093544006348,1.3657035827636719,0.45104706287384033
1683132157068993500,13.58199365234375,9.525228500366211,1.4685949087142944,-0.28235307335853577
1683132157086833200,13.599833251953125,9.629914283752441,1.0390832424163818,0.24227328598499298
1683132157104674600,13.617674560546876,9.366106033325195,1.5254244804382324,-0.16869398951530457
1683132157122514400,13.635514404296876,9.855438232421875,0.5910272002220154,0.03768695518374443
1683132157140354800,13.653354736328126,9.388239860534668,1.9250258207321167,-0.0011964113218709826
1683132157158190600,13.671190673828125,9.994221687316895,0.5670989751815796,0.02632104977965355
1683132157176034300,13.689034423828126,9.519247055053711,1.9507486820220947,0.10289137065410614
1683132157193875500,13.70687548828125,10.091131210327148,0.9720842242240906,-0.015553346835076809
1683132157211715600,13.724715576171874,9.647860527038574,1.3854442834854126,-0.008973085321485996
1683132157229555700,13.7425556640625,10.13599681854248,1.3459627628326416,-0.20937198400497437
1683132157247395800,13.760395751953125,9.693324089050293,0.9978070259094238,0.16151553392410278
1683132157265236500,13.778236572265625,9.806385040283203,1.2789636850357056,-0.3924229145050049
1683132157283065000,13.796065185546874,9.585647583007812,1.211964726448059,0.42293140292167664
1683132157300916700,13.813916748046875,9.628718376159668,1.2813565731048584,-0.3044866919517517
1683132157318745900,13.831745849609375,9.628718376159668,1.2747762203216553,0.380458801984787
1683132157336598500,13.8495986328125,9.40917682647705,1.5152549743652344,-0.22851456701755524
1683132157354437600,13.867437744140625,9.783055305480957,0.8141579031944275,0.1178465187549591
1683132157372277800,13.88527783203125,9.333803176879883,1.7216359376907349,-0.11306086927652359
1683132157390106600,13.903106689453125,9.949356079101562,0.544965386390686,0.020338991656899452
1683132157407954000,13.920953857421875,9.446864128112793,1.9800606966018677,0.08135596662759781
1683132157425801000,13.938801025390624,10.005587577819824,0.7441678643226624,0.062213387340307236
1683132157443643000,13.956642822265625,9.686145782470703,1.7252250909805298,0.07956135272979736
1683132157461475600,13.9744755859375,10.125228881835938,1.2759727239608765,-0.09990034252405167
1683132157479313200,13.992313232421875,9.592825889587402,1.1222338676452637,0.09212367236614227
1683132157497160000,14.010159912109375,9.919445991516113,1.3806586265563965,-0.3475574851036072
1683132157515000300,14.028000244140625,9.776474952697754,1.0396814346313477,0.3068794906139374
1683132157532839700,14.045839599609375,9.632905960083008,1.2095718383789062,-0.3924229145050049
1683132157550679800,14.0636796875,9.617352485656738,1.189831018447876,0.4049852192401886
1683132157568519400,14.08151953125,9.54377269744873,1.4787644147872925,-0.2021935135126114
1683132157586360000,14.099360107421875,9.644271850585938,1.0857433080673218,0.2386840581893921
1683132157604200200,14.1172001953125,9.255437850952148,1.5708880424499512,-0.1746760457754135
1683132157622040600,14.13504052734375,9.916455268859863,0.5994020700454712,0.0323031060397625
1683132157639880400,14.15288037109375,9.470193862915039,1.8634105920791626,-0.01375873014330864
1683132157657721300,14.170721435546875,9.960124015808105,0.5778666734695435,0.064606212079525
1683132157675562500,14.1885625,9.518050193786621,1.94297194480896,0.13100704550743103
1683132157693401300,14.2064013671875,10.091729164123535,1.0815558433532715,-0.031106693670153618
1683132157711241700,14.22424169921875,9.716654777526855,1.4506487846374512,0.12382857501506805
1683132157729070600,14.242070556640625,10.075577735900879,1.542174220085144,-0.267397940158844
1683132157746910500,14.259910400390625,9.738189697265625,0.9050851464271545,0.20997019112110138
1683132157764750000,14.27775,9.804591178894043,1.3369896411895752,-0.4713860750198364
1683132157782609400,14.295609375,9.759127616882324,1.0444670915603638,0.3930211067199707
1683132157800430600,14.3134306640625,9.476774215698242,1.2687941789627075,-0.3068794906139374
1683132157818279000,14.33127880859375,9.719645500183105,1.194616675376892,0.2919243574142456
1683132157836108000,14.34910791015625,9.340981483459473,1.591825246810913,-0.12263216078281403
1683132157853963000,14.366962890625,9.812965393066406,0.8147560954093933,0.06340979784727097
1683132157871803400,14.384803466796875,9.393623352050781,1.7826528549194336,-0.03529413416981697
1683132157889643500,14.4026435546875,9.885947227478027,0.5216353535652161,0.026919255033135414
1683132157907486700,14.42048681640625,9.517452239990234,1.913659930229187,0.08554340898990631
1683132157925327000,14.4383271484375,9.943374633789062,0.802193820476532,-0.006580262444913387
1683132157943164400,14.456164306640625,9.57487964630127,1.6857435703277588,0.17108681797981262
1683132157961007600,14.474007568359376,10.179067611694336,1.4159528017044067,-0.18544375896453857
1683132157978844200,14.49184423828125,9.68375301361084,1.0205388069152832,0.21655045449733734
1683132157996688000,14.50968798828125,10.02413272857666,1.576870083808899,-0.40797626972198486
1683132158014525000,14.52752490234375,9.829715728759766,0.8679963946342468,0.29850462079048157
1683132158032365300,14.545365234375,9.613164901733398,1.2490534782409668,-0.364905446767807
1683132158050200600,14.56320068359375,9.744172096252441,1.0941181182861328,0.34695929288864136
1683132158068045600,14.581045654296876,9.385847091674805,1.4871392250061035,-0.129810631275177
1683132158085885700,14.5988857421875,9.812965393066406,0.9762716293334961,0.10348957777023315
1683132158103726000,14.61672607421875,9.397810935974121,1.7784653902053833,-0.05563312768936157
1683132158121561300,14.634561279296875,9.876375198364258,0.6011967062950134,-0.016749758273363113
1683132158139406300,14.65240625,9.45045280456543,1.7527425289154053,-0.026919255033135414
1683132158157246500,14.67024658203125,9.930213928222656,0.7543373107910156,-0.04486542567610741
1683132158175087400,14.68808740234375,9.360123634338379,1.7838492393493652,0.19980068504810333
1683132158192926700,14.7059267578125,10.036096572875977,1.2945170402526855,-0.1339980661869049
1683132158210760200,14.72376025390625,9.6466646194458,1.290927767753601,0.3278166949748993
1683132158228607200,14.741607177734375,10.005587577819824,1.594218134880066,-0.3696911036968231
1683132158246448600,14.75944873046875,9.818349838256836,0.867398202419281,0.2476571500301361
1683132158264282600,14.77728271484375,9.664012908935547,1.3639088869094849,-0.45284169912338257
1683132158282127400,14.79512744140625,9.832108497619629,0.9158528447151184,0.2063809484243393
1683132158299968000,14.812968017578125,9.426525115966797,1.389033555984497,-0.17347964644432068
1683132158317809400,14.830809326171876,9.80937671661377,0.867398202419281,0.12382857501506805
1683132158335648300,14.848648193359375,9.394820213317871,1.7886348962783813,0.0011964113218709826
1683132158353488400,14.86648828125,9.874580383300781,0.7411768436431885,0.04247260093688965
1683132158371324200,14.88432421875,9.478569030761719,1.6498512029647827,-0.0526420995593071
1683132158389166300,14.902166259765625,9.951150894165039,0.8225327730178833,0.02273181453347206
1683132158407009000,14.920009033203126,9.44028377532959,1.490728497505188,0.11545369029045105
1683132158424850700,14.9378505859375,10.036096572875977,1.1539387702941895,-0.12801600992679596
1683132158442689800,14.955689697265624,9.53061294555664,1.445863127708435,0.3278166949748993
1683132158460529700,14.97352978515625,10.073782920837402,1.46500563621521,-0.33080771565437317
1683132158478355700,14.991355712890625,9.7998046875,1.1413763761520386,0.3517449200153351
1683132158496208600,15.009208740234374,9.750154495239258,1.4500504732131958,-0.39122650027275085
1683132158514047200,15.027047119140626,9.790233612060547,0.8626125454902649,0.18783657252788544
1683132158531890400,15.044890380859375,9.45763111114502,1.4488540887832642,-0.2548356056213379
1683132158549729800,15.062729736328125,9.714262008666992,0.849452018737793,0.1579262912273407
1683132158567571700,15.08057177734375,9.29731273651123,1.7856439352035522,0.025722842663526535
1683132158585411300,15.098411376953125,9.831509590148926,0.7471588850021362,0.06281159073114395
1683132158603251000,15.1162509765625,9.588040351867676,1.7826528549194336,-0.014356935396790504
1683132158621091300,15.13409130859375,10.02413272857666,0.7154539823532104,-0.004187439568340778
1683132158638932500,15.151932373046876,9.426525115966797,1.4261223077774048,-0.06819544732570648
1683132158656771600,15.169771484375,10.098309516906738,1.033101201057434,-0.09571290761232376
1683132158674611700,15.18761181640625,9.455238342285156,1.466800332069397,0.2063809484243393
1683132158692452400,15.205452392578126,9.946365356445312,1.3196417093276978,-0.2309073805809021
1683132158710292200,15.223292236328126,9.647262573242188,1.272383451461792,0.40677985548973083
1683132158728132900,15.2411328125,9.976275444030762,1.506281852722168,-0.3720839321613312
1683132158745971500,15.258971435546876,9.757332801818848,1.0163514614105225,0.27696922421455383
1683132158763812600,15.2768125,9.562915802001953,1.412961721420288,-0.2991028428077698
1683132158781642000,15.29464208984375,9.76989459991455,0.8871390223503113,0.1657029688358307
1683132158799492900,15.312492919921874,9.32722282409668,1.612762451171875,-0.05922235921025276
1683132158817325000,15.330324951171875,9.862616539001465,0.7160521745681763,0.11246266216039658
1683132158835173000,15.348173095703125,9.4390869140625,1.9172492027282715,0.0891326442360878
1683132158853013500,15.366013427734375,9.944570541381836,0.7597211599349976,-0.0023928226437419653
1683132158870854100,15.383854248046875,9.5533447265625,1.6408780813217163,-0.07657032459974289
1683132158888685800,15.401685791015625,10.065408706665039,0.9170492887496948,-0.06999006122350693
1683132158906534000,15.419533935546875,9.469595909118652,1.2867404222488403,0.050847481936216354
1683132158924374300,15.437374267578125,10.03131103515625,1.1826525926589966,-0.19561325013637543
1683132158942214700,15.455214599609375,9.524630546569824,1.3884353637695312,0.33858439326286316
1683132158960054800,15.4730546875,9.863214492797852,1.4386845827102661,-0.32961133122444153
1683132158977895000,15.49089501953125,9.716055870056152,1.2526426315307617,0.43549370765686035
1683132158995735300,15.5087353515625,9.768099784851074,1.4817553758621216,-0.373878538608551
1683132159013575200,15.5265751953125,9.738189697265625,0.908674418926239,0.20877377688884735
1683132159031412500,15.54441259765625,9.463613510131836,1.4889339208602905,-0.22971096634864807
1683132159049254000,15.56225390625,9.878170013427734,0.755533754825592,0.09272187948226929
1683132159067092500,15.580092529296875,9.355937004089355,1.7670994997024536,0.04905286431312561
1683132159084936700,15.597936767578124,9.938589096069336,0.664606511592865,0.02871387079358101
1683132159102776000,15.615776123046874,9.629914283752441,1.856830358505249,0.046061836183071136
1683132159120616200,15.6336162109375,10.032506942749023,0.8015955686569214,-0.023330021649599075
1683132159138450200,15.6514501953125,9.489934921264648,1.4021940231323242,-0.07597211748361588
1683132159156293400,15.66929345703125,10.043274879455566,1.088136076927185,-0.09451649338006973
1683132159174136300,15.68713623046875,9.509675025939941,1.3142578601837158,0.17168502509593964
1683132159191977000,15.70497705078125,9.908679008483887,1.2604193687438965,-0.25722843408584595
1683132159209816800,15.72281689453125,9.57487964630127,1.3537393808364868,0.4097708761692047
1683132159227657000,15.740656982421875,9.838089942932129,1.456630825996399,-0.36729827523231506
1683132159245497000,15.7584970703125,9.672985076904297,1.1665010452270508,0.3774677813053131
1683132159263337500,15.77633740234375,9.577272415161133,1.472184181213379,-0.3128615617752075
1683132159281177600,15.794177490234375,9.792028427124023,0.8871390223503113,0.15194423496723175
1683132159299017500,15.812017578125,9.352945327758789,1.594218134880066,-0.11126625537872314
1683132159316857600,15.829857666015625,9.923633575439453,0.7022934556007385,0.048454657196998596
1683132159334698000,15.847697998046876,9.385847091674805,1.9543378353118896,0.07357929646968842
1683132159352538000,15.8655380859375,10.046265602111816,0.7046862840652466,0.008374879136681557
1683132159370375200,15.883375244140625,9.590433120727539,1.7419748306274414,-0.03888336941599846
1683132159388214800,15.90121484375,10.134202003479004,0.9104689955711365,-0.05802594870328903
1683132159406059000,15.91905908203125,9.554540634155273,1.2675977945327759,-0.03349951654672623
1683132159423899000,15.93689892578125,9.977472305297852,1.174277663230896,-0.1860419660806656
1683132159441738800,15.95473876953125,9.493523597717285,1.275374412536621,0.24466611444950104
1683132159459573200,15.9725732421875,9.90149974822998,1.3627125024795532,-0.31106695532798767
1683132159477419000,15.9904189453125,9.593423843383789,1.2819547653198242,0.4504488706588745
1683132159495259600,16.008259765625,9.748957633972168,1.4267204999923706,-0.3840480446815491
1683132159513104000,16.026103759765626,9.64367389678955,1.1096714735031128,0.29371899366378784
1683132159530939600,16.043939697265625,9.4390869140625,1.4087743759155273,-0.24167509377002716
1683132159548779500,16.061779541015625,9.876974105834961,0.7932206988334656,0.09870393574237823
1683132159566620000,16.079619873046877,9.367302894592285,1.7413766384124756,-0.01136590726673603
1683132159584456000,16.0974560546875,9.979267120361328,0.6083751320838928,0.07357929646968842
1683132159602300700,16.11530078125,9.565906524658203,1.9878374338150024,0.10169496387243271
1683132159620141000,16.13314111328125,10.076774597167969,0.7639086246490479,0.015553346835076809
1683132159637980700,16.150980712890625,9.624530792236328,1.536790370941162,-0.03529413416981697
1683132159655822300,16.168822265625,10.086943626403809,1.124626636505127,-0.1010967567563057
1683132159673661000,16.186660888671874,9.542576789855957,1.1820544004440308,0.08793623000383377
1683132159691501600,16.20450146484375,9.92961597442627,1.2269197702407837,-0.2757728099822998
1683132159709341200,16.222341064453126,9.446864128112793,1.292722463607788,0.372682124376297
1683132159727179800,16.2401796875,9.827920913696289,1.4051851034164429,-0.3433700501918793
1683132159745010000,16.258010009765623,9.683155059814453,1.3070793151855469,0.46480581164360046
1683132159762851300,16.275851318359376,9.53360366821289,1.428515076637268,-0.3152543902397156
1683132159780700200,16.2937001953125,9.762118339538574,0.9092726111412048,0.18305093050003052
1683132159798542000,16.3115419921875,9.437891006469727,1.542174220085144,-0.12203395366668701
1683132159816381700,16.329381591796874,9.879964828491211,0.6759724020957947,0.06281159073114395
1683132159834222000,16.34722216796875,9.404989242553711,1.9872392416000366,0.07477571070194244
1683132159852062200,16.365062255859375,10.000802040100098,0.5838487148284912,0.012562318705022335
1683132159869905400,16.382905517578124,9.69631576538086,1.8693926334381104,0.05024927482008934
1683132159887739600,16.40073974609375,10.068997383117676,0.9421738982200623,-0.03290131315588951
1683132159905583000,16.4185830078125,9.535996437072754,1.2388839721679688,-0.02273181453347206
1683132159923423200,16.43642333984375,10.039087295532227,1.2658032178878784,-0.17587246000766754
1683132159941263000,16.45426318359375,9.589237213134766,1.1018948554992676,0.20877377688884735
1683132159959103200,16.472103271484375,9.796216011047363,1.3124631643295288,-0.3248256742954254
1683132159976946200,16.4899462890625,9.521639823913574,1.3471591472625732,0.43908295035362244
1683132159994780700,16.50778076171875,9.632308006286621,1.4159528017044067,-0.3601198196411133
1683132160012620500,16.52562060546875,9.717850685119629,1.1832507848739624,0.29730820655822754
1683132160030463700,16.543463623046875,9.395418167114258,1.4745769500732422,-0.22911277413368225
1683132160048301800,16.5613017578125,9.839286804199219,0.7280163168907166,0.08075776696205139
1683132160066141200,16.57914111328125,9.380462646484375,1.784447431564331,-0.03290131315588951
1683132160083983600,16.596983642578124,9.970891952514648,0.550349235534668,0.04426721855998039
1683132160101819600,16.614819580078127,9.503094673156738,2.0033907890319824,0.0891326442360878
1683132160119669000,16.6326689453125,10.101899147033691,0.7148557901382446,0.0005982056609354913
1683132160137504800,16.6505048828125,9.674779891967773,1.591825246810913,0.024526432156562805
1683132160155345200,16.66834521484375,10.078569412231445,1.2269197702407837,-0.09212367236614227
1683132160173185000,16.68618505859375,9.626923561096191,1.079761266708374,0.07477571070194244
1683132160191025200,16.704025146484376,9.910472869873047,1.308275818824768,-0.3026920557022095
1683132160208865000,16.721864990234376,9.558130264282227,1.2239288091659546,0.33918261528015137
1683132160226704100,16.7397041015625,9.735796928405762,1.3226326704025269,-0.35832518339157104
1683132160244545500,16.757545654296877,9.617352485656738,1.337587833404541,0.45583271980285645
1683132160262385700,16.7753857421875,9.549755096435547,1.454237937927246,-0.3158525824546814
1683132160280225800,16.793225830078125,9.750154495239258,0.9834501147270203,0.18005990982055664
1683132160298067200,16.811067138671874,9.337990760803223,1.5445669889450073,-0.16151553392410278
1683132160315906300,16.82890625,9.89970588684082,0.615553617477417,0.03768695518374443
1683132160333746200,16.84674609375,9.42054271697998,1.8993029594421387,0.02871387079358101
1683132160351586300,16.86458642578125,9.978668212890625,0.5802595019340515,0.04187439754605293
1683132160369426200,16.88242626953125,9.64965534210205,1.8903298377990723,0.08973085135221481
1683132160387266600,16.9002666015625,10.183255195617676,1.01814603805542,-0.019740786403417587
1683132160405110000,16.918110107421874,9.698708534240723,1.292722463607788,0.008973085321485996
1683132160422946800,16.93594677734375,10.058828353881836,1.347757339477539,-0.21415762603282928
1683132160440787000,16.953786865234374,9.650253295898438,0.9978070259094238,0.20099709928035736
1683132160458627000,16.971626953125,9.872786521911621,1.2472587823867798,-0.380458801984787
1683132160476466400,16.989466552734374,9.538389205932617,1.2681959867477417,0.4295116662979126
1683132160494298000,17.007298095703124,9.554540634155273,1.32921302318573,-0.3439682424068451
1683132160512133600,17.025133544921875,9.678967475891113,1.2478569746017456,0.3128615617752075
1683132160529987000,17.042987060546874,9.409774780273438,1.4817553758621216,-0.21774685382843018
1683132160547826700,17.06082666015625,9.79681396484375,0.7184450030326843,0.07597211748361588
1683132160565664800,17.078664794921874,9.364909172058105,1.7168502807617188,-0.09272187948226929
1683132160583505200,17.096505126953126,10.003793716430664,0.5730810165405273,0.04247260093688965
1683132160601348000,17.11434814453125,9.525228500366211,2.001596212387085,0.07178468257188797
1683132160619188000,17.13218798828125,10.055238723754883,0.7244270443916321,0.04007977992296219
1683132160637028400,17.1500283203125,9.696913719177246,1.6773686408996582,0.059820566326379776
1683132160654869800,17.167869873046875,10.142577171325684,1.1910275220870972,-0.11605189740657806
1683132160672708600,17.18570849609375,9.639486312866211,1.1228320598602295,0.0729810893535614
1683132160690548700,17.203548828125,9.870393753051758,1.3453645706176758,-0.28594231605529785
1683132160708394800,17.221394775390625,9.658628463745117,1.0737791061401367,0.32183465361595154
1683132160726229000,17.23922900390625,9.67777156829834,1.2610175609588623,-0.39960137009620667
1683132160744069000,17.257069091796875,9.617950439453125,1.3106685876846313,0.4223332107067108
1683132160761909200,17.2749091796875,9.448060035705566,1.4632110595703125,-0.23988047242164612
1683132160779749000,17.2927490234375,9.726823806762695,1.0773683786392212,0.22372891008853912
1683132160797588000,17.310587890625,9.387042999267578,1.5906288623809814,-0.1663011759519577
1683132160815429600,17.3284296875,9.89432144165039,0.5659025311470032,0.030508488416671753
1683132160833269800,17.346269775390624,9.41755199432373,1.908276081085205,-0.02751746028661728
1683132160851112700,17.36411279296875,10.049257278442383,0.5718846321105957,0.05802594870328903
1683132160868944000,17.38194384765625,9.53779125213623,1.9160526990890503,0.11964113265275955
1683132160886785300,17.399785400390623,10.06421184539795,1.0001999139785767,0.01375873014330864
1683132160904630300,17.41763037109375,9.717252731323242,1.4165509939193726,0.05383851006627083
1683132160922470400,17.435470458984376,10.058828353881836,1.3680963516235352,-0.22791635990142822
1683132160940310500,17.453310546875,9.707681655883789,0.9595218896865845,0.19142581522464752
1683132160958152400,17.47115234375,9.779465675354004,1.277767300605774,-0.43908295035362244
1683132160975989800,17.48898974609375,9.673583984375,1.129412293434143,0.4055834412574768
1683132160993831200,17.5068310546875,9.507881164550781,1.332802176475525,-0.2949153780937195
1683132161011675100,17.524675048828126,9.68076229095459,1.222732424736023,0.3164508044719696
1683132161029511200,17.54251123046875,9.461220741271973,1.5996019840240479,-0.1663011759519577
1683132161047348200,17.56034814453125,9.797411918640137,0.8099704384803772,0.0933200865983963
1683132161065193000,17.57819287109375,9.32004451751709,1.7527425289154053,-0.08673982322216034
1683132161083028200,17.5960283203125,9.973284721374512,0.544965386390686,0.04307080805301666
1683132161100871400,17.613871337890625,9.508479118347168,1.963310956954956,0.05144568532705307
1683132161118705700,17.63170556640625,9.955936431884766,0.7579265832901001,0.017946170642971992
1683132161136551700,17.6495517578125,9.635896682739258,1.695314884185791,0.13459627330303192
1683132161154391800,17.667391845703126,10.070194244384766,1.3663017749786377,-0.13220344483852386
1683132161172232200,17.685232177734374,9.684351921081543,1.1252248287200928,0.12023933976888657
1683132161190068200,17.703068115234377,9.967302322387695,1.4787644147872925,-0.3888336718082428
1683132161207912400,17.720912353515626,9.781859397888184,0.9122636318206787,0.2632105052471161
1683132161225752300,17.73875244140625,9.652647018432617,1.2197413444519043,-0.4175475537776947
1683132161243592400,17.756592529296874,9.661619186401367,1.1389836072921753,0.3451646566390991
1683132161261432600,17.7744326171875,9.445069313049316,1.470389485359192,-0.20458634197711945
1683132161279272400,17.7922724609375,9.727422714233398,1.0564311742782593,0.16091732680797577
1683132161297112300,17.8101123046875,9.298508644104004,1.6468602418899536,-0.08315058797597885
1683132161314953500,17.827953369140626,9.881160736083984,0.5593222975730896,0
1683132161332789800,17.845789794921874,9.509675025939941,1.8801604509353638,0.01615155301988125
1683132161350633000,17.863633056640627,9.951749801635742,0.5670989751815796,0.05024927482008934
1683132161368472800,17.881472900390627,9.562317848205566,1.947757601737976,0.15194423496723175
1683132161386303500,17.899303466796876,9.93978500366211,1.1353943347930908,-0.05024927482008934
1683132161404153300,17.9171533203125,9.69631576538086,1.3471591472625732,0.20997019112110138
1683132161421993500,17.934993408203123,10.107880592346191,1.6408780813217163,-0.29371899366378784
1683132161439827700,17.95282763671875,9.657432556152344,0.8356932997703552,0.22971096634864807
1683132161457673500,17.970673583984375,9.790233612060547,1.3962119817733765,-0.45284169912338257
1683132161475513900,17.988513916015624,9.806385040283203,1.0534402132034302,0.37447673082351685
1683132161493357000,18.006357177734376,9.426525115966797,1.2502498626708984,-0.24047867953777313
1683132161511189200,18.024189208984374,9.708877563476562,1.0803594589233398,0.2309073805809021
1683132161529022000,18.04202197265625,9.419944763183594,1.7288143634796143,-0.04127619042992592
1683132161546874000,18.0598740234375,9.877572059631348,0.7734799385070801,0.012562318705022335
1683132161564711000,18.0777109375,9.520442962646484,1.7796618938446045,-0.09152546525001526
1683132161582554400,18.095554443359376,9.91286563873291,0.5748756527900696,-0.03469592705368996
1683132161600400000,18.11339990234375,9.370293617248535,1.7718851566314697,0.06939185410737991
1683132161618234000,18.131234130859376,9.952347755432129,0.9296116232872009,-0.04666004329919815
1683132161636078300,18.149078369140625,9.461220741271973,1.6037893295288086,0.27756741642951965
1683132161653914600,18.16691455078125,10.098309516906738,1.567897081375122,-0.2386840581893921
1683132161671754800,18.184754638671876,9.78126049041748,1.0845468044281006,0.2757728099822998
1683132161689595100,18.20259521484375,9.858428955078125,1.5553346872329712,-0.4588237404823303
1683132161707436300,18.220436279296877,9.865009307861328,0.8602197170257568,0.2189432680606842
1683132161725275100,18.238275146484376,9.595816612243652,1.3441680669784546,-0.3188436031341553
1683132161743112400,18.256112548828124,9.744172096252441,0.924227774143219,0.20039889216423035
1683132161760943900,18.27394384765625,9.334999084472656,1.618146300315857,-0.04187439754605293
1683132161778786800,18.291786865234375,9.842875480651855,0.8225327730178833,0.058624155819416046
1683132161796624100,18.3096240234375,9.572486877441406,1.7856439352035522,-0.038285162299871445
1683132161814475800,18.327475830078125,9.882357597351074,0.6550351977348328,0.004785645287483931
1683132161832311000,18.34531103515625,9.384650230407715,1.5278172492980957,-0.035892341285943985
1683132161850156000,18.363156005859373,9.986445426940918,0.9912267923355103,-0.04247260093688965
1683132161867996000,18.380995849609373,9.430712699890137,1.5900306701660156,0.2584248483181
1683132161885836000,18.3988359375,9.960124015808105,1.374078392982483,-0.19740787148475647
1683132161903676200,18.41667626953125,9.731011390686035,1.3417752981185913,0.38644084334373474
1683132161921516000,18.43451611328125,9.929018020629883,1.5248262882232666,-0.3966103494167328
1683132161939356200,18.452356201171874,9.830911636352539,0.9954141974449158,0.25363919138908386
1683132161957195300,18.4701953125,9.589835166931152,1.4087743759155273,-0.3690928816795349
1683132161975037700,18.48803759765625,9.81535816192627,0.9056833982467651,0.19740787148475647
1683132161992879600,18.505879638671875,9.410971641540527,1.5702898502349854,-0.09451649338006973
1683132162010705200,18.523705078125,9.780662536621094,0.7226324677467346,0.07417750358581543
1683132162028557800,18.541557861328126,9.453444480895996,1.8711873292922974,0.04426721855998039
1683132162046396700,18.559396728515626,10.001998901367188,0.7310073375701904,-0.0005982056609354913
1683132162064236800,18.57723681640625,9.491728782653809,1.5828521251678467,-0.07417750358581543
1683132162082072300,18.595072265625,10.056435585021973,0.8871390223503113,-0.025722842663526535
1683132162099902200,18.612902099609375,9.456435203552246,1.3692927360534668,0.05503492057323456
1683132162117757000,18.6307568359375,9.957133293151855,1.1772687435150146,-0.1950150430202484
1683132162135592000,18.648592041015625,9.491130828857422,1.4081761837005615,0.32662028074264526
1683132162153437400,18.6664375,9.930213928222656,1.4727823734283447,-0.31345975399017334
1683132162171277600,18.684277587890627,9.714859962463379,1.1635099649429321,0.389431893825531
1683132162189117700,18.70211767578125,9.738788604736328,1.4536397457122803,-0.38344982266426086
1683132162206956800,18.719956787109375,9.834501266479492,0.9332008361816406,0.19381862878799438
1683132162224798000,18.7377978515625,9.411569595336914,1.4590235948562622,-0.21176479756832123
1683132162242637800,18.755637939453123,9.827920913696289,0.8249256014823914,0.08015955984592438
1683132162260475000,18.773474853515626,9.290133476257324,1.8532410860061646,0.04127619042992592
1683132162278312400,18.7913125,9.942776679992676,0.6041877269744873,-0.0011964113218709826
1683132162296155600,18.80915576171875,9.629316329956055,1.8610178232192993,0.029910283163189888
1683132162313998300,18.826998291015624,10.01456069946289,0.7968099117279053,-0.017946170642971992
1683132162331838200,18.844838134765624,9.482755661010742,1.3214362859725952,-0.0568295381963253
1683132162349678000,18.862677978515624,10.033703804016113,1.1820544004440308,-0.13100704550743103
1683132162367518500,18.8805185546875,9.485747337341309,1.1910275220870972,0.16271193325519562
1683132162385358600,18.898358642578124,9.927223205566406,1.3046865463256836,-0.28235307335853577
1683132162403198700,18.91619873046875,9.579665184020996,1.332203984260559,0.4055834412574768
1683132162421038800,18.934038818359376,9.827920913696289,1.441077470779419,-0.3326023519039154
1683132162438879000,18.95187890625,9.640682220458984,1.1300104856491089,0.3595215976238251
1683132162456718800,18.96971875,9.519845008850098,1.4590235948562622,-0.2512463629245758
1683132162474559000,18.98755908203125,9.857831001281738,0.8027920126914978,0.1094716340303421
1683132162492399400,19.0053994140625,9.409774780273438,1.7078771591186523,-0.0323031060397625
1683132162510239200,19.0232392578125,9.90568733215332,0.6209374666213989,0.050847481936216354
1683132162528077800,19.041077880859376,9.394820213317871,2.028515338897705,0.12203395366668701
1683132162545920300,19.058920166015625,10.089935302734375,0.6837490797042847,-0.005383851006627083
1683132162563753700,19.076753662109375,9.539586067199707,1.6648063659667969,-0.039481572806835175
1683132162581599200,19.09459912109375,10.028918266296387,1.0235298871994019,-0.06640082597732544
1683132162599433700,19.112433837890624,9.55753231048584,1.1353943347930908,0.017946170642971992
1683132162617279500,19.130279541015625,9.934401512145996,1.287936806678772,-0.20458634197711945
1683132162635119400,19.148119384765625,9.574281692504883,1.231107234954834,0.2955136001110077
1683132162652960000,19.1659599609375,9.847063064575195,1.3716856241226196,-0.30568310618400574
1683132162670800100,19.183800048828125,9.613762855529785,1.332802176475525,0.4624129831790924
1683132162688629500,19.20162939453125,9.705886840820312,1.4488540887832642,-0.33499518036842346
1683132162706482400,19.219482421875,9.758528709411621,1.0301101207733154,0.2554338276386261
1683132162724320300,19.2373203125,9.400801658630371,1.495514154434204,-0.1657029688358307
1683132162742163200,19.2551630859375,9.91705322265625,0.7172485589981079,0.06340979784727097
1683132162760000000,19.273,9.368498802185059,1.8616160154342651,0.04127619042992592
1683132162777840600,19.290840576171874,9.934999465942383,0.5892325639724731,0.022133609279990196
1683132162795681000,19.308680908203126,9.600004196166992,1.9357935190200806,0.07956135272979736
1683132162813523500,19.3265234375,10.063015937805176,0.8261220455169678,-0.018544375896453857
1683132162831360800,19.34436083984375,9.552745819091797,1.40279221534729,-0.06340979784727097
1683132162849194500,19.362194580078125,10.084550857543945,1.1808580160140991,-0.14895321428775787
1683132162867040800,19.380040771484374,9.553942680358887,1.1084750890731812,0.09631111472845078
1683132162884881700,19.397881591796875,9.950552940368652,1.2580264806747437,-0.2871387302875519
1683132162902721000,19.415720947265626,9.497113227844238,1.3100703954696655,0.39062830805778503
1683132162920556300,19.433556396484374,9.749555587768555,1.4105689525604248,-0.34636107087135315
1683132162938401000,19.451401123046875,9.69511890411377,1.316650629043579,0.4378865361213684
1683132162956242000,19.469241943359375,9.513862609863281,1.4315061569213867,-0.2709871530532837
1683132162974081300,19.487081298828127,9.773484230041504,0.8709874153137207,0.1579262912273407
1683132162991921700,19.504921630859375,9.411569595336914,1.6456637382507324,-0.06580262631177902
1683132163009758500,19.522758544921874,9.860821723937988,0.5730810165405273,0.014955141581594944
1683132163027601400,19.540601318359375,9.387641906738281,2.014756679534912,0.0933200865983963
1683132163045442600,19.558442626953124,10.073782920837402,0.5856433510780334,-0.01136590726673603
1683132163063284700,19.57628466796875,9.65384292602539,1.7838492393493652,0.039481572806835175
1683132163081121500,19.59412158203125,10.078569412231445,1.0319048166275024,-0.07238288223743439
1683132163098961700,19.611961669921875,9.570094108581543,1.1527422666549683,0.004785645287483931
1683132163116791000,19.629791015625,10.001998901367188,1.301695466041565,-0.21176479756832123
1683132163134630400,19.64763037109375,9.612566947937012,1.1210373640060425,0.25064817070961
1683132163152482000,19.66548193359375,9.803394317626953,1.293320655822754,-0.33379876613616943
1683132163170320100,19.683320068359375,9.555737495422363,1.3399807214736938,0.4372883439064026
1683132163188158500,19.701158447265627,9.605388641357422,1.4177473783493042,-0.32183465361595154
1683132163206004200,19.719004150390624,9.695717811584473,1.1335997581481934,0.2847459018230438
1683132163223842300,19.73684228515625,9.387042999267578,1.470389485359192,-0.17647066712379456
1683132163241680600,19.7546806640625,9.812965393066406,0.7046862840652466,0.07896314561367035
1683132163259521500,19.772521484375,9.401998519897461,1.8406788110733032,-0.012562318705022335
1683132163277362400,19.790362548828124,9.968499183654785,0.5509474277496338,0.06161518394947052
1683132163295202800,19.808202880859376,9.558130264282227,2.021935224533081,0.1178465187549591
1683132163313042700,19.826042724609376,10.071390151977539,0.7878368496894836,-0.018544375896453857
1683132163330882600,19.843882568359376,9.661619186401367,1.536790370941162,-0.0077766734175384045
1683132163348722400,19.861722412109376,10.16171932220459,1.2424731254577637,-0.129810631275177
1683132163366563800,19.879563720703125,9.555737495422363,1.059422254562378,0.10289137065410614
1683132163384403000,19.89740283203125,9.89970588684082,1.3058829307556152,-0.33020952343940735
1683132163402242800,19.915242919921877,9.5862455368042,1.2161520719528198,0.3852444589138031
1683132163420083000,19.9330830078125,9.671191215515137,1.3196417093276978,-0.3475574851036072
1683132163437924000,19.950924072265625,9.592227935791016,1.3286148309707642,0.41096729040145874
1683132163455763000,19.968762939453125,9.52941608428955,1.490728497505188,-0.24825534224510193
1683132163473600300,19.986600341796876,9.786046028137207,0.9092726111412048,0.15314064919948578
1683132163491438800,20.00443896484375,9.31047248840332,1.6133606433868408,-0.14297115802764893
1683132163509283000,20.022282958984373,9.902098655700684,0.6065805554389954,0.04187439754605293
1683132163527123200,20.040123291015625,9.510871887207031,1.9770697355270386,0.02153540402650833
1683132163544964400,20.05796435546875,10.030712127685547,0.6173482537269592,0.04666004329919815
1683132163562803500,20.075803466796874,9.561718940734863,1.8113667964935303,0.05503492057323456
1683132163580633900,20.0936337890625,10.211968421936035,1.0606186389923096,-0.07597211748361588
1683132163598471700,20.1114716796875,9.638887405395508,1.2430713176727295,0.01375873014330864
1683132163616322600,20.129322509765625,9.942177772521973,1.3160524368286133,-0.25304099917411804
1683132163634162200,20.147162109375,9.716654777526855,1.0139585733413696,0.24586252868175507
1683132163652003800,20.16500390625,9.759127616882324,1.2711870670318604,-0.40797626972198486
1683132163669844700,20.1828447265625,9.512666702270508,1.2640085220336914,0.4462614357471466
1683132163687682300,20.200682373046874,9.504291534423828,1.4452649354934692,-0.2566302418708801
1683132163705528000,20.218528076171875,9.684351921081543,1.1982059478759766,0.2805584669113159
1683132163723364400,20.2363642578125,9.369695663452148,1.5667005777359009,-0.2105683982372284
1683132163741207000,20.25420703125,9.881160736083984,0.6957131624221802,0.0526420995593071
1683132163759031000,20.272031005859375,9.399007797241211,1.7407784461975098,-0.0849452018737793
1683132163776872400,20.28987255859375,9.997213363647461,0.5934200286865234,0.04546362906694412
1683132163794713000,20.307713134765624,9.54197883605957,1.9812572002410889,0.0891326442360878
1683132163812564700,20.325564697265627,10.049257278442383,0.8614161610603333,0.039481572806835175
1683132163830404600,20.343404541015627,9.690333366394043,1.6193426847457886,0.11066804826259613
1683132163848240600,20.36124072265625,10.088738441467285,1.311864972114563,-0.17527425289154053
1683132163866083300,20.379083251953126,9.65503978729248,1.0432707071304321,0.13459627330303192
1683132163883925000,20.396925048828123,9.802796363830566,1.3070793151855469,-0.37447673082351685
1683132163901764600,20.4147646484375,9.741779327392578,1.058824062347412,0.3762713670730591
1683132163919604700,20.432604736328123,9.618548393249512,1.2287144660949707,-0.3517449200153351
1683132163937443600,20.450443603515627,9.624530792236328,1.200000524520874,0.373878538608551
1683132163955285000,20.468284912109375,9.462417602539062,1.555932879447937,-0.18125630915164948
1683132163973113600,20.486113525390625,9.776474952697754,0.9726824164390564,0.16271193325519562
1683132163990965000,20.503965087890624,9.349356651306152,1.6755740642547607,-0.11126625537872314
1683132164008806100,20.52180615234375,9.919445991516113,0.5515456199645996,0.020338991656899452
1683132164026645200,20.539645263671876,9.509675025939941,1.8747764825820923,0
1683132164044485000,20.557485107421876,9.92124080657959,0.6364908218383789,0.05024927482008934
1683132164062325200,20.5753251953125,9.618548393249512,1.8729819059371948,0.14775680005550385
1683132164080165000,20.5931650390625,10.047462463378906,1.1491531133651733,-0.09092725813388824
1683132164098005200,20.611005126953124,9.689735412597656,1.2891331911087036,0.10229317098855972
1683132164115827500,20.628827392578124,9.976874351501465,1.5140584707260132,-0.32183465361595154
1683132164133685200,20.646685302734376,9.720243453979492,0.8614161610603333,0.24526432156562805
1683132164151514400,20.664514404296874,9.755537986755371,1.2598211765289307,-0.45104706287384033
1683132164169365500,20.682365478515624,9.670592308044434,1.1282159090042114,0.38703906536102295
1683132164187206000,20.700205810546876,9.399605751037598,1.3304094076156616,-0.22432711720466614
1683132164205044700,20.718044677734376,9.754341125488281,1.1359925270080566,0.20398813486099243
1683132164222888700,20.735888671875,9.377471923828125,1.6839489936828613,-0.10827522724866867
1683132164240728300,20.753728271484373,9.826126098632812,0.6687939167022705,0.019740786403417587
1683132164258558500,20.771558349609375,9.464810371398926,1.8562321662902832,-0.014955141581594944
1683132164276403200,20.7894033203125,9.910472869873047,0.5377869009971619,0.029312077909708023
1683132164294246000,20.807245849609377,9.452247619628906,1.9441684484481812,0.12382857501506805
1683132164312084000,20.825083984375,9.923633575439453,0.9858429431915283,-0.014955141581594944
1683132164329926000,20.84292578125,9.600004196166992,1.557727575302124,0.19262222945690155
1683132164347764700,20.8607646484375,10.153943061828613,1.4865410327911377,-0.2566302418708801
1683132164365606400,20.8786064453125,9.685547828674316,0.9810572862625122,0.2350948303937912
1683132164383446500,20.896446533203125,9.887741088867188,1.5385849475860596,-0.42771705985069275
1683132164401286100,20.9142861328125,9.836296081542969,0.924227774143219,0.34995031356811523
1683132164419126300,20.932126220703125,9.473184585571289,1.2430713176727295,-0.34576287865638733
1683132164436966400,20.94996630859375,9.78245735168457,1.109073281288147,0.25304099917411804
1683132164454806500,20.967806640625,9.366106033325195,1.545763373374939,-0.09152546525001526
1683132164472647200,20.985647216796874,9.8207426071167,0.9314061999320984,0.05802594870328903
1683132164490487000,21.003487060546874,9.427123069763184,1.7988044023513794,-0.11246266216039658
1683132164508322300,21.021322265625,9.857233047485352,0.5395814776420593,-0.04905286431312561
1683132164526169300,21.03916943359375,9.384650230407715,1.771286964416504,-0.0364905446767807
1683132164544007000,21.0570068359375,9.926624298095703,0.8057830333709717,-0.04905286431312561
1683132164561847000,21.074846923828126,9.428318977355957,1.7198412418365479,0.23210379481315613
1683132164579681000,21.092680908203125,10.028319358825684,1.3639088869094849,-0.16091732680797577
1683132164597526800,21.11052685546875,9.755537986755371,1.210768222808838,0.31764721870422363
1683132164615367000,21.128366943359374,9.970293998718262,1.6002001762390137,-0.39122650027275085
1683132164633207000,21.14620703125,9.799206733703613,0.8835497498512268,0.24406790733337402
1683132164651035000,21.164034912109376,9.58325481414795,1.3262219429016113,-0.4307080805301666
1683132164668887300,21.18188720703125,9.7998046875,0.9451649188995361,0.2632105052471161
1683132164686729700,21.199729736328123,9.448060035705566,1.4835500717163086,-0.0891326442360878
1683132164704567600,21.217567626953127,9.778867721557617,0.8386843204498291,0.11605189740657806
1683132164722407400,21.235407470703127,9.516255378723145,1.789831280708313,-0.020937198773026466
1683132164740247600,21.25324755859375,9.872187614440918,0.7286145091056824,0.04127619042992592
1683132164758090500,21.271090576171876,9.418149948120117,1.643869161605835,-0.04247260093688965
1683132164775927800,21.288927734375,9.926026344299316,0.784247636795044,0.0029910283628851175
1683132164793768000,21.306767822265623,9.446864128112793,1.6348960399627686,0.17108681797981262
1683132164811607600,21.324607666015623,9.865608215332031,1.1527422666549683,-0.10229317098855972
1683132164829447400,21.342447509765623,9.588040351867676,1.4656038284301758,0.3320041298866272
1683132164847288800,21.360288818359376,10.134202003479004,1.5720844268798828,-0.33379876613616943
1683132164865128200,21.378128173828124,9.764511108398438,1.0737791061401367,0.3170489966869354
1683132164882968300,21.39596826171875,9.728618621826172,1.4757733345031738,-0.4468596279621124
1683132164900803000,21.413802978515626,9.908080101013184,0.893121063709259,0.20997019112110138
1683132164918636500,21.431636474609373,9.381659507751465,1.4464613199234009,-0.22612173855304718
1683132164936488000,21.449488037109376,9.806385040283203,0.8273184299468994,0.13998012244701385
1683132164954328000,21.467328125,9.33320426940918,1.800000786781311,0.038285162299871445
1683132164972168200,21.485168212890624,9.871589660644531,0.7926225066184998,0.04366901144385338
1683132164989996800,21.502996826171874,9.501898765563965,1.7252250909805298,-0.010169495828449726
1683132165007848200,21.52084814453125,9.978070259094238,0.7447660565376282,-0.008973085321485996
1683132165025688600,21.5386884765625,9.452247619628906,1.4584254026412964,-0.03768695518374443
1683132165043528200,21.556528076171876,9.943374633789062,1.0151549577713013,-0.09272187948226929
1683132165061368300,21.574368408203124,9.46181869506836,1.573280930519104,0.2632105052471161
1683132165079191000,21.59219091796875,10.009177207946777,1.3304094076156616,-0.22133609652519226
1683132165097049600,21.610049560546877,9.731011390686035,1.3357932567596436,0.4013960063457489
1683132165114889200,21.62788916015625,9.92243766784668,1.5050854682922363,-0.4211367964744568
1683132165132728600,21.645728515625,9.820143699645996,0.9559326171875,0.24825534224510193
1683132165150557200,21.66355712890625,9.625727653503418,1.3764712810516357,-0.3481557071208954
1683132165168409600,21.68140966796875,9.829116821289062,0.9152546525001526,0.19680966436862946
1683132165186249500,21.69924951171875,9.2859468460083,1.5146567821502686,-0.1333998590707779
1683132165204088800,21.7170888671875,9.881759643554688,0.7567301392555237,0.06281159073114395
1683132165221927200,21.73492724609375,9.42054271697998,1.8681962490081787,0.062213387340307236
1683132165239771400,21.752771484375,9.89133071899414,0.7286145091056824,0.022133609279990196
1683132165257609000,21.77060888671875,9.513862609863281,1.6163517236709595,-0.06041877344250679
1683132165275446800,21.78844677734375,9.970293998718262,0.8841479420661926,-0.050847481936216354
1683132165293289000,21.8062890625,9.437891006469727,1.4087743759155273,0.04366901144385338
1683132165311128000,21.824128173828125,10.001998901367188,1.1234302520751953,-0.19381862878799438
1683132165328969000,21.841968994140625,9.491130828857422,1.451246976852417,0.3361915946006775
1683132165346808000,21.85980810546875,9.94397258758545,1.46500563621521,-0.2679961323738098
1683132165364649200,21.877649169921874,9.802796363830566,1.164108157157898,0.4013960063457489
1683132165382489000,21.895489013671874,9.79083251953125,1.5080764293670654,-0.3858426511287689
1683132165400329200,21.9133291015625,9.780662536621094,0.8823533654212952,0.19322042167186737
1683132165418167300,21.931167236328125,9.453444480895996,1.4656038284301758,-0.24466611444950104
1683132165436008400,21.949008544921874,9.845269203186035,0.8446664214134216,0.12741780281066895
1683132165453849300,21.966849365234374,9.32004451751709,1.7581263780593872,0.02871387079358101
1683132165471692500,21.984692626953127,9.863214492797852,0.727418065071106,0.05383851006627083
1683132165489529600,22.002529541015626,9.56650447845459,1.851446509361267,-0.004187439568340778
1683132165507370800,22.020370849609375,10.026525497436523,0.7387840151786804,-0.02751746028661728
1683132165525213000,22.038212890625,9.498908042907715,1.414756417274475,-0.10169496387243271
1683132165543049700,22.0560498046875,10.03549861907959,1.0660024881362915,-0.1052841991186142
1683132165560889600,22.0738896484375,9.418149948120117,1.3232308626174927,0.15074782073497772
1683132165578718000,22.091718017578124,9.89551830291748,1.2855439186096191,-0.23748764395713806
1683132165596573000,22.109572998046875,9.555737495422363,1.3262219429016113,0.40677985548973083
1683132165614398200,22.127398193359376,9.89432144165039,1.4464613199234009,-0.39062830805778503
1683132165632250000,22.14525,9.716654777526855,1.1030912399291992,0.35114672780036926
1683132165650083600,22.16308349609375,9.592227935791016,1.439282774925232,-0.30209386348724365
1683132165667929000,22.18092919921875,9.806983947753906,0.8189435601234436,0.12502498924732208
1683132165685773300,22.198773193359376,9.305686950683594,1.5966109037399292,-0.08434699475765228
1683132165703610400,22.2166103515625,9.939187049865723,0.6400800347328186,0.03349951654672623
1683132165721453000,22.234453125,9.468399047851562,1.9004993438720703,0.08973085135221481
1683132165739290000,22.2522900390625,9.957731246948242,0.7190431952476501,0.0364905446767807
1683132165757133300,22.27013330078125,9.562317848205566,1.6558332443237305,-0.037088751792907715
1683132165774956800,22.287956787109376,10.063613891601562,0.9595218896865845,-0.06520441919565201
1683132165792799700,22.3057998046875,9.442078590393066,1.205384373664856,0.008973085321485996
1683132165810642200,22.32364208984375,9.946365356445312,1.191625714302063,-0.2231307178735733
1683132165828477200,22.341477294921877,9.542576789855957,1.2855439186096191,0.2632105052471161
1683132165846330600,22.35933056640625,9.851848602294922,1.4087743759155273,-0.3242274820804596
1683132165864167700,22.377167724609375,9.570094108581543,1.3028919696807861,0.4618147611618042
1683132165882010600,22.3950107421875,9.65384292602539,1.430309772491455,-0.3601198196411133
1683132165899850200,22.412850341796876,9.77109146118164,1.01814603805542,0.22552353143692017
1683132165917689300,22.430689453125,9.448060035705566,1.4739787578582764,-0.1782652884721756
1683132165935530800,22.44853076171875,9.886545181274414,0.7082754969596863,0.06161518394947052
1683132165953371000,22.466370849609376,9.416953086853027,1.8370895385742188,0.035892341285943985
1683132165971211000,22.4842109375,10.009177207946777,0.5988038778305054,0.016749758273363113
1683132165989045200,22.502045166015623,9.468399047851562,1.922034740447998,0.09152546525001526
1683132166006890800,22.519890869140625,10.100702285766602,0.8458628058433533,-0.008973085321485996
1683132166024731000,22.53773095703125,9.58205795288086,1.3914263248443604,-0.02871387079358101
1683132166042571000,22.555571044921876,10.051051139831543,1.215553879737854,-0.13100704550743103
1683132166060411100,22.5734111328125,9.5862455368042,1.095314621925354,0.09810572862625122
1683132166078247400,22.591247314453124,9.839884757995605,1.2442678213119507,-0.2949153780937195
1683132166096085800,22.609085693359376,9.472586631774902,1.2891331911087036,0.37507495284080505
1683132166113931000,22.626930908203125,9.729815483093262,1.3914263248443604,-0.357128769159317
1683132166131771100,22.644771240234373,9.642477035522461,1.319043517112732,0.4265206456184387
1683132166149611300,22.662611328125,9.543174743652344,1.4470595121383667,-0.2907279431819916
1683132166167451100,22.680451171875,9.814162254333496,0.8488538265228271,0.1256231814622879
1683132166185292500,22.69829248046875,9.325428009033203,1.6552350521087646,-0.06939185410737991
1683132166203131600,22.716131591796874,9.954740524291992,0.5946164131164551,0.035892341285943985
1683132166220971500,22.733971435546874,9.434301376342773,2.0243279933929443,0.10588239878416061
