time,seconds_elapsed,z,y,x
1683140835506021400,0.126021484375,1.0978460311889648,-4.183690071105957,0.902665376663208
1683140835523868700,0.14386865234375,1.100637435913086,-4.198095321655273,0.9092906713485718
1683140835541708000,0.1617080078125,1.0547866821289062,-4.141616344451904,0.8870648145675659
1683140835559547000,0.179546875,1.0571374893188477,-4.196292877197266,0.9594448208808899
1683140835577385000,0.197385009765625,1.0770998001098633,-4.174628734588623,0.8852445483207703
1683140835595225900,0.215225830078125,1.1496696472167969,-4.210229873657227,0.9305229187011719
1683140835613064000,0.23306396484375,1.0543489456176758,-4.203811168670654,0.8568486571311951
1683140835630902800,0.25090283203125,1.1202507019042969,-4.208635330200195,0.854707658290863
1683140835648742100,0.2687421875,1.0916204452514648,-4.177279472351074,0.9269218444824219
1683140835666581000,0.2865810546875,1.0260801315307617,-4.1843390464782715,0.8967143297195435
1683140835684417300,0.304417236328125,1.0835771560668945,-4.15275764465332,0.9061017036437988
1683140835702261800,0.32226171875,1.0378618240356445,-4.17120885848999,0.9440175294876099
1683140835720098000,0.34009814453125,1.0900039672851562,-4.210737705230713,0.9107875823974609
1683140835737929700,0.3579296875,1.0942096710205078,-4.177565097808838,0.8819122910499573
1683140835755764200,0.37576416015625,1.0590620040893555,-4.204082489013672,0.8418009281158447
1683140835773611300,0.393611328125,1.0621223449707031,-4.166071891784668,0.9563668370246887
1683140835791454000,0.411453857421875,1.045166015625,-4.167601585388184,0.8607776761054993
1683140835809293000,0.42929296875,1.0643672943115234,-4.138912677764893,0.9454624652862549
1683140835827129300,0.44712939453125,1.0339937210083008,-4.18800163269043,0.9520259499549866
1683140835844973800,0.464973876953125,1.1122856140136719,-4.176248550415039,0.8963433504104614
1683140835862798300,0.48279833984375,1.1673355102539062,-4.206593990325928,0.8553123474121094
1683140835880649200,0.500649169921875,1.0630664825439453,-4.198368072509766,0.8450198173522949
1683140835898485500,0.518485595703125,1.1217708587646484,-4.210762977600098,0.9149649143218994
1683140835916327200,0.5363271484375,1.0601673126220703,-4.135970115661621,0.8552271127700806
1683140835934166300,0.554166259765625,1.0281448364257812,-4.181213855743408,0.9625508785247803
1683140835952005400,0.57200537109375,1.0819025039672852,-4.1586785316467285,0.9047509431838989
1683140835969840600,0.589840576171875,1.0474987030029297,-4.171513080596924,0.9460532665252686
1683140835987687200,0.607687255859375,1.0893478393554688,-4.209870338439941,0.867255687713623
1683140836005522200,0.625522216796875,1.0572786331176758,-4.175858974456787,0.8950347304344177
1683140836023361300,0.643361328125,1.0649223327636719,-4.165118217468262,0.8763585090637207
1683140836041182700,0.6611826171875,1.0579347610473633,-4.147985935211182,0.9127216935157776
1683140836059040000,0.6790400390625,1.0385322570800781,-4.151987552642822,0.9052876830101013
1683140836076878300,0.69687841796875,1.0913457870483398,-4.149663925170898,0.9353554844856262
1683140836094717700,0.7147177734375,1.016672134399414,-4.178647041320801,0.9268981218338013
1683140836112556500,0.732556640625,1.1015195846557617,-4.168636322021484,0.8907869458198547
1683140836130391800,0.750391845703125,1.115675926208496,-4.189550399780273,0.8648955821990967
1683140836148238600,0.768238525390625,1.0220575332641602,-4.145618438720703,0.9130418300628662
1683140836166073600,0.786073486328125,1.1416082382202148,-4.18796968460083,0.8682178258895874
1683140836183913200,0.803913330078125,1.087472915649414,-4.114375114440918,0.880673885345459
1683140836201740300,0.821740234375,1.1080408096313477,-4.185248374938965,0.9405974745750427
1683140836219591200,0.839591064453125,1.0517501831054688,-4.160591125488281,0.881065845489502
1683140836237427200,0.85742724609375,1.0581274032592773,-4.17943000793457,0.8888648152351379
1683140836255271700,0.875271728515625,1.081216812133789,-4.1889238357543945,0.8720607161521912
1683140836273108000,0.89310791015625,1.022573471069336,-4.171660423278809,0.9315550327301025
1683140836290946800,0.91094677734375,1.0962409973144531,-4.149886131286621,0.8516305088996887
1683140836308774100,0.928774169921875,1.0408735275268555,-4.130343437194824,0.9089406132698059
1683140836326625000,0.946625,1.0668706893920898,-4.131915092468262,0.9346361756324768
1683140836344464400,0.96446435546875,1.0527639389038086,-4.13772439956665,0.9149113893508911
1683140836362298600,0.982298583984375,1.0046005249023438,-4.187240123748779,0.8757908344268799
1683140836380142600,1.000142578125,1.1110172271728516,-4.149585723876953,0.8961536288261414
1683140836397981700,1.017981689453125,1.0564994812011719,-4.159379482269287,0.8495416641235352
1683140836415820300,1.0358203125,1.0491104125976562,-4.114724636077881,0.9401242733001709
1683140836433659400,1.053659423828125,1.0705575942993164,-4.149494171142578,0.8592856526374817
1683140836451498800,1.071498779296875,1.0595855712890625,-4.0982136726379395,0.913521409034729
1683140836469337600,1.089337646484375,1.0880374908447266,-4.1591997146606445,0.9655611515045166
1683140836487180300,1.10718017578125,1.052093505859375,-4.1448750495910645,0.8511332273483276
1683140836505015800,1.125015869140625,1.1299505233764648,-4.166536331176758,0.8569346070289612
1683140836522854000,1.14285400390625,1.088155746459961,-4.164379596710205,0.8626942038536072
1683140836540694500,1.160694580078125,1.0136642456054688,-4.150148391723633,0.9066450595855713
1683140836558532600,1.17853271484375,1.0544424057006836,-4.107968807220459,0.8552202582359314
1683140836576372000,1.1963720703125,1.0005016326904297,-4.119070529937744,0.9399549961090088
1683140836594210800,1.2142109375,1.059417724609375,-4.131820201873779,0.898984432220459
1683140836612038400,1.232038330078125,1.0164909362792969,-4.127488136291504,0.9210718870162964
1683140836629889300,1.24988916015625,1.0104742050170898,-4.1607160568237305,0.8616034388542175
1683140836647726600,1.2677265625,1.0845918655395508,-4.122183799743652,0.8891136050224304
1683140836665568800,1.28556884765625,1.0218486785888672,-4.1310858726501465,0.8528866171836853
1683140836683406000,1.303406005859375,1.0511503219604492,-4.098399639129639,0.902596116065979
1683140836701245700,1.32124560546875,1.0088396072387695,-4.121438980102539,0.9177391529083252
1683140836719068700,1.339068603515625,1.0628271102905273,-4.103203296661377,0.9119516611099243
1683140836736923600,1.356923583984375,1.0528955459594727,-4.139957427978516,0.9184989333152771
1683140836754759700,1.374759765625,1.012451171875,-4.122281074523926,0.8654823303222656
1683140836772604400,1.3926044921875,1.116257667541504,-4.1407880783081055,0.8476065993309021
1683140836790441000,1.41044091796875,1.0323295593261719,-4.087447166442871,0.8854028582572937
1683140836808279800,1.42827978515625,1.0680351257324219,-4.129989147186279,0.8813014030456543
1683140836826119000,1.446118896484375,1.0542182922363281,-4.073925971984863,0.8380303978919983
1683140836843942100,1.463942138671875,1.0201911926269531,-4.114296913146973,0.9411221146583557
1683140836861794000,1.4817939453125,1.03790283203125,-4.1262006759643555,0.8929527997970581
1683140836879635700,1.4996357421875,0.968501091003418,-4.115222930908203,0.8907527923583984
1683140836897475000,1.51747509765625,1.0157442092895508,-4.117688179016113,0.865748941898346
1683140836915314400,1.535314453125,1.0390348434448242,-4.089728355407715,0.9012014865875244
1683140836933153500,1.553153564453125,1.0185680389404297,-4.077142715454102,0.8767668604850769
1683140836950976500,1.5709765625,1.0105199813842773,-4.0650200843811035,0.8721796870231628
1683140836968831500,1.58883154296875,0.9688987731933594,-4.0862507820129395,0.9358838200569153
1683140836986671000,1.606671142578125,1.057063102722168,-4.078795909881592,0.9160632491111755
1683140837004510500,1.624510498046875,0.9953184127807617,-4.118289947509766,0.885442852973938
1683140837022348500,1.6423486328125,1.0179729461669922,-4.092894554138184,0.8583720326423645
1683140837040188000,1.66018798828125,1.1020488739013672,-4.115879535675049,0.8412969708442688
1683140837058015200,1.67801513671875,0.99053955078125,-4.049224376678467,0.8995843529701233
1683140837075866000,1.6958662109375,1.04156494140625,-4.095411777496338,0.888282835483551
1683140837093706000,1.7137060546875,1.0034656524658203,-4.053526878356934,0.8645036816596985
1683140837111544600,1.731544677734375,1.0351076126098633,-4.089969158172607,0.9075227975845337
1683140837129381600,1.749381591796875,1.0020380020141602,-4.097161769866943,0.8764492273330688
1683140837147222800,1.767222900390625,0.9645862579345703,-4.093235492706299,0.8691896796226501
1683140837165062000,1.785061767578125,1.026169776916504,-4.074540615081787,0.8428072929382324
1683140837182901000,1.80290087890625,0.9820699691772461,-4.052135944366455,0.9371641874313354
1683140837200739800,1.82073974609375,1.0283756256103516,-4.044439315795898,0.854479193687439
1683140837218579500,1.838579345703125,0.9781055450439453,-4.0348687171936035,0.8817864656448364
1683140837236418300,1.856418212890625,0.9735631942749023,-4.064600944519043,0.9156584143638611
1683140837254257400,1.87425732421875,1.0315866470336914,-4.04209041595459,0.8867393732070923
1683140837272096500,1.892096435546875,0.9421787261962891,-4.071859359741211,0.8437573313713074
1683140837289933000,1.90993310546875,1.0036258697509766,-4.036194801330566,0.8922299742698669
1683140837307777500,1.927777587890625,1.0254459381103516,-4.040949821472168,0.8493381142616272
1683140837325614000,1.945614013671875,0.9949007034301758,-3.999173641204834,0.9370485544204712
1683140837343453000,1.963452880859375,0.9865541458129883,-4.048793315887451,0.8725243210792542
1683140837361292500,1.98129248046875,0.9802141189575195,-4.02588415145874,0.8651708960533142
1683140837379131600,1.999131591796875,1.0532903671264648,-4.0710248947143555,0.9096670150756836
1683140837396970800,2.016970703125,0.9565982818603516,-4.045382976531982,0.813734769821167
1683140837414809600,2.0348095703125,0.9962072372436523,-4.049105167388916,0.8613156676292419
1683140837432648700,2.052648681640625,1.0192089080810547,-4.013946056365967,0.8536700010299683
1683140837450487800,2.07048779296875,0.9417800903320312,-4.014560222625732,0.9255797863006592
1683140837468327200,2.0883271484375,0.9948701858520508,-4.002527713775635,0.8652806878089905
1683140837486166000,2.106166015625,0.9224691390991211,-4.009219646453857,0.9012672901153564
1683140837504005400,2.12400537109375,0.9695882797241211,-4.054560661315918,0.8824719786643982
1683140837521841000,2.1418408203125,0.9906606674194336,-4.015495777130127,0.8719082474708557
1683140837539683600,2.15968359375,0.9355144500732422,-4.016406536102295,0.8145390152931213
1683140837557522700,2.177522705078125,0.985382080078125,-3.982933759689331,0.899207353591919
1683140837575361800,2.19536181640625,0.9583663940429688,-3.994218587875366,0.8726349472999573
1683140837593196300,2.2131962890625,0.9785442352294922,-3.963590145111084,0.8943554162979126
1683140837611039700,2.231039794921875,0.9286632537841797,-4.0098981857299805,0.9150962233543396
1683140837628877600,2.248877685546875,0.9673385620117188,-3.9966084957122803,0.8476840853691101
1683140837646719700,2.2667197265625,1.0531206130981445,-4.026969909667969,0.8562602996826172
1683140837664557800,2.284557861328125,0.937596321105957,-3.9844462871551514,0.812903106212616
1683140837682393900,2.302393798828125,1.0255498886108398,-4.014069557189941,0.8350271582603455
1683140837700238800,2.32023876953125,0.9723663330078125,-3.9549083709716797,0.8564792275428772
1683140837718075000,2.338074951171875,0.958338737487793,-3.99239182472229,0.8862019777297974
1683140837735910400,2.355910400390625,0.96697998046875,-3.9580936431884766,0.8359748125076294
1683140837753753600,2.373753662109375,0.9130620956420898,-3.9796948432922363,0.9275028109550476
1683140837771591200,2.391591064453125,0.9776058197021484,-4.008133411407471,0.8444175720214844
1683140837789433300,2.409433349609375,0.9450788497924805,-3.97271728515625,0.8414385318756104
1683140837807271000,2.42727099609375,0.9568910598754883,-3.963322877883911,0.8484602570533752
1683140837825110000,2.445110107421875,0.9282102584838867,-3.932741641998291,0.8792256116867065
1683140837842938000,2.462938232421875,0.9158754348754883,-3.9471945762634277,0.8821337223052979
1683140837860788500,2.48078857421875,0.9824295043945312,-3.9324073791503906,0.8849607706069946
1683140837878627600,2.498627685546875,0.8793201446533203,-3.9723644256591797,0.8742778301239014
1683140837896467200,2.51646728515625,0.9659910202026367,-3.955784320831299,0.8628697395324707
1683140837914306000,2.53430615234375,1.0131921768188477,-3.974821090698242,0.7994421720504761
1683140837932145200,2.552145263671875,0.9120559692382812,-3.9293482303619385,0.8714544773101807
1683140837949984300,2.569984375,0.9749794006347656,-3.956897258758545,0.8370170593261719
1683140837967823000,2.587822998046875,0.9525337219238281,-3.8926520347595215,0.8413439393043518
1683140837985663000,2.6056630859375,0.9735212326049805,-3.9387261867523193,0.9104178547859192
1683140838003502000,2.623502197265625,0.9391622543334961,-3.946669578552246,0.7978188991546631
1683140838021341000,2.6413408203125,0.9093790054321289,-3.9398913383483887,0.900578498840332
1683140838039180300,2.65918017578125,0.9461526870727539,-3.954312562942505,0.8036507964134216
1683140838057016600,2.6770166015625,0.8857975006103516,-3.9275155067443848,0.8421241641044617
1683140838074861600,2.694861572265625,0.9372692108154297,-3.899038314819336,0.8642962574958801
1683140838092697900,2.71269775390625,0.9104547500610352,-3.902878522872925,0.8529579639434814
1683140838110537000,2.730536865234375,0.9241371154785156,-3.893871784210205,0.8463788032531738
1683140838128376600,2.74837646484375,0.9591178894042969,-3.9012951850891113,0.8734251856803894
1683140838146215700,2.766215576171875,0.8433551788330078,-3.927131414413452,0.8381271958351135
1683140838164054500,2.784054443359375,0.9267387390136719,-3.9016971588134766,0.8433416485786438
1683140838181889800,2.801889892578125,0.9382410049438477,-3.897970199584961,0.7947220802307129
1683140838199733000,2.81973291015625,0.8962297439575195,-3.8631348609924316,0.8921681642532349
1683140838217572400,2.837572265625,0.9282093048095703,-3.908585786819458,0.8373714685440063
1683140838235411500,2.855411376953125,0.9470233917236328,-3.844578742980957,0.8200231194496155
1683140838253252000,2.873252197265625,0.975398063659668,-3.907320737838745,0.914803683757782
1683140838271092700,2.8910927734375,0.8698511123657227,-3.8844480514526367,0.8038861155509949
1683140838288926200,2.90892626953125,0.9476184844970703,-3.8972883224487305,0.8213195204734802
1683140838306771200,2.926771240234375,0.933873176574707,-3.876289129257202,0.8132156133651733
1683140838324607200,2.944607177734375,0.8710260391235352,-3.876185417175293,0.8673484325408936
1683140838342446600,2.962446533203125,0.9263772964477539,-3.8426177501678467,0.8037893772125244
1683140838360285700,2.98028564453125,0.8562469482421875,-3.8408427238464355,0.8754469752311707
1683140838378113000,2.998113037109375,0.9053487777709961,-3.8688621520996094,0.8622848987579346
1683140838395964700,3.015964599609375,0.8773584365844727,-3.839838743209839,0.8435288071632385
1683140838413801700,3.0338017578125,0.8555498123168945,-3.8622145652770996,0.8105040192604065
1683140838431645000,3.05164501953125,0.9294881820678711,-3.830181121826172,0.8496501445770264
1683140838449482000,3.06948193359375,0.893437385559082,-3.827063798904419,0.7772858142852783
1683140838467320000,3.087320068359375,0.8885526657104492,-3.803799867630005,0.874564528465271
1683140838485149400,3.1051494140625,0.857452392578125,-3.830195903778076,0.8477486968040466
1683140838503000300,3.123000244140625,0.9118995666503906,-3.8073782920837402,0.8368338346481323
1683140838520838700,3.140838623046875,0.922947883605957,-3.837747573852539,0.8636886477470398
1683140838538678000,3.158677978515625,0.8490200042724609,-3.8253884315490723,0.8113464117050171
1683140838556517400,3.176517333984375,0.9574050903320312,-3.847785472869873,0.7867316007614136
1683140838574356700,3.194356689453125,0.8819961547851562,-3.7919809818267822,0.8283054828643799
1683140838592195800,3.21219580078125,0.8683948516845703,-3.812314510345459,0.8538146615028381
1683140838610035000,3.230034912109375,0.8962917327880859,-3.786078453063965,0.769999623298645
1683140838627874600,3.24787451171875,0.8490886688232422,-3.7877578735351562,0.8536064624786377
1683140838645714000,3.2657138671875,0.9062032699584961,-3.820079803466797,0.831214427947998
1683140838663538700,3.28353857421875,0.8273897171020508,-3.788423776626587,0.8408104181289673
1683140838681395000,3.30139501953125,0.8414764404296875,-3.7991204261779785,0.7714741230010986
1683140838699231700,3.319231689453125,0.8766841888427734,-3.760169506072998,0.8530736565589905
1683140838717070300,3.3370703125,0.8360719680786133,-3.7596092224121094,0.8019542098045349
1683140838734898000,3.35489794921875,0.877903938293457,-3.7496674060821533,0.8794633150100708
1683140838752749300,3.372749267578125,0.7975521087646484,-3.78045916557312,0.8112803101539612
1683140838770588700,3.390588623046875,0.8804168701171875,-3.7672340869903564,0.8230948448181152
1683140838788427800,3.408427734375,0.8684577941894531,-3.7922377586364746,0.831541121006012
1683140838806266600,3.4262666015625,0.8009185791015625,-3.752790689468384,0.7793487906455994
1683140838824103700,3.444103759765625,0.9041051864624023,-3.7673399448394775,0.7982121706008911
1683140838841948000,3.461947998046875,0.8538312911987305,-3.70945405960083,0.8171368837356567
1683140838859784700,3.47978466796875,0.8724451065063477,-3.7594566345214844,0.8566829562187195
1683140838877623800,3.497623779296875,0.8432903289794922,-3.728104829788208,0.767024576663971
1683140838895456000,3.5154560546875,0.8322944641113281,-3.745637893676758,0.8464608192443848
1683140838913302500,3.533302490234375,0.8795185089111328,-3.7672767639160156,0.7922664284706116
1683140838931142000,3.551141845703125,0.78875732421875,-3.741284132003784,0.8022871017456055
1683140838948977000,3.568976806640625,0.8225879669189453,-3.7227511405944824,0.78900146484375
1683140838966813000,3.58681298828125,0.8194313049316406,-3.705636739730835,0.8389129042625427
1683140838984659500,3.604659423828125,0.8204927444458008,-3.696927547454834,0.8146443963050842
1683140839002499000,3.6224990234375,0.8200950622558594,-3.6847519874572754,0.8259139657020569
1683140839020342000,3.640342041015625,0.7629127502441406,-3.7223873138427734,0.8196432590484619
1683140839038177300,3.65817724609375,0.8808746337890625,-3.7067432403564453,0.8189045786857605
1683140839056017000,3.676016845703125,0.8187227249145508,-3.7306997776031494,0.7774345874786377
1683140839073844200,3.69384423828125,0.8108501434326172,-3.677889347076416,0.7948749661445618
1683140839091695400,3.7116953125,0.8640880584716797,-3.694859266281128,0.7900218367576599
1683140839109534500,3.729534423828125,0.8152875900268555,-3.6403555870056152,0.8132503628730774
1683140839127373000,3.747373046875,0.8587150573730469,-3.699124336242676,0.8262699842453003
1683140839145214000,3.7652138671875,0.8133745193481445,-3.671577215194702,0.7488268613815308
1683140839163052800,3.783052734375,0.8802490234375,-3.7083473205566406,0.7917481064796448
1683140839180891600,3.8008916015625,0.8199434280395508,-3.694305896759033,0.8040180206298828
1683140839198731000,3.81873095703125,0.7591943740844727,-3.678537368774414,0.7630996704101562
1683140839216567600,3.836567626953125,0.8122053146362305,-3.635514736175537,0.778267502784729
1683140839234412500,3.85441259765625,0.7770967483520508,-3.643901824951172,0.8465104103088379
1683140839252248800,3.872248779296875,0.8332796096801758,-3.6314761638641357,0.7836776971817017
1683140839270088000,3.890087890625,0.7734842300415039,-3.6227684020996094,0.8091492056846619
1683140839287927800,3.907927734375,0.7539730072021484,-3.6704251766204834,0.8010987639427185
1683140839305767000,3.925766845703125,0.8411149978637695,-3.6246955394744873,0.7948885560035706
1683140839323606000,3.94360595703125,0.7809085845947266,-3.6469476222991943,0.7432882785797119
1683140839341434000,3.96143408203125,0.7982273101806641,-3.5982322692871094,0.8165534734725952
1683140839359284700,3.97928466796875,0.7812681198120117,-3.6236958503723145,0.7929431200027466
1683140839377124000,3.9971240234375,0.8035430908203125,-3.581629991531372,0.7986164689064026
1683140839394951700,4.01495166015625,0.8063459396362305,-3.626972198486328,0.834507167339325
1683140839412802600,4.032802490234375,0.7752742767333984,-3.6132149696350098,0.7601152658462524
1683140839430642200,4.05064208984375,0.8614597320556641,-3.6314618587493896,0.751054048538208
1683140839448477200,4.068477294921875,0.776698112487793,-3.59993839263916,0.7779803276062012
1683140839466321400,4.0863212890625,0.7687625885009766,-3.6108174324035645,0.7932948470115662
1683140839484162800,4.104162841796875,0.8227462768554688,-3.5667645931243896,0.7364639639854431
1683140839501999000,4.1219990234375,0.7563266754150391,-3.563124179840088,0.8094227313995361
1683140839519838700,4.139838623046875,0.8030271530151367,-3.5895445346832275,0.7941234111785889
1683140839537662200,4.157662109375,0.7110214233398438,-3.573035955429077,0.8168104290962219
1683140839555517000,4.175516845703125,0.7193212509155273,-3.5966925621032715,0.7371100187301636
1683140839573352700,4.193352783203125,0.7732944488525391,-3.54944109916687,0.7963681221008301
1683140839591199200,4.21119921875,0.7531938552856445,-3.555633544921875,0.7391860485076904
1683140839609035800,4.229035888671875,0.7673768997192383,-3.5179927349090576,0.8251940608024597
1683140839626874600,4.24687451171875,0.7185068130493164,-3.539047956466675,0.7663859128952026
1683140839644714000,4.2647138671875,0.7796602249145508,-3.521561622619629,0.8088546991348267
1683140839662540000,4.2825400390625,0.7392139434814453,-3.5637834072113037,0.8114935755729675
1683140839680392700,4.300392822265625,0.730992317199707,-3.540947437286377,0.7204813957214355
1683140839698229000,4.31822900390625,0.8349475860595703,-3.561368465423584,0.7340949773788452
1683140839716063500,4.3360634765625,0.7362594604492188,-3.5110859870910645,0.7605584859848022
1683140839733910300,4.35391015625,0.7859897613525391,-3.5351648330688477,0.7494593858718872
1683140839751746000,4.37174609375,0.7527618408203125,-3.482822895050049,0.7489316463470459
1683140839769589000,4.389589111328125,0.7470779418945312,-3.508563756942749,0.8125088214874268
1683140839787422000,4.407421875,0.7691268920898438,-3.52183198928833,0.761737585067749
1683140839805269000,4.42526904296875,0.6724967956542969,-3.5063507556915283,0.7958318591117859
1683140839823107600,4.443107666015625,0.73760986328125,-3.5153307914733887,0.7266581654548645
1683140839840946200,4.4609462890625,0.7241811752319336,-3.4750661849975586,0.777068018913269
1683140839858786000,4.4787861328125,0.7275810241699219,-3.4665231704711914,0.7323118448257446
1683140839876624600,4.496624755859375,0.7098264694213867,-3.4447567462921143,0.8033848404884338
1683140839894457600,4.51445751953125,0.6710748672485352,-3.4651050567626953,0.7618221640586853
1683140839912304000,4.53230419921875,0.7671518325805664,-3.448122262954712,0.7945363521575928
1683140839930143200,4.550143310546875,0.6600589752197266,-3.4900169372558594,0.7782511115074158
1683140839947982600,4.567982666015625,0.7361974716186523,-3.4646613597869873,0.7504818439483643
1683140839965823500,4.585823486328125,0.8021917343139648,-3.4757463932037354,0.6796992421150208
1683140839983660000,4.603659912109375,0.7195100784301758,-3.415045738220215,0.7665783762931824
1683140840001500700,4.621500732421875,0.7320346832275391,-3.448110580444336,0.7922992706298828
1683140840019328300,4.639328369140625,0.6951637268066406,-3.4071712493896484,0.7099372744560242
1683140840037179100,4.65717919921875,0.7345256805419922,-3.445383071899414,0.8231005668640137
1683140840055019000,4.67501904296875,0.6990165710449219,-3.447528123855591,0.7169347405433655
1683140840072857600,4.692857666015625,0.6992807388305664,-3.44256591796875,0.7542582750320435
1683140840090697200,4.710697265625,0.7228145599365234,-3.424255847930908,0.7224531173706055
1683140840108536300,4.728536376953125,0.6643075942993164,-3.4062187671661377,0.7730327248573303
1683140840126376000,4.7463759765625,0.7080802917480469,-3.3886942863464355,0.7493183612823486
1683140840144207000,4.76420703125,0.664616584777832,-3.395047426223755,0.7379826307296753
1683140840162054700,4.7820546875,0.664484977722168,-3.3978044986724854,0.7435423731803894
1683140840179894000,4.79989404296875,0.7260217666625977,-3.3889613151550293,0.7987011075019836
1683140840197732600,4.817732666015625,0.6635885238647461,-3.409647226333618,0.6905325651168823
1683140840215573200,4.8355732421875,0.7110824584960938,-3.3583292961120605,0.7215504050254822
1683140840233413000,4.8534130859375,0.7201147079467773,-3.38582181930542,0.7469735741615295
1683140840251251200,4.871251220703125,0.6864414215087891,-3.3365371227264404,0.7384729385375977
1683140840269090800,4.8890908203125,0.6886186599731445,-3.383549451828003,0.7619374394416809
1683140840286930400,4.906930419921875,0.7061901092529297,-3.3415937423706055,0.7044176459312439
1683140840304757500,4.924757568359375,0.7490329742431641,-3.3784658908843994,0.7661817669868469
1683140840322609200,4.942609130859375,0.6646509170532227,-3.3743293285369873,0.7068274617195129
1683140840340445700,4.96044580078125,0.7480525970458984,-3.3614649772644043,0.6474765539169312
1683140840358290700,4.978290771484375,0.7031984329223633,-3.3162193298339844,0.7437201142311096
1683140840376127000,4.996126953125,0.631256103515625,-3.3437535762786865,0.737572193145752
1683140840393966600,5.013966552734375,0.7002296447753906,-3.3106842041015625,0.68577641248703
1683140840411802400,5.03180224609375,0.6278762817382812,-3.3105335235595703,0.7531296014785767
1683140840429645000,5.04964501953125,0.6923255920410156,-3.3602566719055176,0.6963364481925964
1683140840447483100,5.067483154296875,0.6429538726806641,-3.3128769397735596,0.754596471786499
1683140840465325600,5.08532568359375,0.6251487731933594,-3.322737455368042,0.653290867805481
1683140840483163600,5.10316357421875,0.6479024887084961,-3.277714490890503,0.7513185739517212
1683140840501002500,5.12100244140625,0.627690315246582,-3.2881414890289307,0.732280969619751
1683140840518842000,5.138842041015625,0.6884622573852539,-3.26723575592041,0.7582130432128906
1683140840536669000,5.1566689453125,0.5938129425048828,-3.297539472579956,0.7196850776672363
1683140840554520800,5.174520751953125,0.6662893295288086,-3.287116050720215,0.7304691076278687
1683140840572360700,5.192360595703125,0.7002019882202148,-3.295102596282959,0.7186365127563477
1683140840590197800,5.21019775390625,0.628474235534668,-3.275251626968384,0.691918134689331
1683140840608041000,5.228041015625,0.7201900482177734,-3.2919931411743164,0.6562981009483337
1683140840625878300,5.245878173828125,0.6612367630004883,-3.2261180877685547,0.7268365621566772
1683140840643718000,5.2637177734375,0.6452608108520508,-3.2716073989868164,0.7718523144721985
1683140840661557000,5.281556884765625,0.6340093612670898,-3.2533774375915527,0.6397331953048706
1683140840679402000,5.299402099609375,0.6244697570800781,-3.2477071285247803,0.7444137930870056
1683140840697236200,5.317236328125,0.6681852340698242,-3.2770276069641113,0.7076348662376404
1683140840715075300,5.335075439453125,0.5917501449584961,-3.239558219909668,0.705055832862854
1683140840732915000,5.3529150390625,0.6284513473510742,-3.217974901199341,0.6788638830184937
1683140840750753800,5.37075390625,0.6139945983886719,-3.2045345306396484,0.7302923798561096
1683140840768593700,5.38859375,0.6246166229248047,-3.20202898979187,0.692892849445343
1683140840786417200,5.406417236328125,0.6376876831054688,-3.205106496810913,0.7465365529060364
1683140840804272400,5.4242724609375,0.5607404708862305,-3.2336535453796387,0.6807751059532166
1683140840822100000,5.442099853515625,0.656682014465332,-3.206376314163208,0.7018282413482666
1683140840839951400,5.459951416015625,0.595423698425293,-3.2245688438415527,0.6867023706436157
1683140840857790700,5.477790771484375,0.6216535568237305,-3.177353620529175,0.6890395283699036
1683140840875630000,5.495630126953125,0.6580171585083008,-3.194845199584961,0.6620929837226868
1683140840893464600,5.513464599609375,0.61492919921875,-3.1389150619506836,0.7354403734207153
1683140840911313200,5.531313232421875,0.6269712448120117,-3.1850638389587402,0.7666595578193665
1683140840929148200,5.549148193359375,0.5836706161499023,-3.1690139770507812,0.6219441294670105
1683140840946988000,5.566988037109375,0.6478919982910156,-3.1945245265960693,0.703371524810791
1683140840964827000,5.584826904296875,0.6050395965576172,-3.1748714447021484,0.6629015803337097
1683140840982673400,5.60267333984375,0.5925788879394531,-3.17335844039917,0.6890973448753357
1683140841000506000,5.620506103515625,0.6237173080444336,-3.1287765502929688,0.6452827453613281
1683140841018345700,5.638345703125,0.5577316284179688,-3.128218173980713,0.7312142252922058
1683140841036184600,5.6561845703125,0.5992002487182617,-3.1269190311431885,0.7278656959533691
1683140841054024400,5.6740244140625,0.5373592376708984,-3.121929168701172,0.6791795492172241
1683140841071854300,5.691854248046875,0.5386409759521484,-3.1572306156158447,0.6995037794113159
1683140841089703400,5.709703369140625,0.6063680648803711,-3.121119737625122,0.6902561783790588
1683140841107542300,5.727542236328125,0.5636415481567383,-3.128856897354126,0.6253471374511719
1683140841125382400,5.74538232421875,0.5719928741455078,-3.0838475227355957,0.705367922782898
1683140841143220500,5.763220458984375,0.5496025085449219,-3.1037867069244385,0.6817115545272827
1683140841161060600,5.781060546875,0.6032724380493164,-3.070375919342041,0.7064336538314819
1683140841178900000,5.79889990234375,0.5601215362548828,-3.111452579498291,0.7210545539855957
1683140841196744700,5.81674462890625,0.5520658493041992,-3.102926015853882,0.6370400190353394
1683140841214579200,5.8345791015625,0.6557302474975586,-3.1312363147735596,0.6360211372375488
1683140841232415500,5.85241552734375,0.5476722717285156,-3.0686888694763184,0.6428045630455017
1683140841250260500,5.870260498046875,0.6031312942504883,-3.084688186645508,0.6609631776809692
1683140841268097000,5.888096923828125,0.5685453414916992,-3.034289598464966,0.6995310187339783
1683140841285936400,5.905936279296875,0.5271167755126953,-3.0596086978912354,0.686556339263916
1683140841303775700,5.923775634765625,0.5627975463867188,-3.068021059036255,0.67376309633255
1683140841321603800,5.941603759765625,0.4997100830078125,-3.063798189163208,0.6972610354423523
1683140841339455200,5.959455322265625,0.5467376708984375,-3.07633900642395,0.6105206608772278
1683140841357293600,5.97729345703125,0.5309581756591797,-3.0288496017456055,0.6918848752975464
1683140841375134700,5.995134765625,0.5451908111572266,-3.0334203243255615,0.6206263899803162
1683140841392973000,6.01297314453125,0.5290975570678711,-2.999995231628418,0.6892502307891846
1683140841410812700,6.030812744140625,0.48483943939208984,-3.019666910171509,0.6849803924560547
1683140841428652000,6.048652099609375,0.5709047317504883,-3.0002219676971436,0.6922668218612671
1683140841446490600,6.06649072265625,0.48016834259033203,-3.031702756881714,0.6920351386070251
1683140841464328200,6.084328125,0.5463056564331055,-3.0261518955230713,0.6641004085540771
1683140841482168600,6.10216845703125,0.6296377182006836,-3.028529167175293,0.572713315486908
1683140841500010000,6.120010009765625,0.525395393371582,-2.989908456802368,0.6741815805435181
1683140841517849000,6.13784912109375,0.5597457885742188,-3.0039455890655518,0.6481464505195618
1683140841535688400,6.1556884765625,0.5332937240600586,-2.9537971019744873,0.6108905673027039
1683140841553526300,6.1735263671875,0.5591421127319336,-2.984895706176758,0.7079387903213501
1683140841571367700,6.19136767578125,0.5306644439697266,-2.9946985244750977,0.6461670398712158
1683140841589205200,6.209205322265625,0.5086164474487305,-2.987929105758667,0.66545569896698
1683140841607048700,6.227048583984375,0.5588006973266602,-2.983577251434326,0.6094182729721069
1683140841624886300,6.24488623046875,0.5074758529663086,-2.963254928588867,0.6656666398048401
1683140841642724900,6.262724853515625,0.5263853073120117,-2.930894136428833,0.6248373985290527
1683140841660553700,6.2805537109375,0.4871482849121094,-2.9296021461486816,0.6673531532287598
1683140841678404400,6.298404296875,0.506500244140625,-2.943068504333496,0.6574873924255371
1683140841696244200,6.316244140625,0.5532655715942383,-2.9377517700195312,0.650728702545166
1683140841714083300,6.334083251953125,0.44787120819091797,-2.9618582725524902,0.6476399898529053
1683140841731918000,6.35191796875,0.5116329193115234,-2.9232234954833984,0.6281996965408325
1683140841749762000,6.369761962890625,0.5346412658691406,-2.926774024963379,0.5986071228981018
1683140841767598800,6.387598876953125,0.5032215118408203,-2.8870692253112793,0.6857813000679016
1683140841785444000,6.405444091796875,0.4966611862182617,-2.924896717071533,0.6328297257423401
1683140841803280400,6.4232802734375,0.5288619995117188,-2.875063896179199,0.6267719864845276
1683140841821120500,6.44112060546875,0.5862627029418945,-2.920175313949585,0.6829966306686401
1683140841838959400,6.45895947265625,0.4670829772949219,-2.904590606689453,0.5899630188941956
1683140841856785000,6.476784912109375,0.5433893203735352,-2.919677495956421,0.6096349358558655
1683140841874641400,6.494641357421875,0.5214853286743164,-2.884610891342163,0.6065264940261841
1683140841892477700,6.512477783203125,0.48856449127197266,-2.8817999362945557,0.6536259055137634
1683140841910317300,6.5303173828125,0.5088329315185547,-2.8527727127075195,0.6331331729888916
1683140841928156700,6.54815673828125,0.44013500213623047,-2.852597713470459,0.6371912956237793
1683140841945996000,6.56599609375,0.503692626953125,-2.8786511421203613,0.6495903134346008
1683140841963825000,6.583824951171875,0.4479494094848633,-2.8542678356170654,0.6762188076972961
1683140841981675500,6.601675537109375,0.4796743392944336,-2.877152681350708,0.5818515419960022
1683140841999514400,6.619514404296875,0.513667106628418,-2.8353381156921387,0.6180024743080139
1683140842017350400,6.637350341796875,0.4940786361694336,-2.8499724864959717,0.5911462903022766
1683140842035198000,6.655197998046875,0.4805316925048828,-2.8058011531829834,0.64882493019104
1683140842053033000,6.673032958984375,0.41937732696533203,-2.8437724113464355,0.628058135509491
1683140842070872800,6.690872802734375,0.5156259536743164,-2.8218376636505127,0.6280441284179688
1683140842088700400,6.708700439453125,0.500248908996582,-2.851050853729248,0.6057807207107544
1683140842106551600,6.726551513671875,0.43236637115478516,-2.8156819343566895,0.6264124512672424
1683140842124387800,6.744387939453125,0.5289974212646484,-2.8373489379882812,0.5458386540412903
1683140842142233900,6.76223388671875,0.4578533172607422,-2.7720110416412354,0.6071935892105103
1683140842160070100,6.780070068359375,0.48375606536865234,-2.811687707901001,0.6567412614822388
1683140842177911000,6.7979111328125,0.4842052459716797,-2.769998788833618,0.5647502541542053
1683140842195750000,6.81575,0.4593629837036133,-2.797938823699951,0.6196637153625488
1683140842213585700,6.833585693359375,0.48297977447509766,-2.816509485244751,0.6126577854156494
1683140842231431200,6.85143115234375,0.4007225036621094,-2.7902889251708984,0.6146932244300842
1683140842249267500,6.869267333984375,0.49149417877197266,-2.7912938594818115,0.5580176115036011
1683140842267106800,6.88710693359375,0.4630765914916992,-2.75241756439209,0.5908926725387573
1683140842284946400,6.904946533203125,0.463653564453125,-2.7439634799957275,0.6118447780609131
1683140842302785800,6.922785888671875,0.4243297576904297,-2.7310500144958496,0.6290301084518433
1683140842320625400,6.94062548828125,0.39449310302734375,-2.761723279953003,0.5937166810035706
1683140842338464800,6.95846484375,0.5016231536865234,-2.7283926010131836,0.6229187846183777
1683140842356304400,6.976304443359375,0.41485595703125,-2.7721309661865234,0.5766509175300598
1683140842374144300,6.994144287109375,0.4436683654785156,-2.728304386138916,0.6153140068054199
1683140842391983400,7.0119833984375,0.48896026611328125,-2.7437596321105957,0.5362810492515564
1683140842409821400,7.029821533203125,0.4275026321411133,-2.6777913570404053,0.619957447052002
1683140842427662000,7.047662109375,0.4499492645263672,-2.723085403442383,0.6271031498908997
1683140842445502000,7.065501953125,0.43749237060546875,-2.7048513889312744,0.5618454217910767
1683140842463341600,7.083341552734375,0.4925260543823242,-2.726284980773926,0.6021044850349426
1683140842481180700,7.1011806640625,0.42143917083740234,-2.725757360458374,0.576112687587738
1683140842499020500,7.1190205078125,0.42282772064208984,-2.7128336429595947,0.5966871380805969
1683140842516860000,7.13685986328125,0.4710731506347656,-2.6889686584472656,0.5518288016319275
1683140842534699300,7.15469921875,0.41088199615478516,-2.6763510704040527,0.5867210626602173
1683140842552539000,7.172538818359375,0.45308971405029297,-2.662832021713257,0.6106287240982056
1683140842570378200,7.190378173828125,0.35661792755126953,-2.6686439514160156,0.6155480146408081
1683140842588218000,7.208218017578125,0.3807516098022461,-2.700155019760132,0.5586667656898499
1683140842606048800,7.226048828125,0.4489860534667969,-2.6457223892211914,0.6019008755683899
1683140842623897000,7.24389697265625,0.37479209899902344,-2.6715877056121826,0.5567265152931213
1683140842641738500,7.261738525390625,0.42287540435791016,-2.633516788482666,0.5978690981864929
1683140842659572000,7.279572021484375,0.4224233627319336,-2.646200180053711,0.5565719604492188
1683140842677418500,7.29741845703125,0.44108104705810547,-2.610139846801758,0.619666576385498
1683140842695255800,7.315255859375,0.3625497817993164,-2.6453299522399902,0.611851155757904
1683140842713094400,7.333094482421875,0.4366893768310547,-2.630708694458008,0.5433636903762817
1683140842730922500,7.350922607421875,0.5086688995361328,-2.6543638706207275,0.5532730221748352
1683140842748773600,7.368773681640625,0.3804149627685547,-2.6271324157714844,0.5704283714294434
1683140842766613000,7.386613037109375,0.4719257354736328,-2.6430084705352783,0.5222105383872986
1683140842784452400,7.404452392578125,0.4319934844970703,-2.5703518390655518,0.5484171509742737
1683140842802292000,7.4222919921875,0.4138774871826172,-2.612208366394043,0.6386420726776123
1683140842820131600,7.440131591796875,0.3959922790527344,-2.5830421447753906,0.5270557403564453
1683140842837971000,7.457970947265625,0.35112953186035156,-2.5993337631225586,0.6128306984901428
1683140842855810600,7.475810546875,0.4359006881713867,-2.624539375305176,0.557284951210022
1683140842873650400,7.493650390625,0.37485218048095703,-2.597813129425049,0.536542534828186
1683140842891487700,7.51148779296875,0.36887645721435547,-2.5730128288269043,0.580575704574585
1683140842909331000,7.5293310546875,0.3736400604248047,-2.545112371444702,0.5481504797935486
1683140842927168500,7.54716845703125,0.3540916442871094,-2.5362014770507812,0.5801676511764526
1683140842945008000,7.565008056640625,0.40360164642333984,-2.5437421798706055,0.5981560945510864
1683140842962839300,7.58283935546875,0.3199605941772461,-2.5783658027648926,0.5345176458358765
1683140842980675800,7.60067578125,0.42530345916748047,-2.5563669204711914,0.5530999302864075
1683140842998526700,7.618526611328125,0.44094085693359375,-2.5778355598449707,0.4956388771533966
1683140843016366300,7.636366455078125,0.33246517181396484,-2.51776123046875,0.5749850273132324
1683140843034203100,7.654203125,0.4026679992675781,-2.552003860473633,0.5202428698539734
1683140843052048100,7.672048095703125,0.39277076721191406,-2.4779012203216553,0.5559830069541931
1683140843069885000,7.689885009765625,0.41942405700683594,-2.5360825061798096,0.6130380034446716
1683140843087724800,7.707724853515625,0.3663043975830078,-2.517923355102539,0.4700426459312439
1683140843105564000,7.72556396484375,0.39057159423828125,-2.517195224761963,0.5529688000679016
1683140843123403800,7.74340380859375,0.4391469955444336,-2.551095962524414,0.5197142958641052
1683140843141239000,7.761239013671875,0.3261842727661133,-2.5111141204833984,0.563202977180481
1683140843159074800,7.77907470703125,0.35558509826660156,-2.487480878829956,0.5050976276397705
1683140843176910800,7.796910888671875,0.3310098648071289,-2.4723989963531494,0.5793600082397461
1683140843194762000,7.814761962890625,0.3821735382080078,-2.4760594367980957,0.5703536868095398
1683140843212589300,7.83258935546875,0.3504199981689453,-2.4719650745391846,0.5316970348358154
1683140843230435800,7.850435791015625,0.2986774444580078,-2.486173391342163,0.5196287631988525
1683140843248280600,7.868280517578125,0.43422508239746094,-2.485930919647217,0.533115804195404
1683140843266119400,7.886119384765625,0.3386249542236328,-2.478182554244995,0.5147755146026611
1683140843283960000,7.9039599609375,0.32854270935058594,-2.4306893348693848,0.5258159041404724
1683140843301795300,7.92179541015625,0.34796905517578125,-2.456181049346924,0.5528537631034851
1683140843319638500,7.939638427734375,0.35999393463134766,-2.426297426223755,0.558384120464325
1683140843337467400,7.95746728515625,0.3788490295410156,-2.464803457260132,0.5641629099845886
1683140843355316200,7.975316162109375,0.3312950134277344,-2.440009593963623,0.48824942111968994
1683140843373157000,7.9931572265625,0.44741249084472656,-2.474461555480957,0.49494487047195435
1683140843390997000,8.0109970703125,0.3356647491455078,-2.4301395416259766,0.534395158290863
1683140843408836400,8.02883642578125,0.31949901580810547,-2.4457712173461914,0.4852157533168793
1683140843426675700,8.04667578125,0.3515481948852539,-2.3857357501983643,0.5084076523780823
1683140843444515600,8.064515625,0.32159996032714844,-2.423412322998047,0.5971741080284119
1683140843462350000,8.08235009765625,0.35672664642333984,-2.4286437034606934,0.48554879426956177
1683140843480184600,8.1001845703125,0.2852306365966797,-2.396522283554077,0.5269832611083984
1683140843498023000,8.11802294921875,0.3506660461425781,-2.4360482692718506,0.512840986251831
1683140843515873500,8.13587353515625,0.3495960235595703,-2.3850340843200684,0.5460169315338135
1683140843533713400,8.15371337890625,0.29872798919677734,-2.378317356109619,0.4591667056083679
1683140843551552500,8.171552490234374,0.31337738037109375,-2.352440595626831,0.5479891300201416
1683140843569392000,8.18939208984375,0.30982303619384766,-2.372593402862549,0.5408725738525391
1683140843587219700,8.2072197265625,0.3844938278198242,-2.352524757385254,0.5307540893554688
1683140843605071400,8.2250712890625,0.2949848175048828,-2.376558303833008,0.5383726954460144
1683140843622911200,8.2429111328125,0.333282470703125,-2.376655340194702,0.5092916488647461
1683140843640750600,8.26075048828125,0.411407470703125,-2.3871138095855713,0.48155704140663147
1683140843658590500,8.278590576171876,0.310394287109375,-2.3376126289367676,0.5075269937515259
1683140843676429600,8.2964296875,0.37854671478271484,-2.3636534214019775,0.484806627035141
1683140843694269200,8.314269287109376,0.33479785919189453,-2.302504539489746,0.5122802257537842
1683140843712108800,8.33210888671875,0.3167724609375,-2.3458898067474365,0.5950064063072205
1683140843729948400,8.349948486328126,0.30816650390625,-2.346860408782959,0.4775722920894623
1683140843747785200,8.36778515625,0.28084278106689453,-2.327906608581543,0.529352605342865
1683140843765627600,8.385627685546876,0.3524351119995117,-2.354895830154419,0.4821842908859253
1683140843783467300,8.40346728515625,0.3024787902832031,-2.317793846130371,0.5336043238639832
1683140843801304300,8.42130419921875,0.31583595275878906,-2.29849910736084,0.4564987123012543
1683140843819137300,8.43913720703125,0.2728271484375,-2.2852163314819336,0.5360239148139954
1683140843836985900,8.45698583984375,0.2597665786743164,-2.304539203643799,0.5434004664421082
1683140843854825500,8.474825439453125,0.3425445556640625,-2.2835633754730225,0.5326292514801025
1683140843872664800,8.492664794921875,0.24007034301757812,-2.3073973655700684,0.4784112870693207
1683140843890504700,8.510504638671875,0.30649280548095703,-2.2922911643981934,0.5301589965820312
1683140843908343800,8.52834375,0.34438228607177734,-2.2952394485473633,0.4695471525192261
1683140843926180900,8.546180908203125,0.30856990814208984,-2.255143880844116,0.490118145942688
1683140843944026000,8.564026123046874,0.3232574462890625,-2.2835676670074463,0.47599631547927856
1683140843961859600,8.581859619140625,0.3227062225341797,-2.2343575954437256,0.5170770883560181
1683140843979702500,8.59970263671875,0.3675975799560547,-2.2867133617401123,0.5538202524185181
1683140843997542400,8.61754248046875,0.28734493255615234,-2.2651255130767822,0.43406668305397034
1683140844015381500,8.635381591796875,0.32861995697021484,-2.28165340423584,0.4947887063026428
1683140844033221000,8.65322119140625,0.33136463165283203,-2.2563822269439697,0.4502982497215271
1683140844051061000,8.67106103515625,0.2731914520263672,-2.239110231399536,0.5128965973854065
1683140844068900400,8.688900390625,0.31935882568359375,-2.2125203609466553,0.47930195927619934
1683140844086740000,8.706739990234375,0.23372268676757812,-2.207915782928467,0.5090402364730835
1683140844104579800,8.724579833984375,0.2950305938720703,-2.244424343109131,0.521647572517395
1683140844122415400,8.742415283203124,0.28922367095947266,-2.2257823944091797,0.498171329498291
1683140844140258800,8.7602587890625,0.24704360961914062,-2.2544612884521484,0.438564658164978
1683140844158098000,8.778097900390625,0.3030815124511719,-2.2061338424682617,0.5083954334259033
1683140844175936500,8.7959365234375,0.2896156311035156,-2.1965997219085693,0.4467127323150635
1683140844193779000,8.813779052734375,0.28996849060058594,-2.1689605712890625,0.5500791668891907
1683140844211617000,8.831616943359375,0.24006080627441406,-2.201035976409912,0.47918421030044556
1683140844229457000,8.849456787109375,0.29709529876708984,-2.176790714263916,0.49311214685440063
1683140844247293200,8.867293212890624,0.3242368698120117,-2.2100703716278076,0.5230038166046143
1683140844265137200,8.88513720703125,0.23433303833007812,-2.186398983001709,0.41307029128074646
1683140844282975700,8.902975830078125,0.3414640426635742,-2.2033321857452393,0.4473552405834198
1683140844300812300,8.920812255859374,0.31243133544921875,-2.155918836593628,0.4664934277534485
1683140844318657300,8.9386572265625,0.2864189147949219,-2.172887086868286,0.49508097767829895
1683140844336494000,8.956494140625,0.2811155319213867,-2.140841245651245,0.43653860688209534
1683140844354333700,8.974333740234375,0.2523965835571289,-2.1639084815979004,0.5130995512008667
1683140844372173300,8.99217333984375,0.3111286163330078,-2.1771016120910645,0.4701392948627472
1683140844390009900,9.010009765625,0.2410411834716797,-2.1582272052764893,0.4923174977302551
1683140844407855900,9.02785595703125,0.260986328125,-2.153529405593872,0.41795817017555237
1683140844425692200,9.045692138671875,0.2789497375488281,-2.1314454078674316,0.49573665857315063
1683140844443531800,9.06353173828125,0.25359249114990234,-2.1227848529815674,0.46241018176078796
1683140844461371400,9.081371337890625,0.2843456268310547,-2.1208252906799316,0.45383280515670776
1683140844479210800,9.099210693359375,0.2070779800415039,-2.127171277999878,0.4745028614997864
1683140844497051000,9.11705078125,0.31090641021728516,-2.1238303184509277,0.5004340410232544
1683140844514891000,9.13489111328125,0.2754993438720703,-2.1530258655548096,0.4575459063053131
1683140844532725800,9.152725830078126,0.26275062561035156,-2.103977680206299,0.42280930280685425
1683140844550569200,9.1705693359375,0.32752323150634766,-2.130013942718506,0.4473038911819458
1683140844568409300,9.188409423828125,0.23957347869873047,-2.0648324489593506,0.44581338763237
1683140844586249000,9.2062490234375,0.30156421661376953,-2.1171457767486572,0.46713727712631226
1683140844604088000,9.224088134765625,0.26267242431640625,-2.0741982460021973,0.40442293882369995
1683140844621933300,9.241933349609376,0.2817239761352539,-2.1069064140319824,0.5107244849205017
1683140844639767600,9.259767578125,0.2773866653442383,-2.114375352859497,0.44670364260673523
1683140844657607400,9.277607421875,0.24002456665039062,-2.090738296508789,0.4169967770576477
1683140844675446800,9.29544677734375,0.26985931396484375,-2.077773094177246,0.45981383323669434
1683140844693271000,9.31327099609375,0.21472740173339844,-2.069293260574341,0.45807796716690063
1683140844711125000,9.331125,0.26805973052978516,-2.0588669776916504,0.43672680854797363
1683140844728964400,9.34896435546875,0.2202749252319336,-2.0400795936584473,0.45646384358406067
1683140844746806800,9.366806884765625,0.187408447265625,-2.080350875854492,0.4819168746471405
1683140844764641800,9.384641845703126,0.3041849136352539,-2.0588812828063965,0.4645955562591553
1683140844782487600,9.402487548828125,0.22281646728515625,-2.0736632347106934,0.36402082443237305
1683140844800322000,9.420322021484376,0.23096942901611328,-2.03497052192688,0.4852498769760132
1683140844818165800,9.438165771484375,0.2436542510986328,-2.0394046306610107,0.4154545068740845
1683140844836003000,9.456003173828124,0.2689170837402344,-2.003312826156616,0.44462907314300537
1683140844853842700,9.4738427734375,0.24530410766601562,-2.029618740081787,0.47824525833129883
1683140844871682300,9.491682373046874,0.2278585433959961,-2.0127899646759033,0.43077805638313293
1683140844889522000,9.50952197265625,0.3265113830566406,-2.050347089767456,0.45954811573028564
1683140844907360500,9.527360595703126,0.2395038604736328,-2.0248610973358154,0.36960145831108093
1683140844925202200,9.5452021484375,0.2695798873901367,-2.029670476913452,0.4359096884727478
1683140844943041000,9.563041015625,0.22950267791748047,-1.9831950664520264,0.42040595412254333
1683140844960881000,9.580880859375,0.2156047821044922,-2.0038039684295654,0.4666396975517273
1683140844978720300,9.59872021484375,0.2638225555419922,-1.978948712348938,0.42596808075904846
1683140844996559600,9.6165595703125,0.17853736877441406,-1.9935472011566162,0.4844557046890259
1683140845014399500,9.6343994140625,0.23724842071533203,-2.0298187732696533,0.4431818723678589
1683140845032224800,9.652224853515625,0.27445316314697266,-1.9804235696792603,0.39059486985206604
1683140845050081800,9.670081787109375,0.22135162353515625,-1.9856007099151611,0.4128182828426361
1683140845067918000,9.68791796875,0.20258235931396484,-1.950676679611206,0.44362545013427734
1683140845085758000,9.705758056640626,0.22100257873535156,-1.967148780822754,0.4136293828487396
1683140845103597600,9.72359765625,0.27343082427978516,-1.92645263671875,0.4477270245552063
1683140845121437400,9.7414375,0.16233158111572266,-1.9686881303787231,0.48269814252853394
1683140845139276800,9.75927685546875,0.24851703643798828,-1.9663604497909546,0.43708276748657227
1683140845157116400,9.777116455078126,0.3395252227783203,-1.982498049736023,0.35053637623786926
1683140845174956000,9.7949560546875,0.20459938049316406,-1.945035696029663,0.4367809295654297
1683140845192795600,9.812795654296876,0.2550382614135742,-1.9692976474761963,0.3766288757324219
1683140845210635300,9.83063525390625,0.2528190612792969,-1.8997739553451538,0.38577279448509216
1683140845228475000,9.848474853515626,0.23966121673583984,-1.9258859157562256,0.47193479537963867
1683140845246314500,9.866314453125,0.22418212890625,-1.9231886863708496,0.4120458960533142
1683140845264154400,9.884154296875,0.1914968490600586,-1.9361159801483154,0.46084845066070557
1683140845281993700,9.90199365234375,0.2546110153198242,-1.9450864791870117,0.3819986581802368
1683140845299833300,9.919833251953126,0.19449520111083984,-1.9197101593017578,0.42679768800735474
1683140845317671400,9.93767138671875,0.2106943130493164,-1.896259069442749,0.3949836790561676
1683140845335513600,9.955513671875,0.20740318298339844,-1.8864831924438477,0.4311802387237549
1683140845353352000,9.97335205078125,0.21405982971191406,-1.8796443939208984,0.4067612886428833
1683140845371191800,9.99119189453125,0.22962474822998047,-1.8729751110076904,0.45472705364227295
1683140845389031200,10.00903125,0.14728260040283203,-1.9172974824905396,0.41542109847068787
1683140845406860300,10.0268603515625,0.2616119384765625,-1.8875266313552856,0.3888924717903137
1683140845424710700,10.044710693359375,0.22805309295654297,-1.9064511060714722,0.37922099232673645
1683140845442550300,10.06255029296875,0.1940135955810547,-1.8551883697509766,0.41607263684272766
1683140845460390000,10.080389892578125,0.2257061004638672,-1.8787181377410889,0.4126753509044647
1683140845478230000,10.09822998046875,0.23016929626464844,-1.8307757377624512,0.421347439289093
1683140845496069400,10.1160693359375,0.25091075897216797,-1.8755404949188232,0.4570053815841675
1683140845513908700,10.13390869140625,0.1813802719116211,-1.865234613418579,0.3726810812950134
1683140845531744800,10.151744873046875,0.2570915222167969,-1.8793874979019165,0.39040064811706543
1683140845549588500,10.16958837890625,0.22083473205566406,-1.857424259185791,0.3862651586532593
1683140845567426800,10.1874267578125,0.19191455841064453,-1.862307071685791,0.3990611135959625
1683140845585268200,10.205268310546876,0.20979690551757812,-1.8155157566070557,0.40870362520217896
1683140845603107300,10.223107421875,0.15980815887451172,-1.819282054901123,0.4204452335834503
1683140845620947000,10.240947021484375,0.1968841552734375,-1.821967601776123,0.4319446086883545
1683140845638786300,10.258786376953125,0.16109466552734375,-1.8336403369903564,0.43533754348754883
1683140845656626000,10.2766259765625,0.15546321868896484,-1.8555982112884521,0.36015379428863525
1683140845674465300,10.29446533203125,0.21967792510986328,-1.8091473579406738,0.41814473271369934
1683140845692305200,10.31230517578125,0.18320465087890625,-1.8233987092971802,0.3447306752204895
1683140845710144800,10.330144775390625,0.18923568725585938,-1.7796181440353394,0.4475014805793762
1683140845727981300,10.347981201171875,0.15701770782470703,-1.806780457496643,0.3965212404727936
1683140845745826800,10.365826904296876,0.2152271270751953,-1.7737996578216553,0.4155306816101074
1683140845763664000,10.383663818359375,0.19768142700195312,-1.8204851150512695,0.4378941059112549
1683140845781503500,10.40150341796875,0.18067550659179688,-1.8061445951461792,0.3358839452266693
1683140845799342600,10.419342529296875,0.2702178955078125,-1.8234047889709473,0.3598824441432953
1683140845817182200,10.43718212890625,0.18339157104492188,-1.78489351272583,0.39033961296081543
1683140845835021800,10.455021728515625,0.2226114273071289,-1.7980209589004517,0.36583641171455383
1683140845852861700,10.47286181640625,0.19830894470214844,-1.7466583251953125,0.37571096420288086
1683140845870701300,10.490701416015625,0.17496871948242188,-1.777738094329834,0.436924546957016
1683140845888529000,10.50852880859375,0.21302318572998047,-1.7871558666229248,0.3884793519973755
1683140845906381800,10.5263818359375,0.1303873062133789,-1.7706313133239746,0.40442463755607605
1683140845924220700,10.544220703125,0.1774749755859375,-1.7831848859786987,0.35396677255630493
1683140845942059800,10.562059814453125,0.18929386138916016,-1.7547599077224731,0.391035258769989
1683140845959899600,10.579899658203125,0.1707763671875,-1.7367889881134033,0.3709093928337097
1683140845977727500,10.5977275390625,0.1563892364501953,-1.7169146537780762,0.3848872780799866
1683140845995579100,10.6155791015625,0.1161203384399414,-1.731388807296753,0.4194049537181854
1683140846013417200,10.633417236328125,0.2252063751220703,-1.7150132656097412,0.42489001154899597
1683140846031259100,10.651259033203125,0.15465736389160156,-1.7577232122421265,0.40195751190185547
1683140846049098000,10.669097900390625,0.18587779998779297,-1.7426024675369263,0.3388051986694336
1683140846066937300,10.686937255859375,0.2738304138183594,-1.7640544176101685,0.32459306716918945
1683140846084777000,10.70477685546875,0.15603923797607422,-1.6950550079345703,0.40136104822158813
1683140846102614300,10.7226142578125,0.1926565170288086,-1.7232087850570679,0.36843135952949524
1683140846120458800,10.740458740234375,0.1637554168701172,-1.6816177368164062,0.36767199635505676
1683140846138296000,10.758296142578125,0.20303821563720703,-1.7205297946929932,0.42688560485839844
1683140846156135400,10.776135498046875,0.16870594024658203,-1.7174735069274902,0.3641963005065918
1683140846173975000,10.79397509765625,0.1441364288330078,-1.7150843143463135,0.37482303380966187
1683140846191810800,10.811810791015626,0.18413257598876953,-1.7024881839752197,0.34045955538749695
1683140846209654300,10.829654296875,0.13820457458496094,-1.681600570678711,0.4117692708969116
1683140846227494000,10.847493896484375,0.1859445571899414,-1.6711981296539307,0.3824692368507385
1683140846245333800,10.865333740234375,0.12575340270996094,-1.6627895832061768,0.3498890995979309
1683140846263173400,10.88317333984375,0.12102603912353516,-1.6833072900772095,0.42020881175994873
1683140846281013200,10.90101318359375,0.1910562515258789,-1.6694841384887695,0.41109535098075867
1683140846298852600,10.9188525390625,0.13982200622558594,-1.6951038837432861,0.32596665620803833
1683140846316692000,10.93669189453125,0.16614818572998047,-1.6504499912261963,0.3709436058998108
1683140846334531800,10.95453173828125,0.21828937530517578,-1.6707513332366943,0.32322630286216736
1683140846352359400,10.972359375,0.1704883575439453,-1.6220147609710693,0.40632709860801697
1683140846370199300,10.99019921875,0.1344461441040039,-1.6699843406677246,0.3809472322463989
1683140846388050700,11.00805078125,0.163299560546875,-1.6335694789886475,0.3670317828655243
1683140846405888000,11.025887939453124,0.23334121704101562,-1.6780035495758057,0.3838837146759033
1683140846423730200,11.043730224609375,0.14702129364013672,-1.6586837768554688,0.3327421545982361
1683140846441569300,11.0615693359375,0.19965076446533203,-1.665216326713562,0.32635602355003357
1683140846459409200,11.0794091796875,0.18317127227783203,-1.6271331310272217,0.3317587971687317
1683140846477248800,11.097248779296875,0.1357860565185547,-1.6362824440002441,0.3872002959251404
1683140846495090400,11.11509033203125,0.18431472778320312,-1.6010756492614746,0.3431493043899536
1683140846512926500,11.132926513671874,0.09076881408691406,-1.6127498149871826,0.3922976851463318
1683140846530767400,11.150767333984374,0.16942214965820312,-1.6475114822387695,0.3626183867454529
1683140846548607500,11.168607421875,0.15744972229003906,-1.6190664768218994,0.37843310832977295
1683140846566445600,11.186445556640624,0.1440725326538086,-1.631147861480713,0.3186669647693634
1683140846584269600,11.20426953125,0.18570995330810547,-1.5849542617797852,0.3506662845611572
1683140846602119700,11.22211962890625,0.15702533721923828,-1.6004936695098877,0.352764755487442
1683140846619968000,11.239968017578125,0.16182613372802734,-1.570245623588562,0.39712512493133545
1683140846637805300,11.257805419921874,0.08697700500488281,-1.604802131652832,0.3596305847167969
1683140846655645200,11.275645263671874,0.1780376434326172,-1.5877772569656372,0.34339967370033264
1683140846673484800,11.29348486328125,0.22797393798828125,-1.6259733438491821,0.3335990011692047
1683140846691324400,11.311324462890624,0.11427021026611328,-1.587409496307373,0.35939735174179077
1683140846709163800,11.329163818359374,0.2001628875732422,-1.610073447227478,0.28008317947387695
1683140846727004000,11.34700390625,0.17046165466308594,-1.5330665111541748,0.35028570890426636
1683140846744843300,11.36484326171875,0.1771240234375,-1.5880526304244995,0.39431822299957275
1683140846762671400,11.38267138671875,0.17087173461914062,-1.5651239156723022,0.2848376929759979
1683140846780522500,11.4005224609375,0.13078594207763672,-1.5749516487121582,0.3732154667377472
1683140846798362400,11.4183623046875,0.19476604461669922,-1.5992296934127808,0.34266847372055054
1683140846816201700,11.43620166015625,0.10527324676513672,-1.5671969652175903,0.3461408019065857
1683140846834035000,11.454034912109375,0.1504201889038086,-1.5620886087417603,0.3285333812236786
1683140846851877400,11.47187744140625,0.15158939361572266,-1.5341355800628662,0.33489513397216797
1683140846869720600,11.489720458984374,0.1443920135498047,-1.5293110609054565,0.3558961749076843
1683140846887560200,11.507560302734374,0.14420413970947266,-1.5263066291809082,0.3668549954891205
1683140846905399600,11.525399658203124,0.07935619354248047,-1.5541613101959229,0.32121092081069946
1683140846923239700,11.54323974609375,0.19375896453857422,-1.536544919013977,0.34326890110969543
1683140846941079300,11.561079345703124,0.15790653228759766,-1.5693219900131226,0.29974165558815
1683140846958918700,11.578918701171874,0.12329292297363281,-1.5097306966781616,0.36136290431022644
1683140846976758300,11.59675830078125,0.17952251434326172,-1.5364980697631836,0.28358298540115356
1683140846994586600,11.614586669921875,0.14196109771728516,-1.4821157455444336,0.35045623779296875
1683140847012437800,11.632437744140624,0.16929912567138672,-1.5405378341674805,0.3735042214393616
1683140847030277400,11.65027734375,0.12921714782714844,-1.5088610649108887,0.26025187969207764
1683140847048113700,11.66811376953125,0.18233776092529297,-1.5360640287399292,0.33667469024658203
1683140847065958400,11.68595849609375,0.16721725463867188,-1.5402430295944214,0.3018481433391571
1683140847083797800,11.7037978515625,0.10969161987304688,-1.5200281143188477,0.3371402621269226
1683140847101634600,11.721634521484376,0.1285543441772461,-1.4891180992126465,0.30106785893440247
1683140847119476700,11.739476806640624,0.09876346588134766,-1.4800174236297607,0.3640560805797577
1683140847137313800,11.757313720703126,0.1529092788696289,-1.4773848056793213,0.35427534580230713
1683140847155155700,11.77515576171875,0.1014394760131836,-1.4848958253860474,0.3196834921836853
1683140847172994000,11.792994140625,0.08686542510986328,-1.502417802810669,0.3122914433479309
1683140847190834000,11.810833984375,0.19140911102294922,-1.4940699338912964,0.3328417241573334
1683140847208673500,11.828673583984376,0.09664630889892578,-1.4891057014465332,0.2932175099849701
1683140847226513400,11.846513427734376,0.11903572082519531,-1.4473588466644287,0.3281410038471222
1683140847244353000,11.86435302734375,0.11642837524414062,-1.4712022542953491,0.32790684700012207
1683140847262192400,11.8821923828125,0.15193557739257812,-1.4416078329086304,0.3600386679172516
1683140847280036400,11.900036376953125,0.13405227661132812,-1.4828109741210938,0.35703298449516296
1683140847297856500,11.9178564453125,0.11304378509521484,-1.4666684865951538,0.27176129817962646
1683140847315712300,11.935712158203126,0.2298126220703125,-1.5038092136383057,0.30497950315475464
1683140847333547000,11.953547119140625,0.11377429962158203,-1.4596933126449585,0.2776676118373871
1683140847351393300,11.971393310546874,0.15048694610595703,-1.4663219451904297,0.3007306158542633
1683140847369218300,11.98921826171875,0.13079261779785156,-1.4088395833969116,0.2998330593109131
1683140847387069700,12.007069580078126,0.09764575958251953,-1.4331183433532715,0.3627137541770935
1683140847404909300,12.024909423828126,0.13836383819580078,-1.4535670280456543,0.3302116096019745
1683140847422749000,12.0427490234375,0.06619548797607422,-1.4402289390563965,0.331491082906723
1683140847440588800,12.0605888671875,0.11526966094970703,-1.4684817790985107,0.3075350224971771
1683140847458413600,12.07841357421875,0.13509845733642578,-1.4318186044692993,0.3174385130405426
1683140847476267800,12.096267822265625,0.11188125610351562,-1.4171253442764282,0.26975876092910767
1683140847494108000,12.11410791015625,0.10928726196289062,-1.3942556381225586,0.34235823154449463
1683140847511947000,12.131947021484375,0.08252429962158203,-1.4063690900802612,0.35284894704818726
1683140847529784000,12.1497841796875,0.1629934310913086,-1.3925487995147705,0.3421346843242645
1683140847547629300,12.16762939453125,0.059622764587402344,-1.4287663698196411,0.344765305519104
1683140847565463000,12.185463134765625,0.11230087280273438,-1.4168462753295898,0.312530517578125
1683140847583308500,12.20330859375,0.22148704528808594,-1.444440484046936,0.2753848731517792
1683140847601145300,12.221145263671875,0.11254215240478516,-1.3774811029434204,0.28208810091018677
1683140847618985000,12.23898486328125,0.17405128479003906,-1.411126732826233,0.29666075110435486
1683140847636824000,12.256823974609375,0.09965896606445312,-1.3546618223190308,0.30463939905166626
1683140847654655000,12.274655029296875,0.12942981719970703,-1.3979250192642212,0.3420471251010895
1683140847672503300,12.29250341796875,0.1225128173828125,-1.384060263633728,0.2864157259464264
1683140847690343000,12.310343017578125,0.09256362915039062,-1.3985638618469238,0.3472989797592163
1683140847708182500,12.3281826171875,0.14270973205566406,-1.4007841348648071,0.27875325083732605
1683140847726022400,12.3460224609375,0.1002206802368164,-1.3696072101593018,0.2928251028060913
1683140847743862000,12.363862060546875,0.1392679214477539,-1.3527462482452393,0.2866222858428955
1683140847761702000,12.381701904296875,0.07457447052001953,-1.343522071838379,0.31436687707901
1683140847779541500,12.39954150390625,0.07215118408203125,-1.3591715097427368,0.3473493158817291
1683140847797379800,12.4173798828125,0.1579751968383789,-1.3478474617004395,0.31375133991241455
1683140847815221500,12.435221435546875,0.04376697540283203,-1.3861117362976074,0.2759726941585541
1683140847833061000,12.45306103515625,0.11532783508300781,-1.3519766330718994,0.3231965899467468
1683140847850899700,12.470899658203125,0.1785440444946289,-1.3634703159332275,0.2533186078071594
1683140847868739000,12.488739013671875,0.1141500473022461,-1.3119914531707764,0.30390477180480957
1683140847886579000,12.506578857421875,0.1140899658203125,-1.3598177433013916,0.31994473934173584
1683140847904418800,12.524418701171875,0.1067352294921875,-1.3113957643508911,0.28889861702919006
1683140847922258400,12.542258544921875,0.17604446411132812,-1.3635995388031006,0.31962066888809204
1683140847940097500,12.56009765625,0.0853433609008789,-1.3391823768615723,0.2525297999382019
1683140847957937200,12.577937255859375,0.1273355484008789,-1.3542464971542358,0.3268771171569824
1683140847975776800,12.59577685546875,0.15828895568847656,-1.3378369808197021,0.2584584355354309
1683140847993617000,12.613616943359375,0.10838508605957031,-1.3252160549163818,0.2833646535873413
1683140848011456000,12.6314560546875,0.14847660064697266,-1.291721224784851,0.29332593083381653
1683140848029292800,12.649292724609374,0.045586585998535156,-1.3040461540222168,0.31778454780578613
1683140848047138300,12.66713818359375,0.11449527740478516,-1.3308424949645996,0.2837812304496765
1683140848064974800,12.684974853515625,0.12252235412597656,-1.2954437732696533,0.3044582009315491
1683140848082814700,12.702814697265625,0.05794811248779297,-1.3289803266525269,0.2738471031188965
1683140848100654000,12.720654052734375,0.14613819122314453,-1.2941970825195312,0.3062132000923157
1683140848118493700,12.73849365234375,0.12993240356445312,-1.2899583578109741,0.22512860596179962
1683140848136333300,12.756333251953125,0.12842750549316406,-1.26988685131073,0.335330992937088
1683140848154172700,12.774172607421875,0.04803943634033203,-1.3002815246582031,0.30354899168014526
1683140848172012300,12.79201220703125,0.12311840057373047,-1.278120517730713,0.2653113007545471
1683140848189852200,12.80985205078125,0.17580509185791016,-1.3004388809204102,0.302679181098938
1683140848207689500,12.827689453125,0.06522750854492188,-1.2948987483978271,0.288524329662323
1683140848225519000,12.84551904296875,0.17867660522460938,-1.304834246635437,0.249237522482872
1683140848243374000,12.8633740234375,0.14433956146240234,-1.2468148469924927,0.24903351068496704
1683140848261210600,12.881210693359375,0.13634777069091797,-1.2902367115020752,0.32875293493270874
1683140848279050000,12.899050048828125,0.10035991668701172,-1.2573201656341553,0.22073210775852203
1683140848296886000,12.916885986328126,0.07786273956298828,-1.2719378471374512,0.3162372410297394
1683140848314729200,12.934729248046875,0.14765071868896484,-1.2912890911102295,0.2620982229709625
1683140848332569000,12.952569091796875,0.0785369873046875,-1.2753665447235107,0.26639729738235474
1683140848350408400,12.970408447265624,0.07561779022216797,-1.276497721672058,0.2745722830295563
1683140848368248000,12.988248046875,0.10368633270263672,-1.234712839126587,0.2487313151359558
1683140848386088200,13.006088134765625,0.08975887298583984,-1.2391893863677979,0.27818232774734497
1683140848403927300,13.02392724609375,0.09940147399902344,-1.2222216129302979,0.2923705577850342
1683140848421763800,13.041763916015626,0.05217552185058594,-1.246569275856018,0.31855863332748413
1683140848439606300,13.059606201171874,0.1615161895751953,-1.245232343673706,0.2485688477754593
1683140848457444900,13.07744482421875,0.1066131591796875,-1.2791340351104736,0.26565176248550415
1683140848475286800,13.095286865234375,0.04820537567138672,-1.23609459400177,0.28528231382369995
1683140848493125000,13.113125,0.17964553833007812,-1.2576924562454224,0.2234143316745758
1683140848510964700,13.13096484375,0.10058879852294922,-1.189131498336792,0.25584614276885986
1683140848528800800,13.14880078125,0.12654495239257812,-1.2453808784484863,0.317166268825531
1683140848546647800,13.166647705078125,0.07230758666992188,-1.218683123588562,0.2528972029685974
1683140848564483800,13.18448388671875,0.11269950866699219,-1.2413644790649414,0.2660312354564667
1683140848582318600,13.202318603515625,0.11796283721923828,-1.2455854415893555,0.24712109565734863
1683140848600162800,13.220162841796874,0.05338478088378906,-1.2294464111328125,0.31062495708465576
1683140848617990400,13.237990478515625,0.11858654022216797,-1.2208374738693237,0.23608368635177612
1683140848635842000,13.255842041015624,0.07845687866210938,-1.193416714668274,0.27371746301651
1683140848653678600,13.2736787109375,0.11680030822753906,-1.1883518695831299,0.29083380103111267
1683140848671524000,13.291524169921875,0.05485725402832031,-1.1834759712219238,0.26317691802978516
1683140848689361000,13.30936083984375,0.02962207794189453,-1.215728998184204,0.28163933753967285
1683140848707200300,13.3272001953125,0.1430826187133789,-1.2001320123672485,0.28621309995651245
1683140848725039900,13.345039794921876,0.0635080337524414,-1.2249375581741333,0.2173675298690796
1683140848742867700,13.36286767578125,0.07883930206298828,-1.186880350112915,0.287276953458786
1683140848760719400,13.38071923828125,0.11341285705566406,-1.1977977752685547,0.22438585758209229
1683140848778559000,13.39855908203125,0.09879398345947266,-1.1488378047943115,0.29173198342323303
1683140848796398300,13.4163984375,0.08129596710205078,-1.1929166316986084,0.29733625054359436
1683140848814237700,13.43423779296875,0.0729055404663086,-1.1705105304718018,0.21843500435352325
1683140848832077300,13.452077392578126,0.15760421752929688,-1.208505630493164,0.2818225026130676
1683140848849917200,13.469917236328126,0.08697986602783203,-1.1928045749664307,0.24077393114566803
1683140848867756500,13.487756591796876,0.11185359954833984,-1.190513253211975,0.2120954841375351
1683140848885596200,13.50559619140625,0.10643196105957031,-1.1519455909729004,0.26209738850593567
1683140848903436000,13.52343603515625,0.051731109619140625,-1.1627628803253174,0.3000553250312805
1683140848921275400,13.541275390625,0.10290241241455078,-1.161452054977417,0.23674626648426056
1683140848939115300,13.559115234375,0.027120590209960938,-1.1437901258468628,0.26321178674697876
1683140848956954400,13.576954345703125,0.06975269317626953,-1.1891250610351562,0.2750335931777954
1683140848974794000,13.5947939453125,0.12375545501708984,-1.1534812450408936,0.26863646507263184
1683140848992633300,13.61263330078125,0.07503128051757812,-1.1552519798278809,0.17947447299957275
1683140849010473200,13.63047314453125,0.0854806900024414,-1.1264610290527344,0.29209691286087036
1683140849028312600,13.6483125,0.057784080505371094,-1.1266241073608398,0.243682861328125
1683140849046140700,13.666140625,0.11598396301269531,-1.1129422187805176,0.2876628041267395
1683140849063992000,13.683991943359375,0.04742145538330078,-1.1454412937164307,0.2884826064109802
1683140849081827800,13.701827880859375,0.1032571792602539,-1.1509501934051514,0.1960948407649994
1683140849099671300,13.71967138671875,0.1553363800048828,-1.1774194240570068,0.2519829273223877
1683140849117510400,13.737510498046875,0.04521751403808594,-1.13151216506958,0.1955743283033371
1683140849135350000,13.75535009765625,0.1185598373413086,-1.1432104110717773,0.22515588998794556
1683140849153190000,13.77318994140625,0.08618927001953125,-1.087969422340393,0.27145272493362427
1683140849171029200,13.791029296875,0.09552288055419922,-1.1286146640777588,0.2787790298461914
1683140849188869600,13.80886962890625,0.09106826782226562,-1.106181263923645,0.22076143324375153
1683140849206707700,13.826707763671875,0.047321319580078125,-1.1255930662155151,0.2835710942745209
1683140849224548400,13.84454833984375,0.09601211547851562,-1.139430284500122,0.22665315866470337
1683140849242388000,13.862387939453125,0.055278778076171875,-1.120934009552002,0.24300611019134521
1683140849260226800,13.880226806640625,0.0676126480102539,-1.096308708190918,0.20555450022220612
1683140849278066400,13.89806640625,0.050772666931152344,-1.0761222839355469,0.2838606834411621
1683140849295906300,13.91590625,0.05721282958984375,-1.0898802280426025,0.28896886110305786
1683140849313747000,13.933746826171875,0.11569499969482422,-1.0723903179168701,0.23153561353683472
1683140849331585300,13.951585205078125,0.0005636215209960938,-1.1163644790649414,0.2795564532279968
1683140849349424400,13.96942431640625,0.08157920837402344,-1.092064619064331,0.2613269090652466
1683140849367262700,13.9872626953125,0.1642627716064453,-1.1181905269622803,0.17815664410591125
1683140849385107000,14.00510693359375,0.07254981994628906,-1.0589563846588135,0.2357451468706131
1683140849402943200,14.022943115234375,0.11559200286865234,-1.101454257965088,0.23398926854133606
1683140849420783600,14.04078369140625,0.06925487518310547,-1.0392382144927979,0.2513825297355652
1683140849438622700,14.058622802734375,0.13416194915771484,-1.0940974950790405,0.2801735997200012
1683140849456462300,14.07646240234375,0.06842517852783203,-1.0859477519989014,0.20025289058685303
1683140849474302000,14.094302001953125,0.09827899932861328,-1.1089184284210205,0.218608558177948
1683140849492141600,14.1121416015625,0.09523487091064453,-1.0896193981170654,0.25145861506462097
1683140849509980700,14.129980712890625,0.02011585235595703,-1.079188346862793,0.21504679322242737
1683140849527820500,14.147820556640625,0.06645488739013672,-1.0354300737380981,0.21980570256710052
1683140849545660400,14.165660400390625,0.027925491333007812,-1.0484980344772339,0.2783227264881134
1683140849563496700,14.18349658203125,0.08963203430175781,-1.059290885925293,0.20720787346363068
1683140849581342200,14.20134228515625,0.07831573486328125,-1.038097858428955,0.24942561984062195
1683140849599178800,14.2191787109375,0.051384925842285156,-1.0988364219665527,0.1944422423839569
1683140849617018000,14.23701806640625,0.10543251037597656,-1.045717477798462,0.26190173625946045
1683140849634846200,14.25484619140625,0.07257270812988281,-1.0552715063095093,0.15984462201595306
1683140849652685600,14.272685546875,0.05956268310546875,-1.0189536809921265,0.25935500860214233
1683140849670531600,14.290531494140625,0.0649404525756836,-1.0516047477722168,0.2586577832698822
1683140849688376600,14.30837646484375,0.1046915054321289,-1.0126264095306396,0.20086030662059784
1683140849706204200,14.3262041015625,0.11814594268798828,-1.0466753244400024,0.26086002588272095
1683140849724055600,14.3440556640625,0.06624412536621094,-1.0569636821746826,0.18808549642562866
1683140849741891300,14.361891357421875,0.12696456909179688,-1.0564711093902588,0.22314926981925964
1683140849759732000,14.37973193359375,0.07584667205810547,-1.0254594087600708,0.1945350170135498
1683140849777577200,14.3975771484375,0.052707672119140625,-1.0352948904037476,0.23869261145591736
1683140849795413800,14.415413818359376,0.08580493927001953,-1.000016689300537,0.2155001312494278
1683140849813250600,14.43325048828125,0.04292774200439453,-1.024193286895752,0.24710240960121155
1683140849831096000,14.451095947265625,0.10150718688964844,-1.0295119285583496,0.21712270379066467
1683140849848932900,14.468932861328126,0.03930091857910156,-1.0252900123596191,0.25458770990371704
1683140849866771700,14.486771728515626,0.022627830505371094,-1.0321857929229736,0.19826143980026245
1683140849884608800,14.50460888671875,0.094818115234375,-1.0047008991241455,0.2516012489795685
1683140849902451200,14.522451171875,0.07456398010253906,-1.0036940574645996,0.1663607805967331
1683140849920293600,14.540293701171874,0.06563663482666016,-0.973182201385498,0.26349303126335144
1683140849938130200,14.558130126953126,0.007961273193359375,-0.9958370327949524,0.27848392724990845
1683140849955969500,14.575969482421876,0.1079263687133789,-0.991766095161438,0.21327108144760132
1683140849973809200,14.59380908203125,0.05400371551513672,-1.0263890027999878,0.26033055782318115
1683140849991648800,14.611648681640625,0.019138336181640625,-1.0089478492736816,0.203539177775383
1683140850009488100,14.629488037109375,0.15144920349121094,-1.0209167003631592,0.1872444748878479
1683140850027327000,14.647326904296875,0.07056331634521484,-0.9658151865005493,0.20671407878398895
1683140850045168400,14.66516845703125,0.09818267822265625,-1.0060676336288452,0.2239532470703125
1683140850063007200,14.68300732421875,0.04347515106201172,-0.9644145369529724,0.2068156599998474
1683140850080846300,14.700846435546875,0.05713081359863281,-0.992935836315155,0.23432843387126923
1683140850098686200,14.718686279296875,0.0680990219116211,-1.0002200603485107,0.2040674090385437
1683140850116525600,14.736525634765625,0.03083038330078125,-0.9964631199836731,0.213789165019989
1683140850134350300,14.754350341796876,0.07070446014404297,-0.9866429567337036,0.21225610375404358
1683140850152204300,14.772204345703125,0.03650856018066406,-0.9637702703475952,0.1890946328639984
1683140850170033400,14.790033447265625,0.05202007293701172,-0.9388093948364258,0.21271605789661407
1683140850187883800,14.8078837890625,0.03430747985839844,-0.9446407556533813,0.23470187187194824
1683140850205721000,14.82572119140625,0.026111602783203125,-0.971550703048706,0.20177432894706726
1683140850223562800,14.843562744140625,0.10702037811279297,-0.955337405204773,0.2328788787126541
1683140850241402400,14.86140234375,0.03278064727783203,-0.9935523867607117,0.17740388214588165
1683140850259241700,14.87924169921875,0.04366016387939453,-0.938370406627655,0.24124667048454285
1683140850277081300,14.897081298828125,0.0869607925415039,-0.9742231369018555,0.15216539800167084
1683140850294921000,14.9149208984375,0.0455474853515625,-0.8955422043800354,0.23200762271881104
1683140850312760600,14.932760498046875,0.07200145721435547,-0.9712614417076111,0.2517736852169037
1683140850330600000,14.950599853515625,0.05984210968017578,-0.9375007152557373,0.1436246931552887
1683140850348439600,14.968439453125,0.11107635498046875,-0.9584580063819885,0.2309451699256897
1683140850366275800,14.98627587890625,0.07225608825683594,-0.9767007231712341,0.18995779752731323
1683140850384121300,15.004121337890625,0.04778575897216797,-0.9521603584289551,0.21319003403186798
1683140850401956900,15.021956787109374,0.054447174072265625,-0.9309672117233276,0.17578503489494324
1683140850419801900,15.0398017578125,0.01699066162109375,-0.9249950051307678,0.23491425812244415
1683140850437635600,15.057635498046874,0.08541488647460938,-0.9134484529495239,0.2142176628112793
1683140850455485200,15.075485107421875,0.014178276062011719,-0.9269295334815979,0.19109991192817688
1683140850473315800,15.09331591796875,0.02455902099609375,-0.9456844329833984,0.1972653716802597
1683140850491155500,15.111155517578124,0.12001705169677734,-0.931303858757019,0.2128700464963913
1683140850508995000,15.1289951171875,-0.010961532592773438,-0.9296655654907227,0.18690960109233856
1683140850526834700,15.146834716796874,0.025720596313476562,-0.8949523568153381,0.20215478539466858
1683140850544674300,15.16467431640625,0.05528736114501953,-0.9095743894577026,0.20195430517196655
1683140850562514000,15.182513916015624,0.07002639770507812,-0.8855594992637634,0.2422141432762146
1683140850580353300,15.200353271484374,0.024915695190429688,-0.9295703172683716,0.21084365248680115
1683140850598192600,15.218192626953124,0.06003284454345703,-0.8989236354827881,0.17479631304740906
1683140850616032300,15.2360322265625,0.17438030242919922,-0.9559907913208008,0.17711085081100464
1683140850633859600,15.253859619140625,0.013214111328125,-0.9142783880233765,0.20916573703289032
1683140850651711500,15.27171142578125,0.08048152923583984,-0.9383038878440857,0.13442543148994446
1683140850669539000,15.2895390625,0.061554908752441406,-0.853910505771637,0.19276371598243713
1683140850687389400,15.307389404296876,0.04966545104980469,-0.9133690595626831,0.2677064538002014
1683140850705230800,15.32523095703125,0.07801342010498047,-0.8883163928985596,0.12663623690605164
1683140850723069400,15.3430693359375,0.0023317337036132812,-0.8737512230873108,0.2213287353515625
1683140850740908500,15.360908447265626,0.10586261749267578,-0.9383225440979004,0.1950625479221344
1683140850758748400,15.37874853515625,0.023369789123535156,-0.8787392377853394,0.2184520810842514
1683140850776588000,15.396588134765626,0.01771259307861328,-0.891802966594696,0.15933158993721008
1683140850794416600,15.414416748046875,0.043204307556152344,-0.862652063369751,0.22692659497261047
1683140850812267800,15.432267822265626,0.031890869140625,-0.8689532279968262,0.20895445346832275
1683140850830104800,15.450104736328125,0.0872344970703125,-0.8655469417572021,0.20965620875358582
1683140850847945700,15.46794580078125,-0.015376091003417969,-0.8915982246398926,0.20242252945899963
1683140850865785600,15.48578564453125,0.09241962432861328,-0.8881996273994446,0.21234595775604248
1683140850883624400,15.50362451171875,0.10764026641845703,-0.8989193439483643,0.15795104205608368
1683140850901464300,15.52146435546875,0.017638206481933594,-0.8612191677093506,0.18599030375480652
1683140850919303400,15.539303466796875,0.1041727066040039,-0.885357141494751,0.1713145673274994
1683140850937143300,15.557143310546875,0.0750722885131836,-0.8154817819595337,0.19435836374759674
1683140850954982700,15.574982666015625,0.09265708923339844,-0.8743482232093811,0.24219775199890137
1683140850972822000,15.592822021484375,0.03955841064453125,-0.8661209940910339,0.13837644457817078
1683140850990661600,15.61066162109375,0.048348426818847656,-0.8731493353843689,0.2254486382007599
1683140851008501000,15.6285009765625,0.07143974304199219,-0.8912951350212097,0.1761379987001419
1683140851026340600,15.646340576171875,0.029603958129882812,-0.8702746629714966,0.19538819789886475
1683140851044180000,15.664179931640625,0.07426834106445312,-0.8418000340461731,0.1413728892803192
1683140851062019800,15.682019775390625,0.029168128967285156,-0.8283076286315918,0.21851886808872223
1683140851079859200,15.699859130859375,0.03765392303466797,-0.8289580345153809,0.22932541370391846
1683140851097693700,15.717693603515626,0.045723915100097656,-0.8299064040184021,0.2010473906993866
1683140851115538000,15.735537841796875,-0.019234657287597656,-0.8743298649787903,0.1889950931072235
1683140851133373700,15.753373779296876,0.09332466125488281,-0.8462502956390381,0.1707790642976761
1683140851151221200,15.77122119140625,0.05325889587402344,-0.8620084524154663,0.1317092329263687
1683140851169056800,15.789056884765625,0.02765369415283203,-0.815853476524353,0.21121466159820557
1683140851186896100,15.806896240234375,0.054947853088378906,-0.8395135998725891,0.17080643773078918
1683140851204736000,15.824736083984375,0.06594085693359375,-0.7918321490287781,0.21390400826931
1683140851222575400,15.842575439453125,0.08733463287353516,-0.8401849269866943,0.23076361417770386
1683140851240414700,15.860414794921875,0.014369010925292969,-0.8243471384048462,0.1462981402873993
1683140851258253800,15.87825390625,0.09212017059326172,-0.8542302250862122,0.2029540091753006
1683140851276085200,15.896085205078125,0.0792083740234375,-0.8439717888832092,0.15062019228935242
1683140851293933000,15.91393310546875,0.03352832794189453,-0.8364434242248535,0.1724749505519867
1683140851311768800,15.931768798828125,0.06740188598632812,-0.8090928196907043,0.16786116361618042
1683140851329611800,15.94961181640625,0.0042743682861328125,-0.8137929439544678,0.20626389980316162
1683140851347450400,15.967450439453126,0.0562286376953125,-0.8183395862579346,0.18358007073402405
1683140851365292000,15.9852919921875,0.004645347595214844,-0.7950366139411926,0.19413453340530396
1683140851383127600,16.00312744140625,-0.01067352294921875,-0.8388087749481201,0.18302902579307556
1683140851400959200,16.020959228515625,0.09427165985107422,-0.8133217096328735,0.1856781244277954
1683140851418801000,16.03880078125,0.057824134826660156,-0.8159908056259155,0.09965603053569794
1683140851436648400,16.0566484375,0.05453300476074219,-0.7865182757377625,0.21456533670425415
1683140851454488000,16.074488037109376,0.014049530029296875,-0.8031930327415466,0.1838439702987671
1683140851472327700,16.09232763671875,0.07848834991455078,-0.7806835174560547,0.18233413994312286
1683140851490164500,16.11016455078125,0.06588363647460938,-0.816978931427002,0.21584172546863556
1683140851508009200,16.12800927734375,0.03198528289794922,-0.8140413165092468,0.11633789539337158
1683140851525846300,16.14584619140625,0.10881996154785156,-0.8203859925270081,0.18917936086654663
1683140851543685600,16.163685546875,0.030595779418945312,-0.7858155369758606,0.12581735849380493
1683140851561525500,16.181525390625,0.03347206115722656,-0.8122463226318359,0.19046801328659058
1683140851579364600,16.199364501953124,0.053870201110839844,-0.7573164105415344,0.16333580017089844
1683140851597204200,16.217204345703124,0.025534629821777344,-0.7897475361824036,0.2359585016965866
1683140851615043600,16.235043701171875,0.08079147338867188,-0.7948061227798462,0.14391624927520752
1683140851632887800,16.2528876953125,-0.012800216674804688,-0.7880162000656128,0.19967693090438843
1683140851650722600,16.27072265625,-0.00067901611328125,-0.8017172813415527,0.17073744535446167
1683140851668562000,16.28856201171875,0.06544780731201172,-0.7701914310455322,0.17349262535572052
1683140851686401300,16.3064013671875,0.056365966796875,-0.7705516815185547,0.12463532388210297
1683140851704241000,16.324240966796875,0.03488445281982422,-0.7490959167480469,0.21881194412708282
1683140851722076000,16.342075927734374,-0.02471923828125,-0.7701705694198608,0.21680545806884766
1683140851739917600,16.35991748046875,0.08455562591552734,-0.7573916912078857,0.16930069029331207
1683140851757761500,16.377761474609375,0.0071620941162109375,-0.7951082587242126,0.2070940136909485
1683140851775598300,16.395598388671875,-0.0014286041259765625,-0.7739510536193848,0.169336199760437
1683140851793426200,16.41342626953125,0.12844276428222656,-0.8038102388381958,0.130111426115036
1683140851811277600,16.431277587890627,0.03057098388671875,-0.7357567548751831,0.14888069033622742
1683140851829118500,16.449118408203127,0.06919193267822266,-0.7788335084915161,0.1813390851020813
1683140851846955000,16.466955078125,0.010889053344726562,-0.7386894822120667,0.1554793268442154
1683140851864796200,16.484796142578126,0.04002857208251953,-0.7730425000190735,0.18388576805591583
1683140851882635500,16.502635498046875,0.03897380828857422,-0.7683902382850647,0.14809063076972961
1683140851900475100,16.52047509765625,0.016483306884765625,-0.7735229730606079,0.1750790774822235
1683140851918314200,16.538314208984374,0.05814552307128906,-0.7635738849639893,0.15291263163089752
1683140851936153600,16.556153564453126,0.0030651092529296875,-0.7383117079734802,0.15560804307460785
1683140851953993000,16.573992919921874,0.04488563537597656,-0.7327335476875305,0.1775313913822174
1683140851971829000,16.5918291015625,-0.0007371902465820312,-0.7195079326629639,0.18112248182296753
1683140851989660200,16.60966015625,-0.0072174072265625,-0.747887372970581,0.20897476375102997
1683140852007500000,16.6275,0.09276676177978516,-0.7374049425125122,0.16087956726551056
1683140852025351200,16.64535107421875,-0.008882522583007812,-0.7642490863800049,0.14241451025009155
1683140852043190500,16.6631904296875,0.004364967346191406,-0.731422483921051,0.20007047057151794
1683140852061030000,16.68102978515625,0.09254074096679688,-0.7462725639343262,0.11864423006772995
1683140852078869200,16.698869140625,0.042502403259277344,-0.6880539059638977,0.18725073337554932
1683140852096709000,16.716709228515626,0.04176902770996094,-0.737075924873352,0.20857253670692444
1683140852114545400,16.73454541015625,0.025592803955078125,-0.7200771570205688,0.14374592900276184
1683140852132390400,16.752390380859374,0.099609375,-0.7578115463256836,0.17583885788917542
1683140852150227000,16.77022705078125,0.014436721801757812,-0.7387924194335938,0.14268174767494202
1683140852168066800,16.78806689453125,0.046657562255859375,-0.7547183036804199,0.10401185601949692
1683140852185906200,16.80590625,0.0439605712890625,-0.7066261768341064,0.19197812676429749
1683140852203745500,16.82374560546875,-0.01699542999267578,-0.7180516719818115,0.16281422972679138
1683140852221584600,16.841584716796874,0.026215553283691406,-0.6891589164733887,0.16180148720741272
1683140852239424000,16.859424072265625,-0.01803302764892578,-0.7198415398597717,0.20218190550804138
1683140852257263600,16.877263671875,0.028693199157714844,-0.7477615475654602,0.1310928463935852
1683140852275103200,16.895103271484373,0.04704761505126953,-0.7134904265403748,0.17542481422424316
1683140852292942300,16.9129423828125,-0.00357818603515625,-0.7338045835494995,0.12424637377262115
1683140852310781700,16.93078173828125,0.03456878662109375,-0.6886330246925354,0.15617519617080688
1683140852328621800,16.948621826171873,0.02405261993408203,-0.6989233493804932,0.18161052465438843
1683140852346461200,16.966461181640625,0.05233573913574219,-0.6752575635910034,0.17653809487819672
1683140852364300300,16.98430029296875,-0.022187232971191406,-0.7097687721252441,0.19870927929878235
1683140852382139600,17.0021396484375,0.0434112548828125,-0.7074462175369263,0.15615800023078918
1683140852399979300,17.019979248046877,0.13819313049316406,-0.7422412037849426,0.14164641499519348
1683140852417801000,17.037801025390625,0.015283584594726562,-0.7056080102920532,0.13990569114685059
1683140852435648800,17.055648681640626,0.08820629119873047,-0.7252840995788574,0.12036308646202087
1683140852453484300,17.073484375,0.03309154510498047,-0.662488579750061,0.14856481552124023
1683140852471339300,17.09133935546875,0.047669410705566406,-0.7074754238128662,0.19044582545757294
1683140852489176600,17.109176513671876,0.060443878173828125,-0.6715793013572693,0.09807558357715607
1683140852507002000,17.127002197265625,-0.00782012939453125,-0.6944301724433899,0.2266920953989029
1683140852524855600,17.14485546875,0.05724048614501953,-0.7252460718154907,0.14637404680252075
1683140852542695000,17.16269482421875,0.018357276916503906,-0.6829797625541687,0.13235986232757568
1683140852560534300,17.1805341796875,0.025209426879882812,-0.68242347240448,0.14445993304252625
1683140852578373400,17.198373291015624,0.01811695098876953,-0.6573148965835571,0.1542550027370453
1683140852596213000,17.216212890625,0.007647514343261719,-0.6546670198440552,0.1885174810886383
1683140852614052400,17.23405224609375,0.05345916748046875,-0.6593001484870911,0.17507493495941162
1683140852631887400,17.251887451171875,-0.049757957458496094,-0.6883942484855652,0.163467675447464
1683140852649731000,17.26973095703125,0.048366546630859375,-0.687032163143158,0.17312712967395782
1683140852667570700,17.28757080078125,0.11235713958740234,-0.7044111490249634,0.11355641484260559
1683140852685411600,17.30541162109375,0.011780738830566406,-0.6536046862602234,0.1299494504928589
1683140852703248000,17.323247802734375,0.08072185516357422,-0.6912873983383179,0.11987069249153137
1683140852721088500,17.341088623046875,0.04342079162597656,-0.6205698251724243,0.17725354433059692
1683140852738927900,17.358927978515624,0.07070350646972656,-0.666273832321167,0.18127819895744324
1683140852756767200,17.376767333984375,0.00534820556640625,-0.6668215990066528,0.12261129915714264
1683140852774606800,17.39460693359375,0.012714385986328125,-0.6832864880561829,0.18638113141059875
1683140852792446500,17.412446533203124,0.09465980529785156,-0.704269528388977,0.1247052326798439
1683140852810285800,17.430285888671875,0.0026397705078125,-0.6714324951171875,0.12305450439453125
1683140852828125200,17.448125244140623,0.042530059814453125,-0.643606424331665,0.11609464883804321
1683140852845964500,17.465964599609375,-0.009741783142089844,-0.6351146697998047,0.2029033750295639
1683140852863804200,17.48380419921875,0.015705108642578125,-0.6355453729629517,0.14852949976921082
1683140852881643300,17.501643310546875,0.01871013641357422,-0.6369777917861938,0.18095526099205017
1683140852899483000,17.51948291015625,-0.04978466033935547,-0.6780996322631836,0.1422090232372284
1683140852917321200,17.5373212890625,0.10904216766357422,-0.6493983864784241,0.15959012508392334
1683140852935150800,17.55515087890625,0.05414772033691406,-0.6596817374229431,0.06294134259223938
1683140852953000700,17.573000732421875,0.01792430877685547,-0.6231859922409058,0.15302425622940063
1683140852970830800,17.590830810546876,0.021436691284179688,-0.6516046524047852,0.19906602799892426
1683140852988680000,17.608679931640626,0.03709983825683594,-0.6038446426391602,0.1122046411037445
1683140853006518800,17.626518798828126,0.04672718048095703,-0.658319890499115,0.22189098596572876
1683140853024358700,17.644358642578126,-0.017342567443847656,-0.6543260216712952,0.12345898151397705
1683140853042198000,17.662197998046874,0.1165475845336914,-0.6652885675430298,0.13156554102897644
1683140853060037400,17.680037353515626,0.06089305877685547,-0.6525678634643555,0.10063987970352173
1683140853077876700,17.697876708984374,0.021038055419921875,-0.6606863737106323,0.12770754098892212
1683140853095716400,17.71571630859375,0.022037506103515625,-0.6022791862487793,0.1430889368057251
1683140853113551400,17.73355126953125,-0.016275405883789062,-0.6231757402420044,0.15660575032234192
1683140853131395000,17.75139501953125,0.03868389129638672,-0.6251147985458374,0.1642085462808609
1683140853149231600,17.769231689453125,-0.03720378875732422,-0.6312758922576904,0.15216365456581116
1683140853167076600,17.78707666015625,-0.008702278137207031,-0.6591635942459106,0.12274222075939178
1683140853184899800,17.80489990234375,0.06459426879882812,-0.6248477697372437,0.1403990536928177
1683140853202750200,17.822750244140625,0.015163421630859375,-0.6270884275436401,0.09086155891418457
1683140853220594400,17.840594482421874,0.019573211669921875,-0.586828351020813,0.1631028801202774
1683140853238431200,17.85843115234375,0.004984855651855469,-0.6208491921424866,0.15309810638427734
1683140853256270600,17.8762705078125,0.0636758804321289,-0.6002966165542603,0.14593154191970825
1683140853274110000,17.89410986328125,0.025504112243652344,-0.6484761238098145,0.15492822229862213
1683140853291949300,17.91194921875,-0.01450347900390625,-0.6217135190963745,0.13876324892044067
1683140853309788700,17.92978857421875,0.09982967376708984,-0.6503376364707947,0.07590800523757935
1683140853327628500,17.947628662109373,0.0027828216552734375,-0.5907140374183655,0.12122451514005661
1683140853345468000,17.965468017578125,0.04726600646972656,-0.6238051652908325,0.15364564955234528
1683140853363307300,17.983307373046873,0.04766654968261719,-0.5754268765449524,0.09122177213430405
1683140853381146000,18.00114599609375,0.015267372131347656,-0.6056473851203918,0.1713513284921646
1683140853398980900,18.01898095703125,0.05241584777832031,-0.6310872435569763,0.1463845819234848
1683140853416825000,18.0368251953125,-0.030689239501953125,-0.6122674345970154,0.1371951401233673
1683140853434664400,18.05466455078125,0.03356742858886719,-0.6264244318008423,0.13552188873291016
1683140853452503800,18.07250390625,0.04038810729980469,-0.5930524468421936,0.1143660694360733
1683140853470343400,18.090343505859376,0.026536941528320312,-0.5764999389648438,0.10563589632511139
1683140853488182500,18.1081826171875,0.00319671630859375,-0.5724783539772034,0.1558825969696045
1683140853506019000,18.12601904296875,-0.023499488830566406,-0.5909702777862549,0.1266162395477295
1683140853523864000,18.143864013671877,0.08841133117675781,-0.5792615413665771,0.1676274687051773
1683140853541700600,18.16170068359375,-0.007948875427246094,-0.6270401477813721,0.116114541888237
1683140853559540000,18.1795400390625,0.0011758804321289062,-0.5971652269363403,0.14892937242984772
1683140853577378800,18.19737890625,0.08191394805908203,-0.622717022895813,0.053056687116622925
1683140853595220000,18.215219970703124,-0.0016880035400390625,-0.5428255796432495,0.1404213011264801
1683140853613055200,18.23305517578125,0.05032539367675781,-0.5999728441238403,0.16011027991771698
1683140853630898000,18.25089794921875,0.022897720336914062,-0.5627885460853577,0.06698133051395416
1683140853648740000,18.268739990234376,0.051354408264160156,-0.5874276161193848,0.16578397154808044
1683140853666572800,18.28657275390625,0.04397296905517578,-0.6222964525222778,0.10319261252880096
1683140853684419300,18.30441943359375,-0.015169143676757812,-0.5881556272506714,0.14573919773101807
1683140853702246700,18.32224658203125,0.015077590942382812,-0.5925081968307495,0.08872358500957489
1683140853720098000,18.34009814453125,-0.01556396484375,-0.5701080560684204,0.14001208543777466
1683140853737930000,18.357929931640626,0.03538799285888672,-0.5587881803512573,0.13732901215553284
1683140853755773000,18.37577294921875,0.0037126541137695312,-0.5634454488754272,0.10129134356975555
1683140853773609700,18.393609619140626,-0.011778831481933594,-0.5729164481163025,0.1168951541185379
1683140853791454700,18.411454833984376,0.07402229309082031,-0.5602253675460815,0.1938999444246292
1683140853809291000,18.429291015625,-0.032706260681152344,-0.5979164838790894,0.08032023906707764
1683140853827127600,18.44712744140625,0.03010272979736328,-0.548793375492096,0.12910781800746918
1683140853844973000,18.46497314453125,0.054076194763183594,-0.573539137840271,0.12333045899868011
1683140853862809300,18.482809326171875,0.029165267944335938,-0.518994927406311,0.13019602000713348
1683140853880648700,18.500648681640627,0.006295204162597656,-0.5727881789207458,0.17074845731258392
1683140853898488000,18.518488037109375,0.02678680419921875,-0.555518388748169,0.09400899708271027
1683140853916327200,18.5363271484375,0.0978860855102539,-0.5891618132591248,0.12641572952270508
1683140853934166500,18.55416650390625,-0.001888275146484375,-0.584612250328064,0.09637665748596191
1683140853952006100,18.572006103515626,0.050212860107421875,-0.5817581415176392,0.09784203767776489
1683140853969845500,18.589845458984374,0.024799346923828125,-0.5381186008453369,0.09399992972612381
1683140853987684600,18.6076845703125,-0.013936042785644531,-0.5572539567947388,0.15820182859897614
1683140854005524200,18.625524169921874,0.040561676025390625,-0.5313754677772522,0.1143331378698349
1683140854023363800,18.64336376953125,-0.03495216369628906,-0.5421667695045471,0.14330074191093445
1683140854041203000,18.661202880859374,0.034210205078125,-0.5753247737884521,0.10864634811878204
1683140854059042300,18.679042236328126,0.05230712890625,-0.5560622215270996,0.11588634550571442
1683140854076881400,18.69688134765625,-0.007704734802246094,-0.55809485912323,0.09434214234352112
1683140854094721000,18.714720947265626,0.011363029479980469,-0.5257118940353394,0.11944179981946945
1683140854112560000,18.73256005859375,-0.004519462585449219,-0.522504448890686,0.11791209876537323
1683140854130399200,18.750399169921874,0.038417816162109375,-0.513894259929657,0.1683630496263504
1683140854148238800,18.76823876953125,-0.03070545196533203,-0.5538969039916992,0.1297999620437622
1683140854166078200,18.786078125,0.03619956970214844,-0.5366934537887573,0.10743701457977295
1683140854183917800,18.803917724609374,0.10735511779785156,-0.567833423614502,0.12226971983909607
1683140854201753300,18.82175341796875,-0.016736984252929688,-0.5307977795600891,0.09691935032606125
1683140854219597000,18.83959716796875,0.07548809051513672,-0.5633103251457214,0.07951699942350388
1683140854237434400,18.857434326171877,0.02547740936279297,-0.4928516149520874,0.11510368436574936
1683140854255272400,18.8752724609375,0.04489326477050781,-0.5388630628585815,0.16127575933933258
1683140854273117400,18.893117431640626,0.015287399291992188,-0.5211037397384644,0.1002618819475174
1683140854290953500,18.910953369140625,-0.017511367797851562,-0.5382325053215027,0.13688796758651733
1683140854308780800,18.92878076171875,0.04976844787597656,-0.5585729479789734,0.10881731659173965
1683140854326632200,18.946632080078125,-0.03329277038574219,-0.528388500213623,0.1497647911310196
1683140854344471600,18.964471435546876,0.03462505340576172,-0.5203462839126587,0.08445952087640762
1683140854362310700,18.982310546875,0.03449821472167969,-0.495311975479126,0.1147121787071228
1683140854380150300,19.000150390625,0.013247489929199219,-0.5011571049690247,0.13828040659427643
1683140854397986600,19.017986572265624,0.012042999267578125,-0.4998534917831421,0.15606798231601715
1683140854415831600,19.03583154296875,-0.054286956787109375,-0.5396460294723511,0.09488988667726517
1683140854433659400,19.053659423828126,0.06428813934326172,-0.5236976146697998,0.12020531296730042
1683140854451507500,19.071507568359376,0.05615997314453125,-0.5516453981399536,0.05502156540751457
1683140854469347000,19.08934716796875,-0.011943817138671875,-0.48723524808883667,0.15874482691287994
1683140854487186400,19.1071865234375,0.04367637634277344,-0.5260382890701294,0.07600773870944977
1683140854505025300,19.125025390625,0.007648468017578125,-0.46431252360343933,0.11855380237102509
1683140854522865000,19.142864990234376,0.061005592346191406,-0.5321481227874756,0.17559991776943207
1683140854540704300,19.160704345703124,0.016580581665039062,-0.5108785629272461,0.03786797076463699
1683140854558543400,19.17854345703125,0.030527114868164062,-0.5288262367248535,0.12694403529167175
1683140854576382700,19.1963828125,0.04187297821044922,-0.540946364402771,0.10573115199804306
1683140854594208000,19.2142080078125,-0.01767253875732422,-0.5201740264892578,0.10691125690937042
1683140854612064000,19.23206396484375,0.033469200134277344,-0.4921005368232727,0.09424328804016113
1683140854629900800,19.24990087890625,-0.00566864013671875,-0.4837709069252014,0.12674066424369812
1683140854647740000,19.267739990234375,0.04029273986816406,-0.477050244808197,0.12752728164196014
1683140854665579800,19.285579833984375,-0.008721351623535156,-0.48928922414779663,0.1390153467655182
1683140854683408000,19.303407958984376,-0.05010986328125,-0.5262285470962524,0.09755966067314148
1683140854701258200,19.32125830078125,0.06560230255126953,-0.5015909075737,0.12277249991893768
1683140854719096800,19.339096923828127,0.0018520355224609375,-0.5183138251304626,0.04552328586578369
1683140854736936400,19.3569365234375,0.014333724975585938,-0.4738166928291321,0.11852665990591049
1683140854754775600,19.374775634765626,0.005742073059082031,-0.5006046295166016,0.14802227914333344
1683140854772610300,19.3926103515625,0.030335426330566406,-0.45884713530540466,0.1029956191778183
1683140854790454300,19.410454345703126,0.01833343505859375,-0.50723797082901,0.17893588542938232
1683140854808288000,19.4282880859375,-0.030426979064941406,-0.49108943343162537,0.09627692401409149
1683140854826133000,19.446133056640626,0.10096168518066406,-0.5249024629592896,0.08825907111167908
1683140854843972600,19.46397265625,0.022747039794921875,-0.4880613684654236,0.07333122938871384
1683140854861807900,19.481807861328125,0.03474998474121094,-0.5141116976737976,0.09986996650695801
1683140854879650800,19.49965087890625,0.006916999816894531,-0.4630201458930969,0.08755803108215332
1683140854897490400,19.517490478515626,-0.010646820068359375,-0.4854269027709961,0.13059666752815247
1683140854915329500,19.53532958984375,0.044341087341308594,-0.4905219078063965,0.10415935516357422
1683140854933169000,19.5531689453125,-0.03505420684814453,-0.49407172203063965,0.1423119306564331
1683140854951008000,19.571008056640625,-0.010936737060546875,-0.5182797312736511,0.09195294976234436
1683140854968847600,19.58884765625,0.04273033142089844,-0.4678908586502075,0.09263791143894196
1683140854986687000,19.60668701171875,0.0054874420166015625,-0.4811086058616638,0.080720916390419
1683140855004526000,19.624526123046873,0.0006189346313476562,-0.44277292490005493,0.1072009801864624
1683140855022365200,19.642365234375,-0.03125953674316406,-0.45862770080566406,0.12922997772693634
1683140855040192800,19.66019287109375,0.06412792205810547,-0.4503363370895386,0.1434781551361084
1683140855058032000,19.6780322265625,-0.028730392456054688,-0.480410099029541,0.11942898482084274
1683140855075883500,19.695883544921877,-0.00787353515625,-0.48567432165145874,0.0968765914440155
1683140855093723000,19.713722900390625,0.0977926254272461,-0.5048654675483704,0.06508582085371017
1683140855111562500,19.7315625,-0.019166946411132812,-0.45137637853622437,0.083065927028656
1683140855129401300,19.7494013671875,0.043807029724121094,-0.4806707501411438,0.09688372910022736
1683140855147239000,19.767239013671876,0.01227569580078125,-0.4284347891807556,0.08490978926420212
1683140855165081300,19.785081298828125,0.004497528076171875,-0.46573179960250854,0.16706374287605286
1683140855182916600,19.80291650390625,0.023049354553222656,-0.4856832027435303,0.08929944038391113
1683140855200760800,19.8207607421875,-0.03720378875732422,-0.47591638565063477,0.1178220883011818
1683140855218597400,19.838597412109376,0.03186798095703125,-0.49814775586128235,0.07538695633411407
1683140855236437000,19.85643701171875,-0.0019664764404296875,-0.4523296058177948,0.11541438102722168
1683140855254275800,19.87427587890625,0.0010251998901367188,-0.43486154079437256,0.07459098100662231
1683140855272115200,19.892115234375,-0.030763626098632812,-0.43385350704193115,0.12289015203714371
1683140855289950500,19.909950439453127,-0.036800384521484375,-0.4397321343421936,0.12843525409698486
1683140855307798000,19.927798095703125,0.07207107543945312,-0.4456332325935364,0.158035546541214
1683140855325633300,19.94563330078125,-0.0383453369140625,-0.47995221614837646,0.05724874883890152
1683140855343472600,19.96347265625,-0.0030813217163085938,-0.46227747201919556,0.10157540440559387
1683140855361312000,19.98131201171875,0.05877208709716797,-0.4740515947341919,0.08878322690725327
1683140855379151600,19.999151611328124,-0.010381698608398438,-0.41154998540878296,0.0859483852982521
1683140855396990200,20.016990234375,0.00963592529296875,-0.46348750591278076,0.12927742302417755
1683140855414829300,20.034829345703123,0.004958152770996094,-0.4266681671142578,0.07527557760477066
1683140855432669000,20.0526689453125,0.06809234619140625,-0.4577629268169403,0.14387108385562897
1683140855450508300,20.07050830078125,-0.008193016052246094,-0.4662376642227173,0.07724668085575104
1683140855468347400,20.088347412109375,-0.005768775939941406,-0.46216994524002075,0.07218234986066818
1683140855486186800,20.106186767578127,0.05453014373779297,-0.4520760774612427,0.08623632043600082
1683140855504026400,20.1240263671875,-0.01616668701171875,-0.4364953637123108,0.14437013864517212
1683140855521862000,20.14186181640625,0.018462181091308594,-0.4192917048931122,0.05562818795442581
1683140855539704600,20.15970458984375,-0.053203582763671875,-0.42678773403167725,0.13535138964653015
1683140855557542700,20.177542724609374,-0.012300491333007812,-0.4475858807563782,0.13187652826309204
1683140855575384300,20.19538427734375,0.05367755889892578,-0.42961037158966064,0.11329181492328644
1683140855593213200,20.213213134765624,-0.031026840209960938,-0.45030879974365234,0.030040884390473366
1683140855611061800,20.231061767578126,0.01760101318359375,-0.42833149433135986,0.13072849810123444
1683140855628900900,20.24890087890625,0.008305549621582031,-0.4363800287246704,0.07275461405515671
1683140855646737700,20.266737548828125,0.023235321044921875,-0.41131216287612915,0.10001690685749054
1683140855664582100,20.28458203125,-0.013895034790039062,-0.4354424476623535,0.1141456812620163
1683140855682418700,20.302418701171874,0.015166282653808594,-0.41149789094924927,0.11198872327804565
1683140855700258000,20.320258056640625,0.08343029022216797,-0.4576584994792938,0.12051635980606079
1683140855718097400,20.338097412109374,-0.01882457733154297,-0.4378089904785156,0.04368691146373749
1683140855735936300,20.355936279296873,0.062127113342285156,-0.46813973784446716,0.06980000436306
1683140855753775600,20.373775634765625,0.033196449279785156,-0.4150809645652771,0.06917644292116165
1683140855771614700,20.39161474609375,0.002925872802734375,-0.4348328709602356,0.12480710446834564
1683140855789442600,20.409442626953126,0.029476165771484375,-0.4094354510307312,0.06996738910675049
1683140855807281000,20.427281005859374,-0.052158355712890625,-0.42138922214508057,0.128480464220047
1683140855825122300,20.445122314453126,0.03235626220703125,-0.4553699791431427,0.09969604015350342
1683140855842972400,20.462972412109377,-0.0064296722412109375,-0.4201568365097046,0.09981579333543777
1683140855860811000,20.48081103515625,-0.016074180603027344,-0.4285183250904083,0.06500691175460815
1683140855878650600,20.498650634765625,0.020873069763183594,-0.40037015080451965,0.10299576073884964
1683140855896487200,20.516487060546876,0.0046215057373046875,-0.4056359827518463,0.073366679251194
1683140855914332000,20.534331787109377,0.02545166015625,-0.38482341170310974,0.12573164701461792
1683140855932168200,20.552168212890624,-0.059180259704589844,-0.42359524965286255,0.11222317069768906
1683140855950007600,20.570007568359376,0.05009746551513672,-0.4168967008590698,0.08890905976295471
1683140855967845000,20.58784521484375,0.06664848327636719,-0.44378721714019775,0.07009110599756241
1683140855985688000,20.60568798828125,-0.022808074951171875,-0.4127853512763977,0.06533249467611313
1683140856003525000,20.623525146484376,0.07271862030029297,-0.43033385276794434,0.0870383158326149
1683140856021364500,20.641364501953124,0.00815582275390625,-0.3623313307762146,0.0755210593342781
1683140856039203600,20.65920361328125,0.023482322692871094,-0.4169256389141083,0.1269809454679489
1683140856057043200,20.677043212890624,0.007883071899414062,-0.39591673016548157,0.058886781334877014
1683140856074882300,20.69488232421875,0.017175674438476562,-0.41899147629737854,0.135138601064682
1683140856092721400,20.712721435546875,0.06195545196533203,-0.4407911002635956,0.034871332347393036
1683140856110560500,20.730560546875,-0.02064990997314453,-0.4191836416721344,0.10464096069335938
1683140856128400000,20.74839990234375,-0.015748023986816406,-0.3986903429031372,0.0833761990070343
1683140856146239200,20.7662392578125,0.00324249267578125,-0.39263713359832764,0.0792832225561142
1683140856164078600,20.78407861328125,0.012210845947265625,-0.37971705198287964,0.09042197465896606
1683140856181913600,20.80191357421875,-0.006308555603027344,-0.3803604245185852,0.14003749191761017
1683140856199757300,20.81975732421875,-0.04714488983154297,-0.42602792382240295,0.10195059329271317
1683140856217596000,20.837595947265626,0.08103370666503906,-0.4016578793525696,0.0564296692609787
1683140856235435300,20.855435302734374,0.006163597106933594,-0.4357842803001404,0.07012423872947693
1683140856253271600,20.873271484375,-0.029546737670898438,-0.38196659088134766,0.09825637936592102
1683140856271104800,20.891104736328124,0.06322288513183594,-0.4220712184906006,0.04862049221992493
1683140856288940000,20.90893994140625,0.02437877655029297,-0.3506385087966919,0.09029558300971985
1683140856306795300,20.926795166015626,0.03499603271484375,-0.402293860912323,0.16621562838554382
1683140856324615400,20.944615478515626,-0.012290000915527344,-0.3923243582248688,0.06111864373087883
1683140856342471400,20.962471435546874,0.06769371032714844,-0.4157777428627014,0.07606074959039688
1683140856360309800,20.980309814453125,0.022475242614746094,-0.41762804985046387,0.08045580983161926
1683140856378149000,20.998149169921874,-0.015498161315917969,-0.4172441065311432,0.04501110315322876
1683140856395988700,21.01598876953125,0.014404296875,-0.3597705066204071,0.08819526433944702
1683140856413828000,21.033828125,-0.050800323486328125,-0.38166704773902893,0.11200684309005737
1683140856431666700,21.051666748046873,0.009095191955566406,-0.37567639350891113,0.09352666139602661
1683140856449506300,21.06950634765625,-0.057723045349121094,-0.3812665343284607,0.12386421859264374
1683140856467345000,21.087344970703125,-0.014421463012695312,-0.4178963899612427,0.09232386946678162
1683140856485182700,21.1051826171875,0.05952930450439453,-0.37718576192855835,0.07339801639318466
1683140856503027000,21.12302685546875,-0.016180038452148438,-0.402271032333374,0.04782106727361679
1683140856520862000,21.140862060546876,-0.011593818664550781,-0.3479645848274231,0.10551898181438446
1683140856538703400,21.158703369140625,0.006712913513183594,-0.37445634603500366,0.061751604080200195
1683140856556541200,21.176541259765624,0.03491687774658203,-0.34249347448349,0.10532768815755844
1683140856574380800,21.194380859375,-0.00624847412109375,-0.4019513726234436,0.14662553369998932
1683140856592219600,21.2122197265625,-0.005627632141113281,-0.3891400098800659,0.06523352861404419
1683140856610058800,21.230058837890624,0.10739421844482422,-0.4104998707771301,0.03535914421081543
1683140856627898400,21.2478984375,-0.020310401916503906,-0.3817957043647766,0.08155710250139236
1683140856645738000,21.265738037109376,0.030205726623535156,-0.3909568786621094,0.060755405575037
1683140856663576600,21.28357666015625,0.023481369018554688,-0.3369278907775879,0.06025204062461853
1683140856681416200,21.301416259765624,-0.008947372436523438,-0.36678484082221985,0.12823958694934845
1683140856699255300,21.31925537109375,0.0344696044921875,-0.37834399938583374,0.10144670307636261
1683140856717094700,21.3370947265625,-0.05428791046142578,-0.37781572341918945,0.10869498550891876
1683140856734933500,21.35493359375,0.010046958923339844,-0.40285199880599976,0.04758787900209427
1683140856752761000,21.372760986328124,0.0034170150756835938,-0.3703727722167969,0.09479448944330215
1683140856770612000,21.390612060546875,-0.014807701110839844,-0.36362171173095703,0.023835955187678337
1683140856788449000,21.408448974609374,-0.021520614624023438,-0.33242517709732056,0.11592363566160202
1683140856806290200,21.426290283203127,-0.033980369567871094,-0.34618252515792847,0.1510314643383026
1683140856824129300,21.44412939453125,0.04182910919189453,-0.3381613492965698,0.08634357899427414
1683140856841964500,21.461964599609374,-0.07296180725097656,-0.3786408305168152,0.11747872084379196
1683140856859808300,21.479808349609375,-0.0075054168701171875,-0.3703234791755676,0.10513583570718765
1683140856877647400,21.4976474609375,0.10096454620361328,-0.3958296477794647,0.037735797464847565
1683140856895486500,21.515486572265626,-0.006587982177734375,-0.3294292986392975,0.07116913050413132
1683140856913325800,21.533325927734374,0.04274177551269531,-0.3783280551433563,0.06869102269411087
1683140856931165200,21.551165283203126,-0.013471603393554688,-0.32045894861221313,0.09125997126102448
1683140856949004300,21.56900439453125,0.04142475128173828,-0.3684784173965454,0.12943850457668304
1683140856966844200,21.58684423828125,-0.005688667297363281,-0.3672868013381958,0.06750213354825974
1683140856984681700,21.604681640625,-0.027886390686035156,-0.37149861454963684,0.09098462015390396
1683140857002521900,21.62252197265625,0.03247642517089844,-0.37884455919265747,0.05682128667831421
1683140857020359200,21.640359130859373,-0.03299713134765625,-0.3636472225189209,0.08289288729429245
1683140857038202000,21.6582021484375,0.013896942138671875,-0.3332756757736206,0.058656759560108185
1683140857056039200,21.6760390625,-0.042220115661621094,-0.333381325006485,0.12139797955751419
1683140857073882400,21.69388232421875,-0.014692306518554688,-0.34748467803001404,0.10053277015686035
1683140857091717600,21.711717529296877,0.02767181396484375,-0.3376985788345337,0.1125892773270607
1683140857109556700,21.729556640625,-0.06999874114990234,-0.37189215421676636,0.08004359900951385
1683140857127390500,21.747390380859375,0.04549598693847656,-0.3493403196334839,0.10934554785490036
1683140857145236500,21.765236572265625,0.05497455596923828,-0.3533363938331604,-0.0004008333198726177
1683140857163074800,21.78307470703125,0.0033826828002929688,-0.3136039972305298,0.10997593402862549
1683140857180913700,21.80091357421875,-0.019685745239257812,-0.35388630628585815,0.14359566569328308
1683140857198753300,21.818753173828124,0.012529373168945312,-0.31280839443206787,0.0393109992146492
1683140857216592400,21.83659228515625,0.05604839324951172,-0.36474889516830444,0.14303231239318848
1683140857234431200,21.85443115234375,-0.05055046081542969,-0.35914164781570435,0.06139735132455826
1683140857252274000,21.87227392578125,0.06710147857666016,-0.3726188540458679,0.05467754229903221
1683140857270109700,21.890109619140624,0.03815460205078125,-0.34119129180908203,0.042668815702199936
1683140857287948500,21.907948486328124,0.009105682373046875,-0.34980326890945435,0.07949819415807724
1683140857305788200,21.9257880859375,0.0037078857421875,-0.3041722774505615,0.09130483865737915
1683140857323627300,21.943627197265624,-0.05610179901123047,-0.32391417026519775,0.10188011825084686
1683140857341466000,21.961466064453123,0.011279106140136719,-0.34057092666625977,0.10660260915756226
1683140857359306000,21.979305908203123,-0.030660629272460938,-0.33928248286247253,0.08934352546930313
1683140857377144800,21.997144775390623,-0.02893829345703125,-0.3602678179740906,0.05368056520819664
1683140857394984200,22.014984130859375,0.043959617614746094,-0.3251378536224365,0.07953737676143646
1683140857412822800,22.03282275390625,-0.012722969055175781,-0.32892483472824097,0.031156368553638458
1683140857430659300,22.050659423828126,0.009328842163085938,-0.30039727687835693,0.09213977307081223
1683140857448501500,22.06850146484375,-0.04079627990722656,-0.33348843455314636,0.09992630034685135
1683140857466344000,22.086343994140623,0.048175811767578125,-0.3246712386608124,0.07313966751098633
1683140857484177000,22.104177001953126,0.037980079650878906,-0.34852123260498047,0.09220635145902634
1683140857502022000,22.12202197265625,-0.01926898956298828,-0.34115827083587646,0.05252407118678093
1683140857519854300,22.139854248046873,0.0652170181274414,-0.35356462001800537,0.05739908292889595
1683140857537693700,22.157693603515625,-0.005385398864746094,-0.30063918232917786,0.05250995606184006
1683140857555537400,22.175537353515626,0.01671600341796875,-0.3428504467010498,0.09042089432477951
1683140857573372200,22.1933720703125,0.022928237915039062,-0.302615225315094,0.04421496391296387
1683140857591218000,22.211218017578126,-0.004441261291503906,-0.3339807391166687,0.1385786384344101
1683140857609054000,22.229053955078125,0.05240345001220703,-0.3415807783603668,0.029678765684366226
1683140857626893000,22.24689306640625,-0.04764080047607422,-0.3357633352279663,0.09261822700500488
1683140857644727300,22.264727294921876,-0.028838157653808594,-0.3444622755050659,0.0673084482550621
1683140857662567700,22.282567626953124,-0.01229095458984375,-0.30723029375076294,0.06592899560928345
1683140857680414700,22.300414794921874,-0.017127037048339844,-0.3023848533630371,0.06896170228719711
1683140857698250000,22.31825,-0.010773658752441406,-0.29731717705726624,0.09117693454027176
