time,seconds_elapsed,z,y,x
1683139516777008000,0.136008056640625,1.3793582916259766,-4.4861931800842285,1.245629906654358
1683139516794856400,0.1538564453125,1.3471393585205078,-4.446449279785156,1.2509984970092773
1683139516812708600,0.17170849609375,1.373525619506836,-4.477262020111084,1.253989815711975
1683139516830542300,0.189542236328125,1.365717887878418,-4.433254241943359,1.2504987716674805
1683139516848402000,0.20740185546875,1.3411569595336914,-4.481626033782959,1.2201566696166992
1683139516866246700,0.22524658203125,1.3751659393310547,-4.482527256011963,1.2377400398254395
1683139516884098300,0.243098388671875,1.3432207107543945,-4.419313907623291,1.2371208667755127
1683139516901941500,0.26094140625,1.3468647003173828,-4.476036548614502,1.2572813034057617
1683139516919779000,0.278779052734375,1.3705501556396484,-4.43402624130249,1.2626782655715942
1683139516937623300,0.296623291015625,1.345449447631836,-4.476058483123779,1.2469732761383057
1683139516955480800,0.314480712890625,1.3776988983154297,-4.440833568572998,1.253651738166809
1683139516973332500,0.33233251953125,1.3642559051513672,-4.47059440612793,1.2247405052185059
1683139516991177700,0.350177734375,1.358637809753418,-4.4684038162231445,1.232492208480835
1683139517009022700,0.368022705078125,1.340550422668457,-4.415524005889893,1.236107349395752
1683139517026870800,0.385870849609375,1.342611312866211,-4.486165523529053,1.2711997032165527
1683139517044716500,0.403716552734375,1.3520479202270508,-4.430211067199707,1.273964762687683
1683139517062552800,0.421552734375,1.337489128112793,-4.472167491912842,1.2414300441741943
1683139517080410000,0.43941015625,1.3648672103881836,-4.438732147216797,1.2636011838912964
1683139517098258400,0.457258544921875,1.3796138763427734,-4.4571852684021,1.2180051803588867
1683139517116104200,0.475104248046875,1.340083122253418,-4.457261562347412,1.2363359928131104
1683139517133952300,0.4929521484375,1.3561201095581055,-4.422715663909912,1.2392218112945557
1683139517151797200,0.51079736328125,1.3318853378295898,-4.480417251586914,1.2827306985855103
1683139517169645600,0.5286455078125,1.3353862762451172,-4.414689064025879,1.258669137954712
1683139517187481300,0.5464814453125,1.340743064880371,-4.471505641937256,1.2580927610397339
1683139517205339600,0.564339599609375,1.3461427688598633,-4.452449798583984,1.282629132270813
1683139517223185000,0.582184814453125,1.3556928634643555,-4.463821887969971,1.2059564590454102
1683139517241031400,0.600031494140625,1.3479480743408203,-4.457860946655273,1.2416555881500244
1683139517258880500,0.617880615234375,1.3582849502563477,-4.407440185546875,1.2373929023742676
1683139517276726800,0.635726806640625,1.33087158203125,-4.454254627227783,1.283888578414917
1683139517294572500,0.653572509765625,1.3278169631958008,-4.41742467880249,1.246866226196289
1683139517312420400,0.67142041015625,1.330862045288086,-4.4558796882629395,1.2777113914489746
1683139517330266400,0.689266357421875,1.3399133682250977,-4.448141098022461,1.2713580131530762
1683139517348114400,0.707114501953125,1.3517789840698242,-4.46724796295166,1.1828219890594482
1683139517365959400,0.72495947265625,1.3415813446044922,-4.45890474319458,1.2378144264221191
1683139517383808000,0.74280810546875,1.3408679962158203,-4.423035144805908,1.2508716583251953
1683139517401653500,0.760653564453125,1.3257665634155273,-4.453986167907715,1.2559678554534912
1683139517419501600,0.77850146484375,1.359980583190918,-4.4056572914123535,1.2393697500228882
1683139517437335000,0.7963349609375,1.3225107192993164,-4.428030014038086,1.296223759651184
1683139517455195100,0.814195068359375,1.3355379104614258,-4.44159460067749,1.2485259771347046
1683139517473040600,0.83204052734375,1.3507442474365234,-4.467391014099121,1.1794670820236206
1683139517490889200,0.84988916015625,1.3431739807128906,-4.448512077331543,1.2557497024536133
1683139517508733000,0.86773291015625,1.3662233352661133,-4.420110702514648,1.2208651304244995
1683139517526583600,0.88558349609375,1.3318233489990234,-4.430643081665039,1.2512274980545044
1683139517544428300,0.90342822265625,1.3405933380126953,-4.421356678009033,1.2417902946472168
1683139517562264300,0.921264404296875,1.3274459838867188,-4.431992053985596,1.2829903364181519
1683139517580121600,0.93912158203125,1.3271379470825195,-4.443090438842773,1.2258392572402954
1683139517597969700,0.9569697265625,1.3444061279296875,-4.4599504470825195,1.1988273859024048
1683139517615815200,0.974815185546875,1.3363618850708008,-4.424544811248779,1.2714769840240479
1683139517633663700,0.992663818359375,1.3578910827636719,-4.426958084106445,1.1963164806365967
1683139517651508500,1.010508544921875,1.335214614868164,-4.440046310424805,1.2361875772476196
1683139517669356800,1.028356689453125,1.3633508682250977,-4.405248165130615,1.2514190673828125
1683139517687202800,1.046202880859375,1.3242807388305664,-4.410767078399658,1.2729917764663696
1683139517705047800,1.0640478515625,1.345515251159668,-4.443258285522461,1.209294080734253
1683139517722894600,1.08189453125,1.3384370803833008,-4.446875095367432,1.2202702760696411
1683139517740744400,1.099744384765625,1.329035758972168,-4.416385650634766,1.2471479177474976
1683139517758590000,1.11758984375,1.3509798049926758,-4.441791534423828,1.1740152835845947
1683139517776438000,1.13543798828125,1.357325553894043,-4.418492794036865,1.2359957695007324
1683139517794270500,1.1532705078125,1.3405380249023438,-4.398502349853516,1.251924753189087
1683139517812131000,1.171131103515625,1.3247365951538086,-4.388862133026123,1.243019938468933
1683139517829977000,1.18897705078125,1.3343477249145508,-4.4351019859313965,1.2219105958938599
1683139517847825400,1.206825439453125,1.3355083465576172,-4.421111583709717,1.2205839157104492
1683139517865670700,1.224670654296875,1.3166532516479492,-4.401714324951172,1.2282261848449707
1683139517883518500,1.2425185546875,1.3479890823364258,-4.435357093811035,1.1823549270629883
1683139517901364200,1.2603642578125,1.3307790756225586,-4.387818813323975,1.241528868675232
1683139517919212300,1.27821240234375,1.3274955749511719,-4.403921604156494,1.224764347076416
1683139517937045800,1.296045654296875,1.3450822830200195,-4.384591102600098,1.232130765914917
1683139517954906000,1.313906005859375,1.3308954238891602,-4.431060791015625,1.2175401449203491
1683139517972748000,1.331748046875,1.3289499282836914,-4.3807053565979,1.218385934829712
1683139517990600000,1.349599853515625,1.3202571868896484,-4.394807815551758,1.209107756614685
1683139518008443600,1.367443603515625,1.3298301696777344,-4.415398597717285,1.1890742778778076
1683139518026293800,1.385293701171875,1.3243112564086914,-4.353722095489502,1.2378413677215576
1683139518044138800,1.403138671875,1.3022727966308594,-4.406365871429443,1.2336437702178955
1683139518061986800,1.42098681640625,1.335775375366211,-4.376929759979248,1.2288075685501099
1683139518079825700,1.43882568359375,1.3225269317626953,-4.4029412269592285,1.2242027521133423
1683139518097680400,1.456680419921875,1.3289060592651367,-4.361603260040283,1.2223635911941528
1683139518115526100,1.474526123046875,1.3109159469604492,-4.385209083557129,1.197798490524292
1683139518133374000,1.4923740234375,1.3054533004760742,-4.400802135467529,1.2149401903152466
1683139518151219000,1.510218994140625,1.2962532043457031,-4.332381248474121,1.2260888814926147
1683139518169067300,1.5280673828125,1.2923669815063477,-4.385540962219238,1.232608675956726
1683139518186913000,1.5459130859375,1.3187265396118164,-4.348676681518555,1.2392306327819824
1683139518204761300,1.56376123046875,1.3070459365844727,-4.394929885864258,1.2114710807800293
1683139518222606300,1.5816064453125,1.3026390075683594,-4.348476409912109,1.2236796617507935
1683139518240454700,1.59945458984375,1.322793960571289,-4.374716281890869,1.1974282264709473
1683139518258299100,1.617299072265625,1.3072853088378906,-4.385128974914551,1.2136907577514648
1683139518276149000,1.63514892578125,1.2886810302734375,-4.309365749359131,1.2085622549057007
1683139518293993200,1.6529931640625,1.2841615676879883,-4.385936260223389,1.262611985206604
1683139518311841500,1.670841552734375,1.278336524963379,-4.3333892822265625,1.2519828081130981
1683139518329687300,1.688687255859375,1.2832059860229492,-4.367245197296143,1.1992812156677246
1683139518347535400,1.706535400390625,1.3010053634643555,-4.335958003997803,1.226401448249817
1683139518365380600,1.724380615234375,1.3075141906738281,-4.359762668609619,1.1888489723205566
1683139518383228400,1.742228515625,1.2836542129516602,-4.356009483337402,1.2057945728302002
1683139518401074400,1.760074462890625,1.2791223526000977,-4.309255123138428,1.2053745985031128
1683139518418922200,1.777922119140625,1.264084815979004,-4.368326187133789,1.2574701309204102
1683139518436767500,1.795767578125,1.2692737579345703,-4.310943603515625,1.2231990098953247
1683139518454616000,1.813615966796875,1.2718706130981445,-4.360999584197998,1.2098827362060547
1683139518472461300,1.83146142578125,1.2793169021606445,-4.3456878662109375,1.2362651824951172
1683139518490310000,1.849309814453125,1.275486946105957,-4.344870567321777,1.1786866188049316
1683139518508154400,1.867154296875,1.2623329162597656,-4.341538429260254,1.2158584594726562
1683139518526002700,1.885002685546875,1.2948122024536133,-4.289600849151611,1.2134737968444824
1683139518543848400,1.902848388671875,1.2464790344238281,-4.333467960357666,1.2576159238815308
1683139518561685500,1.920685546875,1.255061149597168,-4.298256874084473,1.2109692096710205
1683139518579541800,1.938541748046875,1.246079444885254,-4.3285064697265625,1.235692024230957
1683139518597387300,1.95638720703125,1.2513484954833984,-4.324342727661133,1.2397829294204712
1683139518615239000,1.974239013671875,1.282486915588379,-4.334253787994385,1.153921365737915
1683139518633084000,1.992083984375,1.2471771240234375,-4.323765754699707,1.1897809505462646
1683139518650928600,2.0099287109375,1.265737533569336,-4.288285732269287,1.214870572090149
1683139518668777000,2.02777685546875,1.2404098510742188,-4.321944713592529,1.2233092784881592
1683139518686622500,2.04562255859375,1.258707046508789,-4.282870292663574,1.200204610824585
1683139518704470800,2.063470703125,1.2485971450805664,-4.302064418792725,1.2535526752471924
1683139518722315800,2.081315673828125,1.232895851135254,-4.301162242889404,1.218920111656189
1683139518740163800,2.099163818359375,1.2616071701049805,-4.3216047286987305,1.1367144584655762
1683139518758009600,2.117009521484375,1.2567453384399414,-4.3133368492126465,1.2194581031799316
1683139518775857200,2.134857177734375,1.261831283569336,-4.274757385253906,1.1862006187438965
1683139518793703000,2.152702880859375,1.2339801788330078,-4.286942005157471,1.2125252485275269
1683139518811550700,2.17055078125,1.2514142990112305,-4.274144172668457,1.1923190355300903
1683139518829396700,2.188396728515625,1.2230167388916016,-4.280333518981934,1.2302416563034058
1683139518847244800,2.206244873046875,1.2366113662719727,-4.288917064666748,1.1925729513168335
1683139518865090000,2.224090087890625,1.2452011108398438,-4.30322265625,1.1424353122711182
1683139518882938000,2.241938232421875,1.2392568588256836,-4.2669806480407715,1.2158011198043823
1683139518900783400,2.259783447265625,1.2640752792358398,-4.262899875640869,1.1626555919647217
1683139518918630400,2.27763037109375,1.2266712188720703,-4.279496192932129,1.1846190690994263
1683139518936478000,2.29547802734375,1.2612285614013672,-4.258548736572266,1.201515793800354
1683139518954325200,2.3133251953125,1.2231855392456055,-4.247627258300781,1.2226399183273315
1683139518972170800,2.331170654296875,1.233738899230957,-4.273138523101807,1.1610881090164185
1683139518990019000,2.34901904296875,1.246474266052246,-4.2841362953186035,1.1556522846221924
1683139519007863800,2.36686376953125,1.2135629653930664,-4.239288330078125,1.2045975923538208
1683139519025711900,2.3847119140625,1.2314634323120117,-4.2653489112854,1.1435291767120361
1683139519043557600,2.4025576171875,1.2297515869140625,-4.244600296020508,1.1903154850006104
1683139519061405700,2.42040576171875,1.2214746475219727,-4.229413986206055,1.204885482788086
1683139519079251000,2.4382509765625,1.2147769927978516,-4.210132598876953,1.1949347257614136
1683139519097098800,2.4560986328125,1.2301454544067383,-4.253215789794922,1.1614782810211182
1683139519114944800,2.47394482421875,1.2366647720336914,-4.245510578155518,1.1570494174957275
1683139519132789500,2.49178955078125,1.2014741897583008,-4.209489822387695,1.1919529438018799
1683139519150637800,2.509637939453125,1.221339225769043,-4.256875991821289,1.1412433385849
1683139519168484600,2.527484619140625,1.2056035995483398,-4.211355209350586,1.1813793182373047
1683139519186333700,2.545333740234375,1.2110700607299805,-4.2122931480407715,1.1827900409698486
1683139519204180000,2.563179931640625,1.2192983627319336,-4.19374942779541,1.1819525957107544
1683139519222024700,2.581024658203125,1.2173490524291992,-4.242257595062256,1.160068154335022
1683139519239861000,2.598861083984375,1.2170696258544922,-4.197902202606201,1.1647028923034668
1683139519257718500,2.616718505859375,1.1883554458618164,-4.192417621612549,1.1582098007202148
1683139519275566600,2.634566650390625,1.2171831130981445,-4.220746040344238,1.1406567096710205
1683139519293411800,2.652411865234375,1.1940155029296875,-4.157689571380615,1.1882977485656738
1683139519311259600,2.670259765625,1.1842660903930664,-4.205305576324463,1.1868550777435303
1683139519329105700,2.688105712890625,1.2110910415649414,-4.172326564788818,1.173866868019104
1683139519346941000,2.70594091796875,1.1942567825317383,-4.20742130279541,1.153721570968628
1683139519364798700,2.723798828125,1.2020025253295898,-4.156614303588867,1.16817045211792
1683139519382647000,2.74164697265625,1.1687440872192383,-4.173363208770752,1.1389602422714233
1683139519400488000,2.759488037109375,1.1867122650146484,-4.198895454406738,1.159618854522705
1683139519418344200,2.77734423828125,1.1759109497070312,-4.133559226989746,1.1632994413375854
1683139519436186600,2.7951865234375,1.159332275390625,-4.173700332641602,1.1808183193206787
1683139519454035000,2.813034912109375,1.1928253173828125,-4.134673118591309,1.1716537475585938
1683139519471879400,2.83087939453125,1.159414291381836,-4.181673049926758,1.1444417238235474
1683139519489727700,2.848727783203125,1.1783418655395508,-4.1338934898376465,1.1609487533569336
1683139519507572700,2.86657275390625,1.1891422271728516,-4.148830890655518,1.1415259838104248
1683139519525420500,2.884420654296875,1.1623172760009766,-4.165937900543213,1.148974895477295
1683139519543266000,2.90226611328125,1.151662826538086,-4.087508678436279,1.148902177810669
1683139519561102800,2.920102783203125,1.1406621932983398,-4.15281867980957,1.1993433237075806
1683139519578959400,2.93795947265625,1.145395278930664,-4.112480640411377,1.184640645980835
1683139519596808000,2.955807861328125,1.1367607116699219,-4.146378993988037,1.1485387086868286
1683139519614653200,2.973653076171875,1.1517438888549805,-4.115174770355225,1.1637636423110962
1683139519632501200,2.991501220703125,1.162428855895996,-4.112285614013672,1.134509563446045
1683139519650346200,3.00934619140625,1.1415157318115234,-4.129673957824707,1.1526126861572266
1683139519668194600,3.027194580078125,1.1293888092041016,-4.067215442657471,1.1458927392959595
1683139519686040300,3.045040283203125,1.1193103790283203,-4.126063346862793,1.1973240375518799
1683139519703888400,3.062888427734375,1.1325006484985352,-4.083432197570801,1.154869794845581
1683139519721733400,3.0807333984375,1.131150245666504,-4.131053447723389,1.1309081315994263
1683139519739581700,3.098581787109375,1.1255626678466797,-4.10867977142334,1.1698585748672485
1683139519757427000,3.116427001953125,1.1245298385620117,-4.096744060516357,1.1198351383209229
1683139519775274800,3.134274658203125,1.1072263717651367,-4.104325771331787,1.1417006254196167
1683139519793120300,3.152120361328125,1.1427736282348633,-4.043685436248779,1.148816466331482
1683139519810968000,3.169968017578125,1.097264289855957,-4.089563846588135,1.1978265047073364
1683139519828814000,3.18781396484375,1.0991592407226562,-4.062171459197998,1.1434252262115479
1683139519846662100,3.205662109375,1.0996408462524414,-4.0828375816345215,1.151374340057373
1683139519864507100,3.223507080078125,1.1009712219238281,-4.067142009735107,1.1719450950622559
1683139519882355200,3.241355224609375,1.1314821243286133,-4.078425407409668,1.0869685411453247
1683139519900201000,3.259200927734375,1.0995063781738281,-4.075235366821289,1.1308671236038208
1683139519918048800,3.277048828125,1.1214561462402344,-4.029031753540039,1.1440292596817017
1683139519935894000,3.29489404296875,1.086012840270996,-4.0637383460998535,1.1605417728424072
1683139519953728300,3.312728271484375,1.1084794998168945,-4.030599117279053,1.1238572597503662
1683139519971590700,3.330590576171875,1.0880489349365234,-4.051794052124023,1.1527138948440552
1683139519989436000,3.348435791015625,1.0830230712890625,-4.045388221740723,1.1464951038360596
1683139520007280600,3.36628076171875,1.115675926208496,-4.064269065856934,1.054521918296814
1683139520025129000,3.38412890625,1.091700553894043,-4.0540337562561035,1.1313096284866333
1683139520042974500,3.401974365234375,1.1026182174682617,-3.9994804859161377,1.1221033334732056
1683139520060810800,3.419810791015625,1.0720481872558594,-4.025568962097168,1.1418002843856812
1683139520078668000,3.43766796875,1.101496696472168,-4.0122294425964355,1.1033895015716553
1683139520096516400,3.455516357421875,1.0720930099487305,-4.011268615722656,1.152200698852539
1683139520114361600,3.473361572265625,1.063349723815918,-4.0186004638671875,1.1214402914047241
1683139520132209400,3.49120947265625,1.079636573791504,-4.040280342102051,1.0592460632324219
1683139520150054400,3.509054443359375,1.0748205184936523,-4.004839897155762,1.1406431198120117
1683139520167902500,3.52690234375,1.087996482849121,-3.9868714809417725,1.1014807224273682
1683139520185748200,3.544748291015625,1.077108383178711,-4.002952575683594,1.10739266872406
1683139520203596500,3.562596435546875,1.091374397277832,-3.9859509468078613,1.1151087284088135
1683139520221441500,3.580441650390625,1.0741825103759766,-3.9698472023010254,1.1433743238449097
1683139520239289600,3.59828955078125,1.0630302429199219,-3.9958548545837402,1.0883042812347412
1683139520257135400,3.61613525390625,1.0865354537963867,-4.014270782470703,1.0679377317428589
1683139520274983000,3.63398291015625,1.0638561248779297,-3.9560706615448,1.126575231552124
1683139520292824600,3.651824462890625,1.0648584365844727,-3.970536470413208,1.0659953355789185
1683139520310673200,3.669673095703125,1.0782203674316406,-3.964688301086426,1.1069509983062744
1683139520328520700,3.687520751953125,1.0530967712402344,-3.9454424381256104,1.1210764646530151
1683139520346371000,3.70537109375,1.0533266067504883,-3.923161745071411,1.1131844520568848
1683139520364215000,3.723215087890625,1.0553083419799805,-3.9695489406585693,1.0777016878128052
1683139520382063000,3.74106298828125,1.0686473846435547,-3.9588749408721924,1.07244074344635
1683139520399898600,3.758898681640625,1.0432567596435547,-3.913125514984131,1.112128734588623
1683139520417757400,3.77675732421875,1.0588254928588867,-3.9553165435791016,1.057466745376587
1683139520435601700,3.7946015625,1.0525321960449219,-3.908050537109375,1.0997140407562256
1683139520453443800,3.81244384765625,1.0414705276489258,-3.9206602573394775,1.092401385307312
1683139520471295500,3.83029541015625,1.0582008361816406,-3.895536184310913,1.1014851331710815
1683139520489143800,3.848143798828125,1.0367183685302734,-3.946753978729248,1.0807232856750488
1683139520506988500,3.865988525390625,1.0428094863891602,-3.90572452545166,1.075779676437378
1683139520524836600,3.883836669921875,1.0328073501586914,-3.883018732070923,1.071346640586853
1683139520542682000,3.90168212890625,1.040818214416504,-3.919890880584717,1.05726957321167
1683139520560518400,3.919518310546875,1.0323448181152344,-3.8571295738220215,1.0989704132080078
1683139520578374700,3.937374755859375,1.0092248916625977,-3.889817237854004,1.0959221124649048
1683139520596224500,3.955224609375,1.0359477996826172,-3.8610055446624756,1.0862284898757935
1683139520614069200,3.9730693359375,1.0232620239257812,-3.8987221717834473,1.0658302307128906
1683139520631917000,3.9909169921875,1.015244483947754,-3.858745574951172,1.0807688236236572
1683139520649762000,4.008761962890625,1.0089473724365234,-3.849069356918335,1.0581828355789185
1683139520667610000,4.026610107421875,1.0019512176513672,-3.8932764530181885,1.0779362916946411
1683139520685445400,4.0444453125,1.0044469833374023,-3.817760467529297,1.0829108953475952
1683139520703304400,4.062304443359375,0.9892358779907227,-3.8649072647094727,1.0869410037994385
1683139520721149200,4.080149169921875,0.9983463287353516,-3.8322062492370605,1.090305209159851
1683139520738997000,4.0979970703125,0.9974308013916016,-3.8629417419433594,1.0569067001342773
1683139520756842800,4.1158427734375,0.9871931076049805,-3.822817325592041,1.0661003589630127
1683139520774690800,4.13369091796875,1.0070505142211914,-3.830730438232422,1.0580588579177856
1683139520792535600,4.15153564453125,0.9864368438720703,-3.8560359477996826,1.0763171911239624
1683139520810371800,4.169371826171875,0.9678897857666016,-3.769455671310425,1.0570424795150757
1683139520828230000,4.18722998046875,0.9547557830810547,-3.8358123302459717,1.1125127077102661
1683139520846077400,4.205077392578125,0.9657363891601562,-3.8049964904785156,1.0971288681030273
1683139520863923000,4.2229228515625,0.9681291580200195,-3.8206958770751953,1.051637887954712
1683139520881771000,4.24077099609375,0.9659404754638672,-3.794598340988159,1.07709801197052
1683139520899616300,4.2586162109375,0.987706184387207,-3.7865045070648193,1.046393871307373
1683139520917464000,4.276464111328125,0.9457006454467773,-3.8044960498809814,1.0639348030090332
1683139520935297500,4.294297607421875,0.9604682922363281,-3.7478647232055664,1.0542935132980347
1683139520953157400,4.312157470703125,0.9334611892700195,-3.7972707748413086,1.1109614372253418
1683139520971003100,4.330003173828125,0.953089714050293,-3.7610907554626465,1.0732388496398926
1683139520988851200,4.347851318359375,0.9544878005981445,-3.8038299083709717,1.0254184007644653
1683139521006696200,4.3656962890625,0.9510202407836914,-3.7792766094207764,1.0656818151474
1683139521024543700,4.383543701171875,0.9542675018310547,-3.7597198486328125,1.029083251953125
1683139521042390500,4.401390625,0.9260063171386719,-3.7805070877075195,1.0470627546310425
1683139521060237800,4.41923779296875,0.9543647766113281,-3.703329563140869,1.0566439628601074
1683139521078071300,4.4370712890625,0.9190673828125,-3.7424426078796387,1.111891269683838
1683139521095931400,4.454931396484375,0.925750732421875,-3.7295966148376465,1.0417542457580566
1683139521113776600,4.472776611328125,0.921086311340332,-3.7506091594696045,1.050815463066101
1683139521131624700,4.490624755859375,0.925389289855957,-3.7366435527801514,1.074946641921997
1683139521149469400,4.508469482421875,0.9456119537353516,-3.7352869510650635,0.9863227009773254
1683139521167317500,4.5263173828125,0.9190616607666016,-3.728304624557495,1.0334383249282837
1683139521185151200,4.544151123046875,0.9259634017944336,-3.690185070037842,1.0471651554107666
1683139521203011600,4.562011474609375,0.8790016174316406,-3.7204182147979736,1.0711848735809326
1683139521220856600,4.579856689453125,0.9247217178344727,-3.698720932006836,1.0287916660308838
1683139521238705000,4.597704833984375,0.9001102447509766,-3.7074790000915527,1.054287075996399
1683139521256550100,4.615550048828125,0.9024028778076172,-3.6995949745178223,1.0592514276504517
1683139521274398000,4.63339794921875,0.9360275268554688,-3.7188799381256104,0.9549206495285034
1683139521292243000,4.651242919921875,0.9069967269897461,-3.702455997467041,1.0323872566223145
1683139521310079500,4.66907958984375,0.933746337890625,-3.647336721420288,1.0417457818984985
1683139521327937000,4.68693701171875,0.8813867568969727,-3.659172534942627,1.047968864440918
1683139521345785300,4.704785400390625,0.9150896072387695,-3.6747124195098877,1.0091744661331177
1683139521363630000,4.722630126953125,0.891937255859375,-3.666433811187744,1.0492165088653564
1683139521381478000,4.740477783203125,0.8904180526733398,-3.6708226203918457,1.0257154703140259
1683139521399325200,4.7583251953125,0.9145774841308594,-3.6920554637908936,0.9515239596366882
1683139521417170200,4.776170166015625,0.8922853469848633,-3.6456398963928223,1.040009617805481
1683139521435016400,4.794016357421875,0.9075345993041992,-3.625939130783081,1.0111725330352783
1683139521452855300,4.811855224609375,0.8904905319213867,-3.636984348297119,1.0075722932815552
1683139521470710500,4.82971044921875,0.9036684036254883,-3.6362688541412354,1.0124616622924805
1683139521488558600,4.84755859375,0.8863973617553711,-3.620288610458374,1.0240795612335205
1683139521506403600,4.865403564453125,0.87615966796875,-3.6304149627685547,0.9853000044822693
1683139521524251600,4.883251708984375,0.9115142822265625,-3.653564691543579,0.9598352909088135
1683139521542097000,4.901096923828125,0.8760671615600586,-3.6018404960632324,1.0180823802947998
1683139521559933200,4.91893310546875,0.8804283142089844,-3.6108407974243164,0.9771023988723755
1683139521577790200,4.936790283203125,0.8955936431884766,-3.6056175231933594,1.0018073320388794
1683139521595638300,4.95463818359375,0.8730268478393555,-3.598012685775757,1.013002872467041
1683139521613483800,4.97248388671875,0.8630008697509766,-3.5557026863098145,1.0101827383041382
1683139521631331600,4.99033154296875,0.8684816360473633,-3.597168207168579,0.9707152247428894
1683139521649176600,5.008176513671875,0.8794012069702148,-3.596909284591675,0.9688125252723694
1683139521667024600,5.026024658203125,0.8501482009887695,-3.5457406044006348,1.0054631233215332
1683139521684866600,5.043866455078125,0.8540897369384766,-3.595839023590088,0.9679100513458252
1683139521702718500,5.061718505859375,0.8663530349731445,-3.553487777709961,0.998381495475769
1683139521720563700,5.079563720703125,0.865056037902832,-3.5565025806427,0.993031919002533
1683139521738410500,5.097410400390625,0.8629074096679688,-3.528080463409424,0.9903786778450012
1683139521756258000,5.115258056640625,0.8575963973999023,-3.5703859329223633,0.9697218537330627
1683139521774104800,5.133104736328125,0.8517265319824219,-3.545240879058838,0.9673870801925659
1683139521791949800,5.15094970703125,0.8482627868652344,-3.5061607360839844,0.9725179076194763
1683139521809798000,5.1687978515625,0.8480844497680664,-3.538113832473755,0.9686689376831055
1683139521827644200,5.18664404296875,0.842341423034668,-3.4857304096221924,0.9911676645278931
1683139521845491700,5.20449169921875,0.8206853866577148,-3.529517650604248,1.002237319946289
1683139521863332000,5.22233203125,0.8361425399780273,-3.4931981563568115,0.9899053573608398
1683139521881185000,5.24018505859375,0.8339290618896484,-3.529120683670044,0.9710928201675415
1683139521899030500,5.258030517578125,0.8301849365234375,-3.4864768981933594,0.9731175303459167
1683139521916878300,5.27587841796875,0.8157548904418945,-3.4725632667541504,0.9581975340843201
1683139521934723300,5.293723388671875,0.8199634552001953,-3.524373769760132,0.977357029914856
1683139521952572000,5.311572021484375,0.8128376007080078,-3.4443013668060303,0.975191593170166
1683139521970417000,5.3294169921875,0.7988424301147461,-3.4942915439605713,0.9797277450561523
1683139521988265500,5.347265380859375,0.8300809860229492,-3.455099582672119,0.9815983772277832
1683139522006110000,5.36510986328125,0.8139419555664062,-3.4881463050842285,0.9403961896896362
1683139522023956200,5.382956298828125,0.8054370880126953,-3.4509499073028564,0.9674532413482666
1683139522041806000,5.40080615234375,0.8097076416015625,-3.443587064743042,0.9528205990791321
1683139522059651800,5.41865185546875,0.7837085723876953,-3.4747774600982666,0.9759422540664673
1683139522077496800,5.436496826171875,0.7837343215942383,-3.39924955368042,0.9547866582870483
1683139522095345200,5.45434521484375,0.7676830291748047,-3.451362133026123,1.0106807947158813
1683139522113190700,5.472190673828125,0.7735109329223633,-3.4199860095977783,0.998650312423706
1683139522131038700,5.490038818359375,0.7882623672485352,-3.4440174102783203,0.9244140982627869
1683139522148883500,5.507883544921875,0.779536247253418,-3.4064817428588867,0.9670386910438538
1683139522166731500,5.5257314453125,0.8031702041625977,-3.40116810798645,0.9401966333389282
1683139522184577000,5.543576904296875,0.7605104446411133,-3.422168016433716,0.9640743732452393
1683139522202425300,5.56142529296875,0.7712469100952148,-3.3626465797424316,0.946946918964386
1683139522220270000,5.57927001953125,0.7502069473266602,-3.413383722305298,1.010050892829895
1683139522238118400,5.597118408203125,0.7671995162963867,-3.378648281097412,0.9586493968963623
1683139522255963600,5.614963623046875,0.7670297622680664,-3.417524576187134,0.9090175628662109
1683139522273811500,5.6328115234375,0.766352653503418,-3.3965542316436768,0.9561393857002258
1683139522291656700,5.65065673828125,0.7741641998291016,-3.371276378631592,0.9264897704124451
1683139522309504500,5.66850439453125,0.7442703247070312,-3.3888895511627197,0.9372832775115967
1683139522327350500,5.6863505859375,0.7775516510009766,-3.321362018585205,0.9486109614372253
1683139522345198300,5.7041982421875,0.7279243469238281,-3.3539175987243652,0.9948415756225586
1683139522363043600,5.722043701171875,0.7461519241333008,-3.3454627990722656,0.929892897605896
1683139522380891600,5.7398916015625,0.7438974380493164,-3.370619535446167,0.9218462109565735
1683139522398735400,5.7577353515625,0.7439517974853516,-3.352450370788574,0.9614914655685425
1683139522416586200,5.775586181640625,0.7677984237670898,-3.3411977291107178,0.877955973148346
1683139522434430000,5.793429931640625,0.7301454544067383,-3.3458144664764404,0.9131641983985901
1683139522452278000,5.811278076171875,0.7562322616577148,-3.2990472316741943,0.9457641839981079
1683139522470111700,5.82911181640625,0.701777458190918,-3.3299827575683594,0.9549379348754883
1683139522487971600,5.8469716796875,0.7438392639160156,-3.310959577560425,0.9126961827278137
1683139522505816600,5.864816650390625,0.731419563293457,-3.3221065998077393,0.9208130240440369
1683139522523664600,5.88266455078125,0.7274627685546875,-3.3028767108917236,0.9393932819366455
1683139522541510100,5.90051025390625,0.7480249404907227,-3.3185696601867676,0.8507152795791626
1683139522559358200,5.918358154296875,0.7237968444824219,-3.3075003623962402,0.92325359582901
1683139522577203200,5.936203125,0.7380943298339844,-3.2534353733062744,0.9298100471496582
1683139522595051500,5.954051513671875,0.6941604614257812,-3.269050121307373,0.9359938502311707
1683139522612892400,5.971892333984375,0.7299299240112305,-3.2852296829223633,0.8960704207420349
1683139522630745000,5.9897451171875,0.7130870819091797,-3.272754430770874,0.9409561157226562
1683139522648589800,6.00758984375,0.6939096450805664,-3.266603469848633,0.9166656136512756
1683139522666437600,6.025437744140625,0.7254743576049805,-3.3009982109069824,0.8319758176803589
1683139522684283400,6.043283447265625,0.7214775085449219,-3.2561116218566895,0.921122133731842
1683139522702131700,6.061131591796875,0.7258367538452148,-3.2319767475128174,0.8934583067893982
1683139522719976700,6.078976806640625,0.70538330078125,-3.2453622817993164,0.9111909866333008
1683139522737824500,6.096824462890625,0.7238311767578125,-3.250441312789917,0.9030253291130066
1683139522755670300,6.114670166015625,0.7087249755859375,-3.217972755432129,0.9089797735214233
1683139522773518000,6.13251806640625,0.700286865234375,-3.2381644248962402,0.884000837802887
1683139522791363000,6.150363037109375,0.7107782363891602,-3.2504608631134033,0.854896605014801
1683139522809211100,6.168211181640625,0.6897077560424805,-3.193997621536255,0.910428524017334
1683139522827057000,6.186056884765625,0.6921930313110352,-3.212399959564209,0.8694795370101929
1683139522844905000,6.203905029296875,0.7099752426147461,-3.2026538848876953,0.8918077349662781
1683139522862746400,6.221746337890625,0.6895523071289062,-3.2030270099639893,0.8991376757621765
1683139522880597800,6.23959765625,0.6772031784057617,-3.154679298400879,0.8999820947647095
1683139522898442500,6.2574423828125,0.6805953979492188,-3.204430341720581,0.8715899586677551
1683139522916292000,6.2752919921875,0.7025489807128906,-3.1952672004699707,0.8521331548690796
1683139522934132700,6.2931328125,0.6652116775512695,-3.1390538215637207,0.8896901607513428
1683139522951984600,6.310984619140625,0.6797189712524414,-3.1968376636505127,0.8609235286712646
1683139522969830000,6.328829833984375,0.6984472274780273,-3.147775650024414,0.8799424767494202
1683139522987678000,6.346677978515625,0.6697931289672852,-3.1577792167663574,0.8860206604003906
1683139523005523000,6.36452294921875,0.6792573928833008,-3.1243441104888916,0.8902388215065002
1683139523023368200,6.3823681640625,0.6700630187988281,-3.169220447540283,0.8523183465003967
1683139523041219300,6.40021923828125,0.6765880584716797,-3.1460375785827637,0.8535696864128113
1683139523059064600,6.418064697265625,0.6518650054931641,-3.096646308898926,0.8560774326324463
1683139523076909300,6.435909423828125,0.6656169891357422,-3.1424057483673096,0.8653637766838074
1683139523094755300,6.45375537109375,0.6649808883666992,-3.0891072750091553,0.8763408064842224
1683139523112603100,6.47160302734375,0.6291580200195312,-3.1242825984954834,0.8840448260307312
1683139523130451500,6.489451416015625,0.6553850173950195,-3.0927045345306396,0.8836594820022583
1683139523148282000,6.5072822265625,0.64794921875,-3.130387544631958,0.8470389246940613
1683139523166146800,6.525146728515625,0.6403169631958008,-3.085603713989258,0.8570832014083862
1683139523183989800,6.54298974609375,0.6277399063110352,-3.0566508769989014,0.8415737748146057
1683139523201837600,6.560837646484375,0.6353483200073242,-3.1175739765167236,0.8717492818832397
1683139523219682800,6.578682861328125,0.6300106048583984,-3.040853977203369,0.8664990663528442
1683139523237531000,6.59653076171875,0.6101722717285156,-3.0865604877471924,0.8670020699501038
1683139523255376400,6.61437646484375,0.6501455307006836,-3.0547549724578857,0.8672795295715332
1683139523273216300,6.63221630859375,0.632624626159668,-3.084019660949707,0.821811854839325
1683139523291069700,6.650069580078125,0.6304492950439453,-3.0497286319732666,0.8392277359962463
1683139523308920000,6.667920166015625,0.6227216720581055,-3.029345989227295,0.8357966542243958
1683139523326762800,6.6857626953125,0.6153488159179688,-3.077147960662842,0.8629878163337708
1683139523344610800,6.70361083984375,0.604395866394043,-2.9923665523529053,0.8383045792579651
1683139523362456300,6.721456298828125,0.5967693328857422,-3.050915479660034,0.8741380572319031
1683139523380304000,6.739303955078125,0.6046676635742188,-3.0248587131500244,0.8767023086547852
1683139523398148400,6.7571484375,0.6097021102905273,-3.0402543544769287,0.8128373622894287
1683139523415998500,6.77499853515625,0.5994319915771484,-3.010728359222412,0.8455449938774109
1683139523433842200,6.79284228515625,0.62127685546875,-2.988992214202881,0.8333495855331421
1683139523451690200,6.810690185546875,0.579981803894043,-3.0141398906707764,0.8461087942123413
1683139523469536000,6.828535888671875,0.5846700668334961,-2.960642099380493,0.8247384428977966
1683139523487384300,6.84638427734375,0.5780858993530273,-3.004462480545044,0.8836644887924194
1683139523505228800,6.864228759765625,0.58587646484375,-2.979830265045166,0.8548110127449036
1683139523523077000,6.8820771484375,0.5931463241577148,-3.007845878601074,0.7869545817375183
1683139523540922400,6.89992236328125,0.573185920715332,-2.9851162433624268,0.836118757724762
1683139523558765600,6.917765625,0.6042137145996094,-2.9549365043640137,0.8183467388153076
1683139523576615700,6.93561572265625,0.5616273880004883,-2.973738431930542,0.8269394636154175
1683139523594453000,6.953452880859375,0.5908746719360352,-2.917356491088867,0.8296006321907043
1683139523612309200,6.971309326171875,0.5545816421508789,-2.9521355628967285,0.8813727498054504
1683139523630157000,6.989156982421875,0.5574531555175781,-2.9437880516052246,0.8266332745552063
1683139523648001800,7.007001708984375,0.5749340057373047,-2.968466281890869,0.7864874601364136
1683139523665849900,7.024849853515625,0.5598974227905273,-2.939950466156006,0.8516284823417664
1683139523683685000,7.04268505859375,0.5861835479736328,-2.924600839614868,0.7795397639274597
1683139523701544000,7.0605439453125,0.5488605499267578,-2.937084197998047,0.8119049668312073
1683139523719389000,7.078388916015625,0.5783481597900391,-2.8902645111083984,0.8217888474464417
1683139523737236500,7.096236572265625,0.5267972946166992,-2.9241085052490234,0.8489577174186707
1683139523755081200,7.114081298828125,0.550999641418457,-2.9151899814605713,0.7934790849685669
1683139523772933000,7.13193310546875,0.5586080551147461,-2.922412872314453,0.7964379191398621
1683139523790775000,7.149775146484375,0.549403190612793,-2.8958375453948975,0.8278949856758118
1683139523808628700,7.167628662109375,0.5793161392211914,-2.8962185382843018,0.7399167418479919
1683139523826468600,7.185468505859375,0.5450372695922852,-2.9061098098754883,0.7988888025283813
1683139523844316700,7.203316650390625,0.5557031631469727,-2.8473169803619385,0.8182881474494934
1683139523862162000,7.221161865234375,0.5296115875244141,-2.85448956489563,0.8377570509910583
1683139523879998200,7.238998291015625,0.5367927551269531,-2.880103826522827,0.7792121171951294
1683139523897855200,7.256855224609375,0.5474672317504883,-2.8752338886260986,0.7991971373558044
1683139523915703000,7.274703125,0.529052734375,-2.8611223697662354,0.8033910393714905
1683139523933548300,7.29254833984375,0.5420236587524414,-2.876666784286499,0.7165162563323975
1683139523951396400,7.310396240234375,0.5451440811157227,-2.8573997020721436,0.7999120950698853
1683139523969242000,7.3282421875,0.5426092147827148,-2.818464517593384,0.7957726120948792
1683139523987090000,7.34608984375,0.5243387222290039,-2.8291149139404297,0.8004425168037415
1683139524004934700,7.3639345703125,0.5528907775878906,-2.841538190841675,0.7635136246681213
1683139524022776300,7.3817763671875,0.5216960906982422,-2.822482109069824,0.7860763072967529
1683139524040631800,7.3996318359375,0.5182056427001953,-2.8230409622192383,0.776796817779541
1683139524058476300,7.417476318359375,0.5394754409790039,-2.844491720199585,0.7158694267272949
1683139524076321300,7.4353212890625,0.5309343338012695,-2.788146495819092,0.794486403465271
1683139524094169300,7.45316943359375,0.5238494873046875,-2.7948598861694336,0.7552806735038757
1683139524112015000,7.47101513671875,0.5275983810424805,-2.7892744541168213,0.7796461582183838
1683139524129864400,7.488864501953125,0.5234413146972656,-2.804018974304199,0.7799991965293884
1683139524147706400,7.506706298828125,0.5156440734863281,-2.7619824409484863,0.7764852046966553
1683139524165556000,7.524555908203125,0.517369270324707,-2.7941908836364746,0.7483008503913879
1683139524183390200,7.54239013671875,0.5266122817993164,-2.80356502532959,0.7174046039581299
1683139524201249500,7.56024951171875,0.512547492980957,-2.7294254302978516,0.7745043039321899
1683139524219094500,7.578094482421875,0.5006322860717773,-2.7713754177093506,0.7600651979446411
1683139524236942800,7.59594287109375,0.5172157287597656,-2.748887062072754,0.7675825953483582
1683139524254785300,7.613785400390625,0.5135278701782227,-2.7588281631469727,0.763241708278656
1683139524272639000,7.631638916015625,0.5125999450683594,-2.7179911136627197,0.7627804279327393
1683139524290481200,7.649481201171875,0.5029382705688477,-2.763434648513794,0.7332445383071899
1683139524308328200,7.667328125,0.5095272064208984,-2.74845290184021,0.7376524806022644
1683139524326180900,7.685180908203125,0.4828767776489258,-2.6825485229492188,0.7664120197296143
1683139524344022800,7.703022705078125,0.49128055572509766,-2.7321109771728516,0.7448515892028809
1683139524361867800,7.72086767578125,0.5095653533935547,-2.688760280609131,0.7588198781013489
1683139524379715600,7.738715576171875,0.4759330749511719,-2.7178056240081787,0.7601969242095947
1683139524397561300,7.756561279296875,0.4827718734741211,-2.683396339416504,0.7600374221801758
1683139524415409200,7.7744091796875,0.4842538833618164,-2.728386402130127,0.737108588218689
1683139524433254100,7.792254150390625,0.49156951904296875,-2.692958354949951,0.7294055223464966
1683139524451102200,7.810102294921875,0.4831514358520508,-2.638176202774048,0.7248121500015259
1683139524468947700,7.82794775390625,0.47525787353515625,-2.7006988525390625,0.7633348703384399
1683139524486796000,7.845796142578125,0.47443199157714844,-2.6410117149353027,0.7577043771743774
1683139524504640800,7.863640869140625,0.4593772888183594,-2.6817359924316406,0.7476336359977722
1683139524522485800,7.88148583984375,0.4729118347167969,-2.6512651443481445,0.7610523700714111
1683139524540337200,7.899337158203125,0.4784412384033203,-2.672769069671631,0.7246752381324768
1683139524558182400,7.917182373046875,0.46839141845703125,-2.6453895568847656,0.7282956838607788
1683139524576017700,7.935017578125,0.45972537994384766,-2.626516819000244,0.722293496131897
1683139524593863700,7.95286376953125,0.4641904830932617,-2.6733193397521973,0.7619887590408325
1683139524611720000,7.970719970703125,0.45358848571777344,-2.6011335849761963,0.7444170117378235
1683139524629570000,7.988570068359375,0.44244384765625,-2.6481759548187256,0.7559027671813965
1683139524647413800,8.006413818359375,0.45177364349365234,-2.612513542175293,0.7437616586685181
1683139524665261800,8.02426171875,0.4591331481933594,-2.6364188194274902,0.7052798271179199
1683139524683095600,8.042095458984376,0.4322977066040039,-2.6193673610687256,0.7288193106651306
1683139524700946400,8.059946533203124,0.45284557342529297,-2.5778591632843018,0.7268035411834717
1683139524718801000,8.07780078125,0.43015575408935547,-2.6231770515441895,0.7357163429260254
1683139524736648000,8.09564794921875,0.4355888366699219,-2.5600292682647705,0.7115415930747986
1683139524754494500,8.113494384765625,0.4297657012939453,-2.607795238494873,0.7588286995887756
1683139524772342000,8.131342041015625,0.4280052185058594,-2.579379081726074,0.7589964270591736
1683139524790187300,8.149187255859376,0.4449167251586914,-2.6084187030792236,0.6663371324539185
1683139524808034800,8.167034912109376,0.4299936294555664,-2.579679012298584,0.7182191610336304
1683139524825880300,8.18488037109375,0.4728221893310547,-2.5601274967193604,0.7095904350280762
1683139524843728600,8.202728759765625,0.41501522064208984,-2.5765469074249268,0.7308760285377502
1683139524861570000,8.220570068359375,0.42522335052490234,-2.5246310234069824,0.7100206017494202
1683139524879425500,8.238425537109375,0.40866947174072266,-2.5655598640441895,0.7617548108100891
1683139524897267500,8.256267333984376,0.4135580062866211,-2.5428130626678467,0.7278658747673035
1683139524915112200,8.2741123046875,0.4334077835083008,-2.5750811100006104,0.6622940301895142
1683139524932955600,8.29195556640625,0.4103679656982422,-2.5452938079833984,0.7134790420532227
1683139524950792400,8.30979248046875,0.4507894515991211,-2.5210800170898438,0.6972399950027466
1683139524968657000,8.327656982421875,0.4034280776977539,-2.546947956085205,0.7066930532455444
1683139524986502100,8.345502197265626,0.4360027313232422,-2.4791676998138428,0.7172814607620239
1683139525004347000,8.363346923828125,0.38881492614746094,-2.507021903991699,0.7588776350021362
1683139525022195000,8.38119482421875,0.3962211608886719,-2.5157995223999023,0.7009867429733276
1683139525040040400,8.39904052734375,0.4280853271484375,-2.532337188720703,0.6668378710746765
1683139525057888300,8.41688818359375,0.41242313385009766,-2.5059397220611572,0.7095173597335815
1683139525075733200,8.434733154296875,0.4364776611328125,-2.495152235031128,0.6461024880409241
1683139525093581600,8.45258154296875,0.3967580795288086,-2.4998037815093994,0.6785489916801453
1683139525111425000,8.470425048828124,0.41471385955810547,-2.4578590393066406,0.701874852180481
1683139525129274000,8.488274169921874,0.3970184326171875,-2.4774959087371826,0.7429351210594177
1683139525147122700,8.506122802734374,0.3898153305053711,-2.477426052093506,0.6725021600723267
1683139525164968000,8.523968017578126,0.4063892364501953,-2.4881386756896973,0.6657279133796692
1683139525182810000,8.54181005859375,0.4045419692993164,-2.4599032402038574,0.7096325755119324
1683139525200661000,8.559660888671875,0.42573070526123047,-2.466062307357788,0.6199947595596313
1683139525218506500,8.577506591796874,0.4109764099121094,-2.468130111694336,0.6864521503448486
1683139525236353000,8.59535302734375,0.41272544860839844,-2.4144091606140137,0.6931940317153931
1683139525254201900,8.613201904296876,0.38478755950927734,-2.4267444610595703,0.7129619121551514
1683139525272048000,8.631048095703125,0.4033374786376953,-2.45871639251709,0.648375928401947
1683139525289890000,8.64889013671875,0.3881998062133789,-2.4469845294952393,0.6758161187171936
1683139525307743700,8.66674365234375,0.38254547119140625,-2.427703380584717,0.6832004189491272
1683139525325584600,8.684584716796875,0.4054222106933594,-2.451364755630493,0.599372148513794
1683139525343434800,8.702434814453126,0.40642833709716797,-2.408846378326416,0.6787713170051575
1683139525361279500,8.720279541015625,0.4006643295288086,-2.3840794563293457,0.6847449541091919
1683139525379127600,8.73812744140625,0.3814258575439453,-2.394045114517212,0.6712298393249512
1683139525396973600,8.7559736328125,0.39329051971435547,-2.409857749938965,0.6600348949432373
1683139525414820900,8.77382080078125,0.3911857604980469,-2.399104118347168,0.6626450419425964
1683139525432666000,8.791666015625,0.37429141998291016,-2.3874573707580566,0.6590913534164429
1683139525450514400,8.809514404296875,0.4034852981567383,-2.4165756702423096,0.6218953132629395
1683139525468359000,8.82735888671875,0.3829460144042969,-2.356907367706299,0.668168842792511
1683139525486208800,8.845208740234375,0.3791770935058594,-2.3642964363098145,0.6509149074554443
1683139525504050200,8.86305029296875,0.40638160705566406,-2.3594930171966553,0.6614850759506226
1683139525521903000,8.880903076171874,0.37599754333496094,-2.3793370723724365,0.6570974588394165
1683139525539746300,8.898746337890625,0.39371585845947266,-2.3342483043670654,0.6577039957046509
1683139525557596400,8.916596435546875,0.3707904815673828,-2.360417127609253,0.6292226910591125
1683139525575439400,8.934439453125,0.40411376953125,-2.3691766262054443,0.6083499789237976
1683139525593287700,8.95228759765625,0.37087535858154297,-2.3024566173553467,0.6638209819793701
1683139525611130000,8.970130126953125,0.3689765930175781,-2.3489317893981934,0.6446306705474854
1683139525628983800,8.98798388671875,0.38957691192626953,-2.3147518634796143,0.6481829881668091
1683139525646826200,9.005826171875,0.3643369674682617,-2.338646411895752,0.6433656215667725
1683139525664673500,9.023673583984374,0.381622314453125,-2.286731481552124,0.6551973223686218
1683139525682519300,9.041519287109375,0.3589906692504883,-2.332038164138794,0.6193139553070068
1683139525700367400,9.059367431640625,0.3785886764526367,-2.3302295207977295,0.6315500736236572
1683139525718212400,9.07721240234375,0.34468555450439453,-2.267244338989258,0.6335986852645874
1683139525736060200,9.09506005859375,0.35268688201904297,-2.309565544128418,0.6439315676689148
1683139525753903600,9.112903564453125,0.37526607513427734,-2.26049542427063,0.6505265831947327
1683139525771756000,9.130756103515624,0.3495302200317383,-2.296234607696533,0.6430848836898804
1683139525789599200,9.14859912109375,0.3576517105102539,-2.2623586654663086,0.6340922713279724
1683139525807435500,9.166435546875,0.3720588684082031,-2.3018856048583984,0.6152961254119873
1683139525825292000,9.1842919921875,0.3584785461425781,-2.284156560897827,0.6219688653945923
1683139525843140000,9.20214013671875,0.33808040618896484,-2.2278661727905273,0.6152817606925964
1683139525860985000,9.219985107421875,0.33862781524658203,-2.2871174812316895,0.6534954309463501
1683139525878833400,9.23783349609375,0.3402996063232422,-2.222801446914673,0.6468269228935242
1683139525896678700,9.2556787109375,0.33075714111328125,-2.251133680343628,0.6352261304855347
1683139525914527200,9.27352734375,0.3494853973388672,-2.2340145111083984,0.637822151184082
1683139525932372000,9.2913720703125,0.3474454879760742,-2.244734287261963,0.6081029772758484
1683139525950219800,9.3092197265625,0.3308744430541992,-2.2270138263702393,0.6177738308906555
1683139525968065300,9.327065185546875,0.33141517639160156,-2.1991753578186035,0.6219743490219116
1683139525985897700,9.344897705078125,0.32836151123046875,-2.2479019165039062,0.6521275043487549
1683139526003758600,9.362758544921874,0.31597137451171875,-2.175002098083496,0.616864800453186
1683139526021606000,9.38060595703125,0.31726837158203125,-2.234206199645996,0.6456935405731201
1683139526039452000,9.398451904296875,0.3200235366821289,-2.208645820617676,0.6503118276596069
1683139526057299500,9.416299560546875,0.3224325180053711,-2.2262425422668457,0.5754194855690002
1683139526075142100,9.43414208984375,0.3198127746582031,-2.2106025218963623,0.6210671663284302
1683139526092991000,9.451990966796876,0.3457813262939453,-2.1637678146362305,0.6171063184738159
1683139526110838300,9.46983837890625,0.3129911422729492,-2.204059362411499,0.6305422186851501
1683139526128686600,9.4876865234375,0.3105659484863281,-2.1483497619628906,0.617534875869751
1683139526146531300,9.50553125,0.2983989715576172,-2.1835856437683105,0.6481571793556213
1683139526164379600,9.523379638671875,0.3077564239501953,-2.1738803386688232,0.648880124092102
1683139526182221800,9.541221923828125,0.32761383056640625,-2.190931558609009,0.5602267384529114
1683139526200075500,9.559075439453125,0.2949409484863281,-2.176079034805298,0.6032395958900452
1683139526217917700,9.576917724609375,0.3219585418701172,-2.1428191661834717,0.605974018573761
1683139526235762700,9.5947626953125,0.27763843536376953,-2.172822952270508,0.6118362545967102
1683139526253611300,9.612611328125,0.3096199035644531,-2.1209237575531006,0.5996217727661133
1683139526271462000,9.6304619140625,0.28382015228271484,-2.1555957794189453,0.6624623537063599
1683139526289303800,9.6483037109375,0.29503345489501953,-2.138690948486328,0.6011452078819275
1683139526307152000,9.66615185546875,0.3235740661621094,-2.1736209392547607,0.539788007736206
1683139526324988000,9.68398779296875,0.3089637756347656,-2.1464366912841797,0.618137538433075
1683139526342844400,9.701844482421874,0.32625293731689453,-2.1113884449005127,0.5731182098388672
1683139526360690700,9.719690673828126,0.2857942581176758,-2.134183645248413,0.5928999781608582
1683139526378538500,9.73753857421875,0.3216838836669922,-2.0873610973358154,0.5934914350509644
1683139526396384300,9.75538427734375,0.27956295013427734,-2.1165246963500977,0.6311858296394348
1683139526414232000,9.773232177734375,0.29555320739746094,-2.1182525157928467,0.5832974910736084
1683139526432077000,9.7910771484375,0.2931556701660156,-2.129652261734009,0.5644619464874268
1683139526449925000,9.808925048828126,0.2968740463256836,-2.1080291271209717,0.6055890321731567
1683139526467770000,9.82677001953125,0.3145303726196289,-2.088432550430298,0.5323646068572998
1683139526485613000,9.844613037109376,0.2923393249511719,-2.103503465652466,0.5740338563919067
1683139526503463400,9.86246337890625,0.3225841522216797,-2.0605263710021973,0.5894318222999573
1683139526521293000,9.88029296875,0.2647666931152344,-2.0615234375,0.6337290406227112
1683139526539156700,9.89815673828125,0.30605030059814453,-2.085275650024414,0.5590323805809021
1683139526556998700,9.91599853515625,0.29178619384765625,-2.1040189266204834,0.5521886944770813
1683139526574849800,9.933849853515625,0.2956991195678711,-2.0634334087371826,0.5958694219589233
1683139526592697900,9.95169775390625,0.3111610412597656,-2.0809249877929688,0.5040619373321533
1683139526610543600,9.969543701171874,0.28957653045654297,-2.066555976867676,0.5844330787658691
1683139526628390400,9.987390380859376,0.3061065673828125,-2.027883529663086,0.5874704122543335
1683139526646237400,10.005237548828125,0.27613258361816406,-2.0349998474121094,0.5771719217300415
1683139526664084200,10.023084228515625,0.3119049072265625,-2.0583760738372803,0.5447190999984741
1683139526681929700,10.0409296875,0.2863349914550781,-2.0483767986297607,0.5662795901298523
1683139526699777500,10.058777587890624,0.26222801208496094,-2.0238358974456787,0.5659212470054626
1683139526717622800,10.076622802734375,0.3003835678100586,-2.0568838119506836,0.5071882605552673
1683139526735468800,10.09446875,0.2887744903564453,-2.0174195766448975,0.5697387456893921
1683139526753314800,10.112314697265624,0.2913169860839844,-2.00209903717041,0.552933931350708
1683139526771166200,10.130166259765625,0.2802000045776367,-1.9976946115493774,0.5692332983016968
1683139526789009200,10.148009033203126,0.28965091705322266,-2.0340354442596436,0.5532125234603882
1683139526806856700,10.165856689453125,0.29227161407470703,-1.9885258674621582,0.5528616905212402
1683139526824702200,10.1837021484375,0.27984142303466797,-1.998894453048706,0.5449638962745667
1683139526842550300,10.20155029296875,0.2948598861694336,-2.027362823486328,0.5067634582519531
1683139526860395000,10.21939501953125,0.28249263763427734,-1.9553799629211426,0.5638893842697144
1683139526878243300,10.237243408203126,0.2728900909423828,-1.9879207611083984,0.5509353876113892
1683139526896088600,10.255088623046875,0.29257774353027344,-1.97074556350708,0.5582717061042786
1683139526913936600,10.2729365234375,0.26935768127441406,-1.9895257949829102,0.5516534447669983
1683139526931781600,10.29078173828125,0.27620697021484375,-1.9438903331756592,0.5493979454040527
1683139526949629700,10.308629638671874,0.26655006408691406,-1.9709304571151733,0.5317690372467041
1683139526967474700,10.326474609375,0.2799797058105469,-1.9861056804656982,0.5176022052764893
1683139526985323500,10.344323486328125,0.2650880813598633,-1.9113270044326782,0.5583834648132324
1683139527003167700,10.362167724609375,0.2527170181274414,-1.9653515815734863,0.5443817973136902
1683139527021004000,10.380004150390626,0.2798299789428711,-1.9222182035446167,0.555277407169342
1683139527038861600,10.397861572265626,0.25998401641845703,-1.9528034925460815,0.5407528877258301
1683139527056709000,10.415709228515626,0.2574939727783203,-1.905943512916565,0.5525810122489929
1683139527074554000,10.43355419921875,0.2651538848876953,-1.9489237070083618,0.5122964978218079
1683139527092402200,10.451402099609375,0.27422046661376953,-1.9502944946289062,0.5232007503509521
1683139527110247400,10.469247314453124,0.2627677917480469,-1.886055827140808,0.5203937888145447
1683139527128095700,10.487095703125,0.25199127197265625,-1.9332716464996338,0.5529820322990417
1683139527145940500,10.5049404296875,0.25906944274902344,-1.886218547821045,0.5424327850341797
1683139527163788500,10.52278857421875,0.2464914321899414,-1.9242005348205566,0.5337839722633362
1683139527181634000,10.540634033203125,0.2570838928222656,-1.8916988372802734,0.5451416373252869
1683139527199482000,10.558482177734374,0.25394630432128906,-1.9155511856079102,0.5169174075126648
1683139527217323800,10.57632373046875,0.2437725067138672,-1.899004578590393,0.5168195366859436
1683139527235178000,10.594177978515624,0.2349405288696289,-1.8463735580444336,0.5159246325492859
1683139527253017600,10.612017578125,0.23643875122070312,-1.9183907508850098,0.5606169104576111
1683139527270870800,10.629870849609375,0.2386608123779297,-1.8504176139831543,0.5370279550552368
1683139527288713000,10.647712890625,0.2386341094970703,-1.9019807577133179,0.524662435054779
1683139527306560800,10.665560791015626,0.2345571517944336,-1.8701508045196533,0.53562331199646
1683139527324406300,10.68340625,0.2563495635986328,-1.8866761922836304,0.4846118688583374
1683139527342254000,10.701254150390625,0.24384593963623047,-1.8707733154296875,0.5150941610336304
1683139527360099300,10.719099365234374,0.2449016571044922,-1.8275604248046875,0.5163620710372925
1683139527377947000,10.73694677734375,0.21760082244873047,-1.877007246017456,0.5443592071533203
1683139527395792600,10.754792724609375,0.21109580993652344,-1.820298433303833,0.5169125199317932
1683139527413640400,10.772640380859375,0.21631813049316406,-1.8576974868774414,0.5385687351226807
1683139527431485400,10.7904853515625,0.22197437286376953,-1.8453688621520996,0.5567728877067566
1683139527449333500,10.80833349609375,0.2404041290283203,-1.853163242340088,0.4672516882419586
1683139527467178500,10.826178466796875,0.22464942932128906,-1.8390032052993774,0.5149821043014526
1683139527485019600,10.84401953125,0.2466564178466797,-1.7925304174423218,0.4995867908000946
1683139527502868200,10.8618681640625,0.19736576080322266,-1.8259401321411133,0.5392835140228271
1683139527520708000,10.8797080078125,0.22975635528564453,-1.7951669692993164,0.5026735067367554
1683139527538553300,10.89755322265625,0.20603179931640625,-1.8297460079193115,0.5439239740371704
1683139527556405000,10.915405029296876,0.2274036407470703,-1.8143446445465088,0.5281186103820801
1683139527574258000,10.9332578125,0.23403549194335938,-1.8339064121246338,0.43773964047431946
1683139527592106000,10.95110595703125,0.22184371948242188,-1.8167738914489746,0.5008371472358704
1683139527609951500,10.968951416015624,0.22863197326660156,-1.787765622138977,0.5033611059188843
1683139527627799300,10.98679931640625,0.20160961151123047,-1.8071563243865967,0.5015785694122314
1683139527645644300,11.004644287109375,0.22929096221923828,-1.757016897201538,0.49747785925865173
1683139527663491800,11.022491943359375,0.19148635864257812,-1.775255560874939,0.5473579168319702
1683139527681337600,11.040337646484375,0.2057962417602539,-1.790348768234253,0.5090951919555664
1683139527699185400,11.058185302734374,0.2362041473388672,-1.8064384460449219,0.43986907601356506
1683139527717029400,11.076029296875,0.21698856353759766,-1.7841434478759766,0.5120311379432678
1683139527734879200,11.093879150390626,0.2327432632446289,-1.7583370208740234,0.46787992119789124
1683139527752723700,11.1117236328125,0.1853771209716797,-1.767229437828064,0.49334511160850525
1683139527770571500,11.129571533203125,0.223236083984375,-1.7456586360931396,0.49207183718681335
1683139527788415500,11.14741552734375,0.1823740005493164,-1.7606010437011719,0.5273280739784241
1683139527806265000,11.16526513671875,0.2105875015258789,-1.764740228652954,0.47436612844467163
1683139527824109600,11.183109619140625,0.2226724624633789,-1.775134801864624,0.44247865676879883
1683139527841957600,11.20095751953125,0.21204662322998047,-1.733809232711792,0.5135127902030945
1683139527859802400,11.21880224609375,0.233489990234375,-1.7368674278259277,0.4351240396499634
1683139527877650400,11.236650390625,0.20814800262451172,-1.746335506439209,0.4776289761066437
1683139527895484200,11.254484130859375,0.21564006805419922,-1.7100610733032227,0.49785277247428894
1683139527913344000,11.272343994140625,0.188323974609375,-1.7085847854614258,0.5192794799804688
1683139527931188700,11.290188720703124,0.1984424591064453,-1.735787034034729,0.4477713704109192
1683139527949036800,11.308036865234374,0.20136260986328125,-1.7366689443588257,0.46561187505722046
1683139527966881500,11.325881591796875,0.18731403350830078,-1.7086411714553833,0.4919813871383667
1683139527984729600,11.3437294921875,0.20501136779785156,-1.7439723014831543,0.4126707911491394
1683139528002574800,11.361574951171875,0.2325887680053711,-1.7037121057510376,0.4780071973800659
1683139528020410600,11.37941064453125,0.210540771484375,-1.680223822593689,0.48139455914497375
1683139528038256000,11.397256103515625,0.1941518783569336,-1.681807041168213,0.47748854756355286
1683139528056112000,11.415112060546875,0.20624542236328125,-1.7197628021240234,0.4539843797683716
1683139528073961200,11.432961181640625,0.2177753448486328,-1.6949387788772583,0.45397019386291504
1683139528091809000,11.45080908203125,0.20242691040039062,-1.6747570037841797,0.46024438738822937
1683139528109654500,11.468654541015624,0.22312545776367188,-1.723917841911316,0.4110163450241089
1683139528127502000,11.486502197265626,0.20880508422851562,-1.6576743125915527,0.47082874178886414
1683139528145347000,11.50434716796875,0.18926429748535156,-1.6603089570999146,0.4632248878479004
1683139528163195000,11.52219482421875,0.21245288848876953,-1.6438603401184082,0.47110462188720703
1683139528181040000,11.5400400390625,0.1923379898071289,-1.683483362197876,0.45386767387390137
1683139528198888700,11.557888671875,0.19354915618896484,-1.636451005935669,0.4654602110385895
1683139528216732400,11.575732421875,0.1914844512939453,-1.6525371074676514,0.4435146450996399
1683139528234581000,11.5935810546875,0.2040233612060547,-1.6685535907745361,0.4245589077472687
1683139528252423700,11.611423583984376,0.20109272003173828,-1.6143803596496582,0.46516430377960205
1683139528270277600,11.629277587890625,0.17603111267089844,-1.6550434827804565,0.4577678442001343
1683139528288119000,11.647119140625,0.19400405883789062,-1.6285029649734497,0.4592877924442291
1683139528305966800,11.664966796875,0.20246601104736328,-1.653531551361084,0.4449913203716278
1683139528323812400,11.682812255859375,0.2025613784790039,-1.6138135194778442,0.44680383801460266
1683139528341660200,11.70066015625,0.1952228546142578,-1.635496973991394,0.4185420870780945
1683139528359502800,11.7185029296875,0.19498825073242188,-1.6495211124420166,0.42974480986595154
1683139528377355000,11.73635498046875,0.18821048736572266,-1.5758429765701294,0.43863043189048767
1683139528395198500,11.754198486328125,0.1733074188232422,-1.6219797134399414,0.4570979177951813
1683139528413046500,11.772046630859375,0.19459819793701172,-1.5823700428009033,0.4529002010822296
1683139528430891500,11.7898916015625,0.17203712463378906,-1.6205723285675049,0.4486358165740967
1683139528448738000,11.807738037109376,0.17935752868652344,-1.5802724361419678,0.4469062387943268
1683139528466585600,11.825585693359375,0.1918478012084961,-1.6136976480484009,0.4256151616573334
1683139528484432100,11.84343212890625,0.178070068359375,-1.616913080215454,0.4350806772708893
1683139528502276900,11.86127685546875,0.1653594970703125,-1.537560224533081,0.42452749609947205
1683139528520125200,11.879125244140624,0.1629199981689453,-1.6083080768585205,0.4679279625415802
1683139528537970400,11.896970458984375,0.1617565155029297,-1.5552330017089844,0.46889951825141907
1683139528555806500,11.914806396484375,0.16568660736083984,-1.5912683010101318,0.4232128858566284
1683139528573663500,11.93266357421875,0.17720890045166016,-1.5664860010147095,0.4557719826698303
1683139528591508500,11.950508544921876,0.19159507751464844,-1.5776335000991821,0.40638914704322815
1683139528609359600,11.968359619140625,0.15831470489501953,-1.5726690292358398,0.42567169666290283
1683139528627204600,11.98620458984375,0.17209339141845703,-1.524510145187378,0.43738046288490295
1683139528645049300,12.00404931640625,0.14579200744628906,-1.574562668800354,0.4748620092868805
1683139528662892800,12.021892822265626,0.14849376678466797,-1.5222384929656982,0.4382733106613159
1683139528680742700,12.03974267578125,0.15014362335205078,-1.568137764930725,0.44003161787986755
1683139528698590500,12.057590576171876,0.1549825668334961,-1.5588793754577637,0.4498309791088104
1683139528716435500,12.075435546875,0.1688375473022461,-1.5575354099273682,0.3969354033470154
1683139528734283300,12.093283203125,0.15551471710205078,-1.5452501773834229,0.4305095076560974
1683139528752128500,12.11112841796875,0.18399333953857422,-1.4921272993087769,0.4352547824382782
1683139528769976300,12.128976318359374,0.12925243377685547,-1.5389659404754639,0.47757700085639954
1683139528787821000,12.146821044921875,0.1467599868774414,-1.5053062438964844,0.4230886399745941
1683139528805668900,12.1646689453125,0.14012718200683594,-1.54194974899292,0.44866883754730225
1683139528823514400,12.182514404296874,0.15088462829589844,-1.5215721130371094,0.4464561939239502
1683139528841362200,12.200362060546874,0.16808509826660156,-1.5421067476272583,0.35886669158935547
1683139528859207000,12.21820703125,0.14976119995117188,-1.5269877910614014,0.40846818685531616
1683139528877055000,12.236054931640625,0.1704874038696289,-1.4875731468200684,0.41611671447753906
1683139528894900500,12.253900390625,0.13526153564453125,-1.5189814567565918,0.428727924823761
1683139528912748000,12.271748046875,0.16324996948242188,-1.4796243906021118,0.41594693064689636
1683139528930593300,12.28959326171875,0.1285848617553711,-1.4955241680145264,0.46392327547073364
1683139528948440000,12.307440185546875,0.13127613067626953,-1.5102496147155762,0.4321702718734741
1683139528966287000,12.325287109375,0.15647602081298828,-1.5146210193634033,0.34964659810066223
1683139528984134000,12.3431337890625,0.14555740356445312,-1.4986553192138672,0.42968475818634033
1683139529001979000,12.360978759765626,0.1652841567993164,-1.4675401449203491,0.4030340313911438
1683139529019826700,12.37882666015625,0.12654590606689453,-1.4802114963531494,0.41883692145347595
1683139529037672000,12.396671875,0.16182708740234375,-1.4665718078613281,0.40351182222366333
1683139529055520000,12.41452001953125,0.13366031646728516,-1.4750701189041138,0.441885381937027
1683139529073365200,12.432365234375,0.1451864242553711,-1.4891817569732666,0.3906446099281311
1683139529091212800,12.450212890625,0.15742206573486328,-1.5075533390045166,0.34690675139427185
1683139529109058000,12.46805810546875,0.14275646209716797,-1.4617371559143066,0.4349345564842224
1683139529126905900,12.48590576171875,0.15753555297851562,-1.4499762058258057,0.36706089973449707
1683139529144750800,12.503750732421874,0.1518411636352539,-1.4647603034973145,0.3966510593891144
1683139529162598700,12.5215986328125,0.15603065490722656,-1.4334248304367065,0.4220368266105652
1683139529180444000,12.53944384765625,0.12383651733398438,-1.4201836585998535,0.43444105982780457
1683139529198291000,12.557291015625,0.14496421813964844,-1.4530651569366455,0.3767601549625397
1683139529216124000,12.5751240234375,0.15631484985351562,-1.4664337635040283,0.3751254081726074
1683139529233984500,12.592984619140625,0.13225746154785156,-1.4307334423065186,0.4150596261024475
1683139529251830000,12.610830078125,0.15028858184814453,-1.4622381925582886,0.3456711173057556
1683139529269677800,12.628677734375,0.1622638702392578,-1.4302444458007812,0.39698198437690735
1683139529287522300,12.646522216796875,0.15218257904052734,-1.4091078042984009,0.40404027700424194
1683139529305370400,12.664370361328125,0.1518392562866211,-1.4000325202941895,0.402832955121994
1683139529323215400,12.68221533203125,0.15505409240722656,-1.444512128829956,0.38012224435806274
1683139529341063400,12.7000634765625,0.14614009857177734,-1.4360791444778442,0.3779106140136719
1683139529358908200,12.717908203125,0.12990093231201172,-1.4034934043884277,0.3932850956916809
1683139529376753000,12.7357529296875,0.15214061737060547,-1.4389897584915161,0.3386778235435486
1683139529394605000,12.75360498046875,0.15186119079589844,-1.396265983581543,0.3892136216163635
1683139529412449500,12.771449462890626,0.14622974395751953,-1.394934892654419,0.3863959014415741
1683139529430294300,12.789294189453125,0.14779281616210938,-1.3763527870178223,0.3903542459011078
1683139529448142300,12.807142333984375,0.14203357696533203,-1.4216816425323486,0.38002902269363403
1683139529465987000,12.824987060546874,0.14446067810058594,-1.3686554431915283,0.3833827078342438
1683139529483835100,12.842835205078124,0.1235666275024414,-1.3808454275131226,0.35994067788124084
1683139529501679900,12.860679931640625,0.14921855926513672,-1.4040299654006958,0.3600503206253052
1683139529519513000,12.87851318359375,0.1449728012084961,-1.3465218544006348,0.38837292790412903
1683139529537375700,12.896375732421875,0.13047504425048828,-1.385361909866333,0.38868027925491333
1683139529555220200,12.91422021484375,0.1508626937866211,-1.3558197021484375,0.38305187225341797
1683139529573066500,12.93206640625,0.1513214111328125,-1.3866842985153198,0.36571604013442993
1683139529590916000,12.949916015625,0.13671588897705078,-1.3410887718200684,0.3741607964038849
1683139529608755500,12.96775537109375,0.13244152069091797,-1.362187147140503,0.3540271520614624
1683139529626608000,12.985608154296875,0.14117431640625,-1.3866175413131714,0.3732919692993164
1683139529644451600,13.00345166015625,0.12198162078857422,-1.315738558769226,0.37999773025512695
1683139529662299600,13.021299560546876,0.1250629425048828,-1.3561079502105713,0.38545289635658264
1683139529680144600,13.03914453125,0.1406726837158203,-1.3189083337783813,0.3854316473007202
1683139529697992400,13.056992431640625,0.12819480895996094,-1.3635550737380981,0.35996338725090027
1683139529715837400,13.07483740234375,0.12793445587158203,-1.3172147274017334,0.36880606412887573
1683139529733685200,13.092685302734376,0.1370525360107422,-1.3442723751068115,0.3545788824558258
1683139529751530200,13.1105302734375,0.11987495422363281,-1.352829098701477,0.3654731810092926
1683139529769378800,13.12837890625,0.11092185974121094,-1.2737855911254883,0.353255957365036
1683139529787223300,13.146223388671874,0.1127777099609375,-1.3528178930282593,0.40815138816833496
1683139529805070800,13.16407080078125,0.11419105529785156,-1.310655951499939,0.39689332246780396
1683139529822911700,13.181911865234374,0.12524986267089844,-1.335726261138916,0.34472671151161194
1683139529840764200,13.19976416015625,0.12459468841552734,-1.3088961839675903,0.38377299904823303
1683139529858607400,13.217607421875,0.14075660705566406,-1.3117787837982178,0.33573099970817566
1683139529876458000,13.2354580078125,0.11026477813720703,-1.3269321918487549,0.3514828681945801
1683139529894288100,13.2532880859375,0.11197757720947266,-1.2676467895507812,0.36718541383743286
1683139529912147000,13.27114697265625,0.09331226348876953,-1.3187886476516724,0.41588646173477173
1683139529929997600,13.28899755859375,0.09734630584716797,-1.2785022258758545,0.3764128088951111
1683139529947842300,13.30684228515625,0.11107254028320312,-1.3180620670318604,0.35165074467658997
1683139529965687600,13.3246875,0.10868644714355469,-1.3009026050567627,0.3837871551513672
1683139529983535400,13.342535400390625,0.11991310119628906,-1.2991522550582886,0.33595457673072815
1683139530001380400,13.36038037109375,0.09222030639648438,-1.301255226135254,0.35504695773124695
1683139530019228000,13.378227783203124,0.12925052642822266,-1.2430682182312012,0.3634040951728821
1683139530037073200,13.3960732421875,0.08302021026611328,-1.286810040473938,0.4100145697593689
1683139530054920700,13.413920654296875,0.0939178466796875,-1.2620495557785034,0.34739950299263
1683139530072762400,13.431762451171876,0.10270500183105469,-1.2953591346740723,0.37081533670425415
1683139530090614000,13.449614013671875,0.10327625274658203,-1.2758289575576782,0.39102238416671753
1683139530108458000,13.4674580078125,0.12662887573242188,-1.2796798944473267,0.29498475790023804
1683139530126307800,13.485307861328126,0.09435653686523438,-1.2724833488464355,0.34750255942344666
1683139530144151800,13.50315185546875,0.10893726348876953,-1.2333176136016846,0.3635389804840088
1683139530161999400,13.520999267578125,0.07763004302978516,-1.2743327617645264,0.3675099015235901
1683139530179844900,13.538844970703124,0.11695289611816406,-1.2469278573989868,0.3418714702129364
1683139530197693000,13.55669287109375,0.08777332305908203,-1.248544454574585,0.3887838125228882
1683139530215535400,13.574535400390625,0.08793449401855469,-1.2573847770690918,0.3734765648841858
1683139530233385200,13.59238525390625,0.10461235046386719,-1.2791192531585693,0.2782018184661865
1683139530251228700,13.610228759765626,0.09383583068847656,-1.2627853155136108,0.3574818968772888
1683139530269080300,13.628080322265625,0.11197376251220703,-1.2206573486328125,0.34019938111305237
1683139530286923000,13.645923095703125,0.07314109802246094,-1.2376247644424438,0.36048293113708496
1683139530304770800,13.663770751953125,0.1109781265258789,-1.2300406694412231,0.33325618505477905
1683139530322616000,13.681615966796874,0.07734298706054688,-1.2359833717346191,0.3715786635875702
1683139530340464000,13.699464111328124,0.09871482849121094,-1.2479207515716553,0.33530765771865845
1683139530358307600,13.7173076171875,0.10927009582519531,-1.264469861984253,0.2713814079761505
1683139530376152600,13.735152587890624,0.10461902618408203,-1.224892497062683,0.35735270380973816
1683139530394006300,13.75300634765625,0.12025928497314453,-1.2055693864822388,0.3180600702762604
1683139530411849500,13.770849365234374,0.09617424011230469,-1.2208945751190186,0.33466970920562744
1683139530429694500,13.788694580078126,0.11985397338867188,-1.2045185565948486,0.3423987925052643
1683139530447539200,13.806539306640625,0.09566688537597656,-1.1985695362091064,0.3622952401638031
1683139530465390000,13.82439013671875,0.10080432891845703,-1.2210497856140137,0.3180610239505768
1683139530483234800,13.84223486328125,0.1132650375366211,-1.2332432270050049,0.2986569106578827
1683139530501079600,13.86007958984375,0.08646106719970703,-1.1930397748947144,0.3562440276145935
1683139530518927000,13.877927001953125,0.10312843322753906,-1.2150583267211914,0.2876030504703522
1683139530536772600,13.895772705078125,0.1169424057006836,-1.201511025428772,0.3327361047267914
1683139530554620200,13.9136201171875,0.11480140686035156,-1.1794325113296509,0.3516694903373718
1683139530572465400,13.93146533203125,0.10296440124511719,-1.1696057319641113,0.336574524641037
1683139530590313200,13.949313232421876,0.11034584045410156,-1.2083561420440674,0.3025490343570709
1683139530608158500,13.967158447265625,0.11683082580566406,-1.2096139192581177,0.3027750253677368
1683139530626006300,13.98500634765625,0.07935333251953125,-1.168569803237915,0.33600714802742004
1683139530643851000,14.00285107421875,0.11543560028076172,-1.2080812454223633,0.2824036777019501
1683139530661698800,14.02069873046875,0.10688114166259766,-1.1651487350463867,0.3264596164226532
1683139530679537400,14.038537353515625,0.10304832458496094,-1.1600697040557861,0.32909929752349854
1683139530697391600,14.0563916015625,0.10293960571289062,-1.141217589378357,0.33256101608276367
1683139530715233800,14.07423388671875,0.09494781494140625,-1.191746711730957,0.3139113485813141
1683139530733087200,14.092087158203125,0.11181831359863281,-1.1549572944641113,0.316183865070343
1683139530750929400,14.109929443359375,0.08113956451416016,-1.1399240493774414,0.3119153380393982
1683139530768777500,14.127777587890625,0.10899066925048828,-1.1798427104949951,0.2909752130508423
1683139530786622000,14.1456220703125,0.09920215606689453,-1.1187639236450195,0.32503262162208557
1683139530804469800,14.1634697265625,0.0758981704711914,-1.1586004495620728,0.33777281641960144
1683139530822314800,14.181314697265625,0.10325241088867188,-1.1344895362854004,0.31839773058891296
1683139530840163000,14.1991630859375,0.11142921447753906,-1.1721482276916504,0.3036428987979889
1683139530858007300,14.21700732421875,0.11262035369873047,-1.1238722801208496,0.3057368993759155
1683139530875852500,14.2348525390625,0.08083152770996094,-1.1235010623931885,0.29139867424964905
1683139530893703700,14.25270361328125,0.1029043197631836,-1.1580393314361572,0.31230849027633667
1683139530911548000,14.2705478515625,0.0722951889038086,-1.0845470428466797,0.3225744068622589
1683139530929393700,14.2883935546875,0.08464336395263672,-1.1353123188018799,0.33005669713020325
1683139530947240700,14.30624072265625,0.1039285659790039,-1.1041393280029297,0.32178306579589844
1683139530965086000,14.3240859375,0.0834207534790039,-1.1458271741867065,0.3001946210861206
1683139530982933500,14.34193359375,0.0803070068359375,-1.0940909385681152,0.31728655099868774
1683139531000778800,14.35977880859375,0.08149528503417969,-1.1251754760742188,0.2886221706867218
1683139531018626000,14.3776259765625,0.09070014953613281,-1.134498119354248,0.3054087162017822
1683139531036471300,14.39547119140625,0.07860660552978516,-1.0580129623413086,0.2974312901496887
1683139531054318800,14.41331884765625,0.07901382446289062,-1.1255449056625366,0.34505707025527954
1683139531072164000,14.4311640625,0.08426856994628906,-1.0856711864471436,0.3194237947463989
1683139531090011400,14.449011474609375,0.07967758178710938,-1.122185468673706,0.28701984882354736
1683139531107858000,14.46685791015625,0.07740497589111328,-1.092018961906433,0.31505143642425537
1683139531125704700,14.48470458984375,0.09641170501708984,-1.0966217517852783,0.29179278016090393
1683139531143550000,14.502550048828125,0.07909297943115234,-1.1096227169036865,0.29574844241142273
1683139531161397200,14.520397216796875,0.06929969787597656,-1.0454139709472656,0.30389276146888733
1683139531179242200,14.5382421875,0.058218955993652344,-1.108688473701477,0.35841524600982666
1683139531197090600,14.556090576171876,0.057875633239746094,-1.0596190690994263,0.3361245393753052
1683139531214935000,14.57393505859375,0.07274532318115234,-1.110643982887268,0.2858946919441223
1683139531232779000,14.591779052734376,0.0698556900024414,-1.0830738544464111,0.3156245946884155
1683139531250628000,14.609628173828124,0.09476089477539062,-1.0887277126312256,0.27730217576026917
1683139531268474600,14.627474609375,0.05462646484375,-1.0943090915679932,0.2995310127735138
1683139531286321700,14.64532177734375,0.07057857513427734,-1.0333359241485596,0.29919594526290894
1683139531304168400,14.66316845703125,0.0443115234375,-1.0870217084884644,0.3419884145259857
1683139531322013400,14.681013427734374,0.06273078918457031,-1.0400505065917969,0.30269956588745117
1683139531339861000,14.698861083984376,0.08227825164794922,-1.0882134437561035,0.29369157552719116
1683139531357703000,14.716702880859375,0.06352996826171875,-1.0684244632720947,0.3262014389038086
1683139531375538000,14.734537841796875,0.08084297180175781,-1.0729957818984985,0.25461775064468384
1683139531393399000,14.75239892578125,0.048895835876464844,-1.0755048990249634,0.28788813948631287
1683139531411246000,14.77024609375,0.10210132598876953,-1.0123810768127441,0.306456983089447
1683139531429091600,14.788091552734375,0.03864860534667969,-1.0481088161468506,0.35140833258628845
1683139531446939100,14.805939208984375,0.056975364685058594,-1.0325636863708496,0.287009060382843
1683139531464784000,14.823783935546874,0.056870460510253906,-1.0564634799957275,0.3118273913860321
1683139531482631700,14.841631591796874,0.05508136749267578,-1.051886796951294,0.3209712505340576
1683139531500476400,14.859476318359375,0.08699417114257812,-1.058652400970459,0.230001762509346
1683139531518323200,14.8773232421875,0.053841590881347656,-1.047430157661438,0.2760910093784332
1683139531536170200,14.895170166015625,0.07915687561035156,-1.0114604234695435,0.30291178822517395
1683139531554017000,14.91301708984375,0.03778648376464844,-1.0415632724761963,0.3104029893875122
1683139531571861800,14.93086181640625,0.06870651245117188,-1.0115337371826172,0.27545952796936035
1683139531589709800,14.948709716796875,0.05173301696777344,-1.03228759765625,0.3163283169269562
1683139531607555000,14.96655517578125,0.05581092834472656,-1.0312196016311646,0.3035845160484314
1683139531625402600,14.984402587890624,0.08769035339355469,-1.054091453552246,0.20727528631687164
1683139531643247400,15.002247314453125,0.07547283172607422,-1.0363564491271973,0.29315048456192017
1683139531661095000,15.020094970703125,0.0789346694946289,-0.9857689738273621,0.27195191383361816
1683139531678928400,15.037928466796876,0.04725360870361328,-1.0046751499176025,0.295769065618515
1683139531696788000,15.0557880859375,0.06990242004394531,-1.0041358470916748,0.2752251625061035
1683139531714632700,15.0736328125,0.04533195495605469,-1.0055721998214722,0.31989121437072754
1683139531732480500,15.09148046875,0.055245399475097656,-1.0188488960266113,0.2783232629299164
1683139531750325500,15.109325439453125,0.07342720031738281,-1.0430195331573486,0.22077831625938416
1683139531768173600,15.127173583984375,0.05949115753173828,-1.0026829242706299,0.30187782645225525
1683139531786018300,15.145018310546876,0.08416366577148438,-0.9904372096061707,0.2509734630584717
1683139531803865900,15.162865966796875,0.073944091796875,-1.0022683143615723,0.27786386013031006
1683139531821711000,15.180711181640625,0.08634471893310547,-0.9909330010414124,0.2839633524417877
1683139531839558700,15.19855859375,0.04935741424560547,-0.9861429929733276,0.3073701560497284
1683139531857403100,15.216403076171876,0.06355762481689453,-1.01140296459198,0.2575743496417999
1683139531875250000,15.23425,0.0682830810546875,-1.0244985818862915,0.22896164655685425
1683139531893097500,15.252097412109375,0.05699634552001953,-0.9696202874183655,0.28896838426589966
1683139531910939600,15.269939697265626,0.07439517974853516,-0.9951555728912354,0.2253854125738144
1683139531928792800,15.287792724609375,0.06994438171386719,-0.9760524034500122,0.27225810289382935
1683139531946633500,15.305633544921875,0.06893539428710938,-0.9648838639259338,0.2927051782608032
1683139531964484400,15.323484375,0.05011558532714844,-0.9421192407608032,0.2816368043422699
1683139531982329000,15.3413291015625,0.0666961669921875,-0.9934924244880676,0.2466384768486023
1683139532000173800,15.359173828125,0.08059120178222656,-0.9873700737953186,0.24415411055088043
1683139532018021400,15.377021484375,0.046112060546875,-0.9467285871505737,0.28043580055236816
1683139532035866600,15.39486669921875,0.07514190673828125,-0.9946667551994324,0.23318731784820557
1683139532053714200,15.412714111328125,0.06448078155517578,-0.9570541977882385,0.26460522413253784
1683139532071559200,15.43055908203125,0.06990337371826172,-0.9543569087982178,0.27148550748825073
1683139532089406700,15.44840673828125,0.07974910736083984,-0.9386979341506958,0.27555352449417114
1683139532107252000,15.466251953125,0.07618427276611328,-0.9838164448738098,0.24595804512500763
1683139532125099800,15.484099853515625,0.06590080261230469,-0.9508203268051147,0.2511112689971924
1683139532142944500,15.501944580078124,0.05265998840332031,-0.9312297701835632,0.2554725706577301
1683139532160792000,15.5197919921875,0.07501411437988281,-0.9605191946029663,0.24280224740505219
1683139532178625300,15.537625244140624,0.06693840026855469,-0.911766529083252,0.2721411883831024
1683139532196485000,15.555485107421875,0.05280017852783203,-0.9449794292449951,0.2822537124156952
1683139532214317600,15.573317626953125,0.06813335418701172,-0.9196082949638367,0.2719029188156128
1683139532232177400,15.591177490234376,0.0668191909790039,-0.9626314640045166,0.2417871206998825
1683139532250022700,15.609022705078125,0.06524467468261719,-0.9186403155326843,0.2573583126068115
1683139532267870500,15.626870361328125,0.04973888397216797,-0.9121979475021362,0.23559510707855225
1683139532285715000,15.64471484375,0.06299781799316406,-0.9572980403900146,0.2518250048160553
1683139532303562800,15.662562744140626,0.05175495147705078,-0.8835484981536865,0.2711237668991089
1683139532321407700,15.68040771484375,0.02598857879638672,-0.9215497374534607,0.2704763412475586
1683139532339255800,15.698255859375,0.0660715103149414,-0.8979966640472412,0.26192671060562134
1683139532357097200,15.71609716796875,0.07191085815429688,-0.9378005266189575,0.22582964599132538
1683139532374950700,15.73395068359375,0.047545433044433594,-0.8960915803909302,0.256804496049881
1683139532392789500,15.75178955078125,0.0726022720336914,-0.9081876873970032,0.2462177872657776
1683139532410637800,15.769637939453125,0.04800128936767578,-0.9365917444229126,0.24680596590042114
1683139532428488400,15.787488525390625,0.043723106384277344,-0.8510302305221558,0.24298298358917236
1683139532446330600,15.80533056640625,0.04645347595214844,-0.9236242771148682,0.29627978801727295
1683139532464180500,15.823180419921876,0.04132080078125,-0.8892751932144165,0.27347540855407715
1683139532482025700,15.841025634765625,0.047484397888183594,-0.9120016098022461,0.24023650586605072
1683139532499870200,15.8588701171875,0.040439605712890625,-0.8941537141799927,0.2589520812034607
1683139532517718000,15.876718017578124,0.06177234649658203,-0.8882104158401489,0.22714592516422272
1683139532535564300,15.894564208984375,0.043766021728515625,-0.9086918830871582,0.2424495667219162
1683139532553410600,15.91241064453125,0.04049205780029297,-0.8495584726333618,0.24348264932632446
1683139532571252700,15.930252685546876,0.021120071411132812,-0.9066836833953857,0.30347704887390137
1683139532589106400,15.9481064453125,0.032563209533691406,-0.8677800297737122,0.26852214336395264
1683139532606948600,15.965948486328125,0.046448707580566406,-0.9132658243179321,0.22690950334072113
1683139532624796000,15.9837958984375,0.02837848663330078,-0.893945574760437,0.2639603018760681
1683139532642640600,16.001640625,0.06021308898925781,-0.8849729299545288,0.22167150676250458
1683139532660488400,16.019488525390624,0.02711963653564453,-0.8872582912445068,0.24440395832061768
1683139532678324000,16.037323974609375,0.058381080627441406,-0.837736964225769,0.25431492924690247
1683139532696169000,16.0551689453125,0.021248817443847656,-0.8880779147148132,0.2907681465148926
1683139532714026800,16.07302685546875,0.03037261962890625,-0.851619303226471,0.24783922731876373
1683139532731873500,16.09087353515625,0.03917980194091797,-0.8894009590148926,0.22984129190444946
1683139532749703700,16.10870361328125,0.025359153747558594,-0.8675735592842102,0.2789440453052521
1683139532767566300,16.12656640625,0.055889129638671875,-0.8747139573097229,0.19874247908592224
1683139532785411000,16.1444111328125,0.013718605041503906,-0.8770500421524048,0.23274289071559906
1683139532803258600,16.162258544921876,0.05543231964111328,-0.832319438457489,0.2509913444519043
1683139532821103900,16.180103759765625,0.00125885009765625,-0.8703134059906006,0.2758144736289978
1683139532838951400,16.197951416015623,0.045696258544921875,-0.8464566469192505,0.22250178456306458
1683139532856796000,16.2157958984375,0.028077125549316406,-0.8647993206977844,0.26276761293411255
1683139532874643500,16.2336435546875,0.04567241668701172,-0.8575129508972168,0.2579438090324402
1683139532892490000,16.251489990234376,0.055838584899902344,-0.8742660284042358,0.1629992425441742
1683139532910336000,16.2693359375,0.04186439514160156,-0.8708497881889343,0.2323821485042572
1683139532928181200,16.28718115234375,0.050334930419921875,-0.8179528713226318,0.25374460220336914
1683139532946026500,16.305026611328124,0.014810562133789062,-0.8491312861442566,0.2572582960128784
1683139532963876000,16.3228759765625,0.05062103271484375,-0.8364896178245544,0.21809697151184082
1683139532981721300,16.340721435546875,0.029442787170410156,-0.8491631746292114,0.26056069135665894
1683139532999569200,16.358569091796873,0.03929615020751953,-0.8529300689697266,0.23584438860416412
1683139533017413400,16.376413330078126,0.046230316162109375,-0.8682753443717957,0.1612061709165573
1683139533035256000,16.394256103515627,0.04799842834472656,-0.8520424365997314,0.24559682607650757
1683139533053107200,16.412107177734374,0.059012413024902344,-0.8117907047271729,0.22134222090244293
1683139533070951400,16.429951416015626,0.041411399841308594,-0.8275589346885681,0.2269407957792282
1683139533088799000,16.447799072265624,0.06512832641601562,-0.8202047944068909,0.22043637931346893
1683139533106644000,16.46564404296875,0.023949623107910156,-0.8216258883476257,0.26375606656074524
1683139533124491500,16.483491455078124,0.0377655029296875,-0.8248206377029419,0.21814750134944916
1683139533142336300,16.501336181640625,0.05616283416748047,-0.8582960367202759,0.16895157098770142
1683139533160177000,16.519177001953125,0.055365562438964844,-0.8083865642547607,0.25106507539749146
1683139533178022700,16.537022705078126,0.060276031494140625,-0.8142534494400024,0.1852748841047287
1683139533195876900,16.554876953125,0.04340553283691406,-0.8184812068939209,0.2248709350824356
1683139533213709300,16.572709228515624,0.04921150207519531,-0.8128913640975952,0.23461201786994934
1683139533231569000,16.59056884765625,0.036833763122558594,-0.7836349010467529,0.2340402901172638
1683139533249413600,16.60841357421875,0.04413604736328125,-0.8257434368133545,0.1983393281698227
1683139533267261700,16.62626171875,0.06416797637939453,-0.8314955234527588,0.1923205852508545
1683139533285106200,16.644106201171876,0.02701854705810547,-0.7786522507667542,0.23924176394939423
1683139533302954000,16.6619541015625,0.051300048828125,-0.8171776533126831,0.18791182339191437
1683139533320799000,16.679799072265624,0.06100940704345703,-0.8015984892845154,0.21360285580158234
1683139533338646300,16.697646240234373,0.03636646270751953,-0.7900214791297913,0.22739103436470032
1683139533356491300,16.7154912109375,0.04784679412841797,-0.7630445957183838,0.2258891612291336
1683139533374336300,16.733336181640624,0.05874156951904297,-0.8183556795120239,0.19506864249706268
1683139533392186400,16.751186279296874,0.07021903991699219,-0.8036668300628662,0.19643545150756836
1683139533410031600,16.769031494140624,0.02668476104736328,-0.7608381509780884,0.21690627932548523
1683139533427873300,16.786873291015624,0.05247974395751953,-0.8040830492973328,0.18315663933753967
1683139533445723600,16.8047236328125,0.058681488037109375,-0.7653129696846008,0.2135748416185379
1683139533463571700,16.82257177734375,0.0443878173828125,-0.7772350311279297,0.2265656441450119
1683139533481404700,16.84040478515625,0.05035877227783203,-0.751664400100708,0.2257932871580124
1683139533499261000,16.858260986328126,0.03359794616699219,-0.8090328574180603,0.19854672253131866
1683139533517108500,16.8761083984375,0.04401683807373047,-0.7615666389465332,0.20015224814414978
1683139533534953500,16.893953369140625,0.029806137084960938,-0.7540502548217773,0.1858353316783905
1683139533552798000,16.9117978515625,0.06182384490966797,-0.7921755909919739,0.1989918202161789
1683139533570646300,16.929646240234376,0.037240028381347656,-0.7286829948425293,0.2240847945213318
1683139533588493800,16.947493896484374,0.03531837463378906,-0.7733233571052551,0.22251465916633606
1683139533606338800,16.9653388671875,0.043028831481933594,-0.7444229125976562,0.21553996205329895
1683139533624186400,16.983186279296874,0.051364898681640625,-0.7883837223052979,0.19710156321525574
1683139533642031000,17.001031005859375,0.058592796325683594,-0.7385846376419067,0.2052772045135498
1683139533659882800,17.0188828125,0.024019241333007812,-0.7510509490966797,0.18718798458576202
1683139533677712000,17.0367119140625,0.02996540069580078,-0.7831277847290039,0.2086166888475418
1683139533695559200,17.05455908203125,0.019205093383789062,-0.7047005891799927,0.21195626258850098
1683139533713412600,17.07241259765625,0.031228065490722656,-0.7650545835494995,0.23513221740722656
1683139533731260700,17.0902607421875,0.04852104187011719,-0.7312660813331604,0.21920379996299744
1683139533749095200,17.10809521484375,0.037845611572265625,-0.773011326789856,0.18906553089618683
1683139533766956300,17.125956298828125,0.03413200378417969,-0.7388917207717896,0.20778024196624756
1683139533784800800,17.14380078125,0.04176521301269531,-0.7430188059806824,0.19490498304367065
1683139533802648300,17.1616484375,0.024677276611328125,-0.7664642930030823,0.20973648130893707
1683139533820493300,17.179493408203125,0.019326210021972656,-0.6960883140563965,0.19283214211463928
1683139533838340000,17.197340087890623,0.02799510955810547,-0.7621809244155884,0.24720197916030884
1683139533856186000,17.21518603515625,0.0273895263671875,-0.7205895185470581,0.23975485563278198
1683139533874033200,17.233033203125,0.03301429748535156,-0.7587999701499939,0.17519888281822205
1683139533891878400,17.25087841796875,0.021392822265625,-0.7199989557266235,0.21422085165977478
1683139533909725200,17.26872509765625,0.04778861999511719,-0.7175002098083496,0.18257743120193481
1683139533927571200,17.2865712890625,0.013915061950683594,-0.7390716075897217,0.20419609546661377
1683139533945418000,17.30441796875,0.03229999542236328,-0.6785004734992981,0.20384667813777924
1683139533963258600,17.322258544921876,-0.0010242462158203125,-0.7383406162261963,0.25435733795166016
1683139533981110300,17.3401103515625,0.005965232849121094,-0.7122375965118408,0.21028012037277222
1683139533998955300,17.357955322265624,0.039710044860839844,-0.7473683953285217,0.17420919239521027
1683139534016802600,17.375802490234374,0.01788616180419922,-0.740146815776825,0.21574890613555908
1683139534034647800,17.393647705078124,0.033023834228515625,-0.7225254774093628,0.18064026534557343
1683139534052494800,17.411494873046873,0.009004592895507812,-0.730100154876709,0.1938679814338684
1683139534070340000,17.429340087890626,0.044658660888671875,-0.6642890572547913,0.20527341961860657
1683139534088187400,17.4471875,-0.0037746429443359375,-0.7159522771835327,0.2529039680957794
1683139534106033000,17.465032958984374,0.02200603485107422,-0.7064608931541443,0.18300844728946686
1683139534123880200,17.482880126953123,0.0227508544921875,-0.7281870245933533,0.19144295156002045
1683139534141724700,17.500724609375,0.02565288543701172,-0.7151297330856323,0.22906112670898438
1683139534159568600,17.518568603515625,0.044030189514160156,-0.7131657600402832,0.13043077290058136
1683139534177409800,17.536409912109374,0.0245819091796875,-0.7166270017623901,0.18503731489181519
1683139534195253200,17.554253173828126,0.03232288360595703,-0.6747644543647766,0.20681479573249817
1683139534213107700,17.572107666015626,-0.0036067962646484375,-0.7125229835510254,0.22288362681865692
1683139534230957000,17.58995703125,0.03545856475830078,-0.6890822649002075,0.17849409580230713
1683139534248800000,17.607800048828125,0.025239944458007812,-0.7055912017822266,0.20908787846565247
1683139534266649900,17.62564990234375,0.007613182067871094,-0.699941098690033,0.21663184463977814
1683139534284494300,17.643494384765624,0.04224205017089844,-0.719954252243042,0.12107747048139572
1683139534302342000,17.661341796875,0.02524280548095703,-0.709622859954834,0.19459524750709534
1683139534320187000,17.679186767578123,0.03820514678955078,-0.6605832576751709,0.19932307302951813
1683139534338034200,17.6970341796875,0.0026454925537109375,-0.67989182472229,0.21446189284324646
1683139534355879000,17.71487890625,0.026309967041015625,-0.6960217952728271,0.17728157341480255
1683139534373726500,17.7327265625,0.015391349792480469,-0.6883070468902588,0.21575552225112915
1683139534391571700,17.75057177734375,0.00672149658203125,-0.6937965750694275,0.18769635260105133
1683139534409419300,17.768419189453127,0.043853759765625,-0.7190083265304565,0.12902002036571503
1683139534427263700,17.786263671875,0.02935314178466797,-0.6714342832565308,0.20782171189785004
1683139534445108200,17.804108154296873,0.028388023376464844,-0.6670466065406799,0.17844538390636444
1683139534462959000,17.821958984375,0.03020954132080078,-0.6729883551597595,0.19212830066680908
1683139534480803800,17.839803955078125,0.029311180114746094,-0.6790450811386108,0.1903458535671234
1683139534498648600,17.857648681640626,0.024770736694335938,-0.656689465045929,0.208145409822464
1683139534516495600,17.87549560546875,0.022116661071777344,-0.6804803013801575,0.16151317954063416
1683139534534340900,17.8933408203125,0.04021453857421875,-0.7064766883850098,0.14667363464832306
1683139534552188400,17.9111884765625,0.019716262817382812,-0.652213454246521,0.19839370250701904
1683139534570033200,17.929033203125,0.020931243896484375,-0.6820706129074097,0.14369972050189972
1683139534587880700,17.946880615234374,0.051209449768066406,-0.6711046695709229,0.19041132926940918
1683139534605725700,17.9647255859375,0.030241966247558594,-0.6688628792762756,0.19438177347183228
1683139534623573200,17.9825732421875,0.03668212890625,-0.6331285834312439,0.19077971577644348
1683139534641417700,18.000417724609374,0.030363082885742188,-0.6749977469444275,0.16097375750541687
1683139534659265000,18.01826513671875,0.035241127014160156,-0.6669616103172302,0.1574007272720337
1683139534677098200,18.03609814453125,0.017299652099609375,-0.6240015029907227,0.19172412157058716
1683139534694951000,18.053950927734373,0.027040481567382812,-0.6797558069229126,0.15256677567958832
1683139534712791000,18.071791015625,0.046115875244140625,-0.6396220922470093,0.18431323766708374
1683139534730649900,18.08964990234375,0.020168304443359375,-0.6518497467041016,0.18653424084186554
1683139534748482800,18.10748291015625,0.04731464385986328,-0.6170921325683594,0.18697433173656464
1683139534766342400,18.12534228515625,0.027341842651367188,-0.6779935359954834,0.1664784848690033
1683139534784187000,18.143186767578126,0.037491798400878906,-0.6425760388374329,0.17093251645565033
1683139534802034400,18.161034423828124,0.012112617492675781,-0.6093724370002747,0.16366194188594818
1683139534819879200,18.178879150390625,0.023812294006347656,-0.6524720191955566,0.16719982028007507
1683139534837727200,18.196727294921875,0.03295612335205078,-0.6031628251075745,0.18282867968082428
1683139534855564500,18.214564453125,0.011341094970703125,-0.6405505537986755,0.18818938732147217
1683139534873419300,18.232419189453125,0.03546714782714844,-0.6165629029273987,0.18318483233451843
1683139534891261400,18.250261474609374,0.04265308380126953,-0.6600856781005859,0.15390245616436005
1683139534909114600,18.268114501953125,0.028507232666015625,-0.6207482218742371,0.1691291183233261
1683139534926956500,18.28595654296875,0.019392967224121094,-0.6148812770843506,0.16510602831840515
1683139534944800800,18.30380078125,0.019637107849121094,-0.6610207557678223,0.1751079559326172
1683139534962651600,18.321651611328125,0.015333175659179688,-0.5858501195907593,0.18432863056659698
1683139534980496000,18.339495849609374,0.018355369567871094,-0.6328572034835815,0.17764216661453247
1683139534998339600,18.357339599609375,0.030122756958007812,-0.6101210117340088,0.18622156977653503
1683139535016189000,18.37518896484375,0.027303695678710938,-0.6492407321929932,0.15352743864059448
1683139535034033200,18.393033203125,0.01603412628173828,-0.6073680520057678,0.16532625257968903
1683139535051880700,18.410880615234376,0.02635478973388672,-0.6069995760917664,0.1630418747663498
1683139535069725700,18.4287255859375,0.017858505249023438,-0.6486880779266357,0.18130166828632355
1683139535087572700,18.44657275390625,0.01142120361328125,-0.5655796527862549,0.16474035382270813
1683139535105418000,18.46441796875,0.0047016143798828125,-0.6339848041534424,0.20995163917541504
1683139535123265500,18.482265625,-0.0017566680908203125,-0.5994089245796204,0.20530882477760315
1683139535141109800,18.50010986328125,0.03229713439941406,-0.6320648193359375,0.14580555260181427
1683139535158957000,18.51795703125,0.012835502624511719,-0.6009515523910522,0.1786261349916458
1683139535176802000,18.535802001953126,0.05047321319580078,-0.5960261225700378,0.14329437911510468
1683139535194649900,18.55364990234375,0.0008182525634765625,-0.6169160008430481,0.16829973459243774
1683139535212494000,18.571494140625,0.013096809387207031,-0.5617767572402954,0.1667247712612152
1683139535230342000,18.589341796875,0.00019168853759765625,-0.6155046820640564,0.22652308642864227
1683139535248175000,18.607175048828125,-0.0130462646484375,-0.5853989720344543,0.18808776140213013
1683139535266034400,18.625034423828126,0.01590251922607422,-0.622642457485199,0.139070525765419
1683139535283879000,18.64287890625,0.006716728210449219,-0.6066953539848328,0.1701807677745819
1683139535301726500,18.6607265625,0.02802276611328125,-0.5993910431861877,0.15393692255020142
1683139535319560200,18.678560302734375,0.003826141357421875,-0.613987386226654,0.16536851227283478
1683139535337418800,18.696418701171876,0.028432846069335938,-0.5463697910308838,0.17580631375312805
1683139535355261200,18.71426123046875,-0.010058403015136719,-0.5958272814750671,0.2273174226284027
1683139535373108200,18.732108154296874,-0.0028219223022460938,-0.5857821702957153,0.15790365636348724
1683139535390951700,18.74995166015625,0.013483047485351562,-0.6122007966041565,0.1538553684949875
1683139535408808000,18.767807861328127,0.011286735534667969,-0.5924286246299744,0.1869528591632843
1683139535426647800,18.785647705078127,0.03821372985839844,-0.59482342004776,0.11669926345348358
1683139535444495400,18.803495361328125,0.00789642333984375,-0.5991818904876709,0.14792506396770477
1683139535462340000,18.821340087890626,0.017450332641601562,-0.5594526529312134,0.17820626497268677
1683139535480188000,18.83918798828125,-0.023795127868652344,-0.5971361398696899,0.19014209508895874
1683139535498032600,18.85703271484375,0.021970748901367188,-0.5744422674179077,0.1459139585494995
1683139535515879400,18.87487939453125,0.005837440490722656,-0.5873168110847473,0.17911012470722198
1683139535533724700,18.892724609375,-0.00029754638671875,-0.5870299339294434,0.1836852878332138
1683139535551572000,18.910572021484374,0.025743484497070312,-0.6017080545425415,0.08617959916591644
1683139535569416700,18.928416748046875,0.00730133056640625,-0.5978337526321411,0.164659321308136
1683139535587264300,18.94626416015625,0.03455162048339844,-0.5481278896331787,0.16491369903087616
1683139535605109800,18.96410986328125,-0.012969970703125,-0.5641761422157288,0.1844174861907959
1683139535622951700,18.98195166015625,0.03137683868408203,-0.577623724937439,0.12997564673423767
1683139535640801300,18.99980126953125,-0.005438804626464844,-0.5785651803016663,0.1842193752527237
1683139535658648300,19.0176484375,0.0069065093994140625,-0.5777967572212219,0.1629728376865387
1683139535676493600,19.03549365234375,0.029714584350585938,-0.6013830304145813,0.090284064412117
1683139535694323200,19.0533232421875,0.024932861328125,-0.5597285032272339,0.17933493852615356
1683139535712173300,19.07117333984375,0.025339126586914062,-0.5448564291000366,0.14779844880104065
1683139535730022000,19.08902197265625,0.015042304992675781,-0.5512477159500122,0.15587227046489716
1683139535747865900,19.106865966796875,0.03935432434082031,-0.5659431219100952,0.15069632232189178
1683139535765725700,19.1247255859375,0.011366844177246094,-0.5524701476097107,0.17360949516296387
1683139535783570200,19.142570068359376,0.007488250732421875,-0.5699365735054016,0.1376158446073532
1683139535801417200,19.160417236328126,0.027709007263183594,-0.5882899165153503,0.1110885813832283
1683139535819262500,19.178262451171875,0.0066204071044921875,-0.5406591892242432,0.17175500094890594
1683139535837109800,19.19610986328125,0.016243934631347656,-0.562796950340271,0.12572048604488373
1683139535854954200,19.213954345703126,0.029964447021484375,-0.547515869140625,0.14920152723789215
1683139535872798200,19.231798095703127,0.023424148559570312,-0.5499587655067444,0.15670840442180634
1683139535890632400,19.249632568359374,0.021040916442871094,-0.52103191614151,0.1605519950389862
1683139535908497200,19.2674970703125,0.02331829071044922,-0.5647931694984436,0.12222345173358917
1683139535926338800,19.2853388671875,0.030027389526367188,-0.5715200304985046,0.12007319927215576
1683139535944186000,19.30318603515625,0.00444793701171875,-0.5206691026687622,0.16623109579086304
1683139535962031000,19.321031005859375,0.014383316040039062,-0.569327175617218,0.12049129605293274
1683139535979878100,19.338878173828125,0.03385448455810547,-0.5321252346038818,0.15428051352500916
1683139535997723000,19.356722900390626,0.012091636657714844,-0.5410876870155334,0.1511821150779724
1683139536015564500,19.374564453125,0.029645919799804688,-0.5096187591552734,0.15760648250579834
1683139536033415000,19.392414794921876,0.01966571807861328,-0.5644737482070923,0.13219887018203735
1683139536051260000,19.410260009765626,0.026154518127441406,-0.5398013591766357,0.1374838948249817
1683139536069110300,19.4281103515625,0.00838470458984375,-0.5043942332267761,0.13459137082099915
1683139536086955000,19.445955078125,0.021270751953125,-0.5524594783782959,0.1373930126428604
1683139536104799700,19.4637998046875,0.0177764892578125,-0.4974921941757202,0.15220290422439575
1683139536122647000,19.48164697265625,-0.004712104797363281,-0.5400561094284058,0.17090556025505066
1683139536140491800,19.49949169921875,0.028695106506347656,-0.518041729927063,0.15360333025455475
1683139536158338000,19.517338134765627,0.02983856201171875,-0.5513932704925537,0.12759840488433838
1683139536176186000,19.53518603515625,0.0328521728515625,-0.5190407633781433,0.13837113976478577
1683139536194031000,19.553031005859374,-0.003991127014160156,-0.4923001825809479,0.12048067897558212
1683139536211875600,19.57087548828125,0.024255752563476562,-0.5530592799186707,0.15669825673103333
1683139536229723000,19.588722900390625,0.0018463134765625,-0.481437623500824,0.15745997428894043
1683139536247568000,19.60656787109375,0.008292198181152344,-0.5297378301620483,0.1565229296684265
1683139536265416000,19.624416015625,0.028072357177734375,-0.506190836429596,0.15801775455474854
1683139536283260200,19.64226025390625,0.018372535705566406,-0.5339112281799316,0.12074795365333557
1683139536301107700,19.660107666015627,0.0114593505859375,-0.49137526750564575,0.14253968000411987
1683139536318952700,19.67795263671875,0.02410125732421875,-0.5038933753967285,0.12794877588748932
1683139536336800000,19.695800048828126,0.007860183715820312,-0.5382475256919861,0.15877321362495422
1683139536354644500,19.71364453125,-0.0019817352294921875,-0.46367475390434265,0.13506463170051575
1683139536372492000,19.731491943359377,-0.0033397674560546875,-0.528247594833374,0.17404773831367493
1683139536390337000,19.7493369140625,0.009063720703125,-0.5036103129386902,0.1769779473543167
1683139536408184000,19.76718408203125,0.010922431945800781,-0.5348497033119202,0.11049309372901917
1683139536426028500,19.785028564453125,-0.0010271072387695312,-0.5034939646720886,0.15100425481796265
1683139536443876400,19.80287646484375,0.034722328186035156,-0.49081772565841675,0.12583595514297485
1683139536461712000,19.8207119140625,-0.0028619766235351562,-0.5180567502975464,0.14844511449337006
1683139536479566800,19.83856689453125,0.009871482849121094,-0.45395714044570923,0.1382995843887329
1683139536497412600,19.85641259765625,-0.016614913940429688,-0.5097329020500183,0.20096154510974884
1683139536515261400,19.874261474609376,-0.008360862731933594,-0.4841952919960022,0.16113562881946564
1683139536533103400,19.892103271484373,0.00034427642822265625,-0.5184071063995361,0.11486318707466125
1683139536550952200,19.9099521484375,-0.0035791397094726562,-0.4943535029888153,0.15108494460582733
1683139536568797000,19.927796875,0.02280139923095703,-0.4889734983444214,0.12185046821832657
1683139536586644500,19.94564453125,-0.01779651641845703,-0.5111735463142395,0.1401858925819397
1683139536604489500,19.963489501953124,0.012035369873046875,-0.44974279403686523,0.14346349239349365
1683139536622336800,19.981336669921873,-0.01933002471923828,-0.4934960603713989,0.19603514671325684
1683139536640181200,19.99918115234375,0.0019855499267578125,-0.4851788282394409,0.1365276575088501
1683139536658028000,20.017028076171876,-0.0006208419799804688,-0.5146437883377075,0.11044146865606308
1683139536675873000,20.034873046875,0.01776599884033203,-0.4960920810699463,0.17514997720718384
1683139536693720600,20.052720458984375,0.019082069396972656,-0.49369561672210693,0.09889836609363556
1683139536711556400,20.070556396484374,-0.009703636169433594,-0.5100459456443787,0.1223791316151619
1683139536729412400,20.088412353515626,0.02045154571533203,-0.45222365856170654,0.14889107644557953
1683139536747245600,20.10624560546875,-0.029218673706054688,-0.4870027005672455,0.16607430577278137
1683139536765105200,20.124105224609377,0.009308815002441406,-0.47766438126564026,0.12449071556329727
1683139536782949000,20.14194921875,-0.0119476318359375,-0.491982638835907,0.1464657485485077
1683139536800796700,20.159796630859375,0.0027666091918945312,-0.48481613397598267,0.16594430804252625
1683139536818641400,20.177641357421876,0.012847900390625,-0.5014148354530334,0.06315115094184875
1683139536836489000,20.195489013671875,0.0055141448974609375,-0.4975222945213318,0.1270344853401184
1683139536854333400,20.21333349609375,0.025717735290527344,-0.44954028725624084,0.14253361523151398
1683139536872180700,20.2311806640625,-0.02511119842529297,-0.4717666804790497,0.16184312105178833
1683139536890025700,20.249025634765626,0.02170848846435547,-0.4783935546875,0.10646761953830719
1683139536907873000,20.266873046875,-0.0018510818481445312,-0.48014044761657715,0.1383705586194992
1683139536925717500,20.284717529296874,-0.0014400482177734375,-0.48080748319625854,0.14477020502090454
1683139536943565000,20.30256494140625,0.017188072204589844,-0.5094669461250305,0.05676175281405449
1683139536961409800,20.320409912109376,0.005452156066894531,-0.4827219247817993,0.13548465073108673
1683139536979256800,20.3382568359375,0.014093399047851562,-0.45281559228897095,0.12922389805316925
1683139536997101600,20.3561015625,-0.006157875061035156,-0.4695965051651001,0.13568434119224548
1683139537014948900,20.373948974609377,0.013278007507324219,-0.47600650787353516,0.11821701377630234
1683139537032790300,20.391790283203125,0.007357597351074219,-0.45849335193634033,0.15819714963436127
1683139537050641000,20.409640869140624,0.005721092224121094,-0.46863889694213867,0.1105252131819725
1683139537068485600,20.427485595703125,0.02648162841796875,-0.50288987159729,0.06989169120788574
1683139537086333400,20.44533349609375,0.015929222106933594,-0.44317761063575745,0.13932886719703674
1683139537104178000,20.463177978515624,0.008642196655273438,-0.45228058099746704,0.09105044603347778
1683139537122025500,20.481025390625,0.025522232055664062,-0.46498531103134155,0.1285334974527359
1683139537139869400,20.498869384765626,0.026493072509765625,-0.4674447774887085,0.13205455243587494
1683139537157716500,20.516716552734376,0.01762676239013672,-0.43337851762771606,0.13062608242034912
1683139537175564500,20.534564453125,0.0043201446533203125,-0.47904157638549805,0.09442596137523651
1683139537193409000,20.552408935546875,0.02625751495361328,-0.4813443422317505,0.0795731395483017
1683139537211250700,20.570250732421876,0.001247406005859375,-0.42278215289115906,0.13666784763336182
1683139537229103000,20.58810302734375,0.004952430725097656,-0.4740979075431824,0.09428884088993073
1683139537246939600,20.605939697265626,0.03245067596435547,-0.44179558753967285,0.12200307846069336
1683139537264793300,20.62379345703125,0.006413459777832031,-0.44173645973205566,0.1272851526737213
1683139537282637800,20.641637939453126,0.010362625122070312,-0.42147505283355713,0.12536731362342834
1683139537300484900,20.65948486328125,-0.0010042190551757812,-0.47854799032211304,0.10136833041906357
1683139537318329300,20.677329345703125,0.03242683410644531,-0.4619882106781006,0.08929508179426193
1683139537336177700,20.695177734375,0.005061149597167969,-0.4142976403236389,0.12075644731521606
1683139537354021400,20.713021484375,0.01476287841796875,-0.4592001438140869,0.09595154970884323
1683139537371869200,20.730869140625,0.02074146270751953,-0.40591803193092346,0.12183979898691177
1683139537389714000,20.7487138671875,-0.004161834716796875,-0.4391428828239441,0.13123077154159546
1683139537407561500,20.7665615234375,0.015597343444824219,-0.41656866669654846,0.12617476284503937
1683139537425405400,20.784405517578126,0.02510833740234375,-0.4679509401321411,0.09661539644002914
1683139537443253000,20.8022529296875,0.021770477294921875,-0.42868489027023315,0.11121352016925812
1683139537461097700,20.82009765625,-0.002895355224609375,-0.4050448536872864,0.09653478115797043
1683139537478944800,20.83794482421875,0.013116836547851562,-0.4500427842140198,0.12298181653022766
1683139537496789500,20.85578955078125,-0.0033712387084960938,-0.387703537940979,0.12623493373394012
1683139537514636500,20.873636474609373,-0.00925445556640625,-0.4306008815765381,0.13238726556301117
1683139537532481300,20.891481201171874,0.012911796569824219,-0.4115409255027771,0.1340138018131256
1683139537550328600,20.90932861328125,0.023427963256835938,-0.44548237323760986,0.10508961975574493
1683139537568173600,20.927173583984374,0.00028133392333984375,-0.404610276222229,0.11546868085861206
1683139537586020900,20.945020751953123,-0.0005588531494140625,-0.4145725965499878,0.10259457677602768
1683139537603866400,20.962866455078125,0.008479118347167969,-0.4569924771785736,0.1291925013065338
1683139537621712400,20.98071240234375,-0.011305809020996094,-0.376920223236084,0.11041668057441711
1683139537639540500,20.99854052734375,-0.0087890625,-0.4353601336479187,0.14735639095306396
1683139537657404400,21.016404296875,-0.015528678894042969,-0.40725916624069214,0.13050824403762817
1683139537675246600,21.03424658203125,0.008426666259765625,-0.44898784160614014,0.08782855421304703
1683139537693099300,21.052099365234376,0.007306098937988281,-0.4163516163825989,0.11091884225606918
1683139537710941000,21.06994091796875,0.013361930847167969,-0.4037119746208191,0.10696975886821747
1683139537728787000,21.087786865234374,-0.0033550262451171875,-0.4424322247505188,0.10562154650688171
1683139537746622500,21.10562255859375,-0.012096405029296875,-0.3701897859573364,0.10438744723796844
1683139537764480500,21.12348046875,-0.015031814575195312,-0.42438822984695435,0.17029881477355957
1683139537782325000,21.141324951171875,-0.019097328186035156,-0.39823681116104126,0.15775175392627716
1683139537800172300,21.15917236328125,-0.003940582275390625,-0.44003021717071533,0.08499135076999664
1683139537818017000,21.17701708984375,-0.009943008422851562,-0.40851330757141113,0.12656360864639282
1683139537835864600,21.194864501953123,0.021674156188964844,-0.40754255652427673,0.09373706579208374
1683139537853709000,21.212708984375,-0.023484230041503906,-0.4256798326969147,0.11720138788223267
1683139537871556000,21.23055615234375,-0.0078125,-0.37848639488220215,0.10987065732479095
1683139537889401000,21.248401123046875,-0.023238182067871094,-0.42433229088783264,0.16424232721328735
1683139537907248600,21.26624853515625,-0.007426261901855469,-0.39773982763290405,0.1185653880238533
1683139537925092900,21.2840927734375,0.0013217926025390625,-0.43668273091316223,0.08918780088424683
1683139537942940000,21.30193994140625,-0.017866134643554688,-0.41213899850845337,0.1382952183485031
1683139537960784600,21.31978466796875,0.0062465667724609375,-0.40229395031929016,0.08208204805850983
1683139537978632000,21.3376318359375,-0.02555370330810547,-0.4219284653663635,0.10030688345432281
1683139537996476400,21.355476318359376,0.010462760925292969,-0.3555372357368469,0.11733812093734741
1683139538014323500,21.373323486328125,-0.033890724182128906,-0.4007876515388489,0.1677222102880478
1683139538032168700,21.391168701171875,-0.015140533447265625,-0.39470499753952026,0.10001039505004883
1683139538050016000,21.40901611328125,-0.009356498718261719,-0.4144466519355774,0.1107550710439682
1683139538067856100,21.426856201171876,-0.010150909423828125,-0.40389883518218994,0.13811135292053223
1683139538085711600,21.444711669921876,0.013842582702636719,-0.4062100350856781,0.044922951608896255
1683139538103552500,21.462552490234376,-0.011362075805664062,-0.40629518032073975,0.10067354142665863
1683139538121399800,21.48039990234375,-0.006159782409667969,-0.3666318655014038,0.1275518834590912
1683139538139243800,21.498243896484375,-0.03454399108886719,-0.409365177154541,0.13991059362888336
1683139538157091000,21.516091064453125,-0.003826141357421875,-0.38376957178115845,0.09926649928092957
1683139538174935800,21.533935791015626,-0.011447906494140625,-0.4071149230003357,0.11073289066553116
1683139538192779800,21.55177978515625,-0.0058441162109375,-0.3903336226940155,0.12571457028388977
1683139538210626800,21.569626708984377,0.02381610870361328,-0.41101571917533875,0.03752965107560158
1683139538228475400,21.587475341796875,-0.0027704238891601562,-0.397377073764801,0.11101247370243073
1683139538246319600,21.605319580078124,0.00012111663818359375,-0.3583986163139343,0.11949969828128815
1683139538264167200,21.623167236328126,-0.01819896697998047,-0.37606585025787354,0.1335867941379547
1683139538282011400,21.641011474609375,0.002826690673828125,-0.3930310606956482,0.09063643962144852
1683139538299859000,21.65885888671875,-0.023972511291503906,-0.38730520009994507,0.13807815313339233
1683139538317703700,21.67670361328125,-0.019483566284179688,-0.3969852924346924,0.10879629850387573
1683139538335535600,21.69453564453125,-0.0055599212646484375,-0.4284508228302002,0.036494288593530655
1683139538353395500,21.7123955078125,-0.0014162063598632812,-0.3732372224330902,0.12645207345485687
1683139538371243000,21.730242919921874,0.0069103240966796875,-0.36859822273254395,0.09650179743766785
1683139538389087000,21.7480869140625,-0.006199836730957031,-0.38029560446739197,0.11194825917482376
1683139538406934500,21.7659345703125,0.0060558319091796875,-0.38816142082214355,0.10384222865104675
1683139538424779000,21.783779052734374,-0.005002021789550781,-0.37111854553222656,0.11929892748594284
1683139538442626300,21.801626220703124,-0.003989219665527344,-0.3913220763206482,0.08657610416412354
1683139538460471000,21.819470947265625,0.008927345275878906,-0.42253413796424866,0.06954668462276459
1683139538478317300,21.8373173828125,-0.010481834411621094,-0.35964715480804443,0.12281975150108337
1683139538496163600,21.85516357421875,-0.00315093994140625,-0.37758326530456543,0.08327874541282654
1683139538514009900,21.873009765625,0.018240928649902344,-0.37124842405319214,0.10408501327037811
1683139538531854800,21.890854736328127,-0.0050983428955078125,-0.3738805055618286,0.11411319673061371
1683139538549701600,21.90870166015625,-0.007237434387207031,-0.34048497676849365,0.11654896289110184
1683139538567542500,21.92654248046875,-0.0037164688110351562,-0.3885127902030945,0.08125559985637665
1683139538585397200,21.944397216796876,0.012668609619140625,-0.39486831426620483,0.06839042156934738
1683139538603235300,21.9622353515625,-0.014807701110839844,-0.3389846682548523,0.11463183909654617
1683139538621088500,21.980088623046875,-0.0019884109497070312,-0.3866320550441742,0.07541761547327042
1683139538638930000,21.997929931640623,0.010144233703613281,-0.3525402247905731,0.1014007180929184
1683139538656777200,22.015777099609377,-0.005199432373046875,-0.3583463430404663,0.09890566021203995
1683139538674622000,22.0336220703125,0.019367218017578125,-0.3372470736503601,0.1024245098233223
1683139538692469000,22.051468994140624,0.004019737243652344,-0.3927270770072937,0.08107748627662659
1683139538710313200,22.069313232421877,0.008111000061035156,-0.3660568594932556,0.08183211088180542
1683139538728160800,22.087160888671875,-0.0009202957153320312,-0.333549439907074,0.08943552523851395
1683139538746005500,22.105005615234376,0.007877349853515625,-0.36978811025619507,0.08324549347162247
1683139538763853000,22.12285302734375,0.00543212890625,-0.3229144811630249,0.11678048968315125
1683139538781697300,22.140697265625,-0.02624034881591797,-0.36397141218185425,0.11544575542211533
1683139538799540200,22.158540283203124,0.0012836456298828125,-0.3387954831123352,0.10524918138980865
1683139538817388800,22.176388916015625,0.010718345642089844,-0.382190078496933,0.08819899708032608
1683139538835232000,22.19423193359375,0.008681297302246094,-0.3463735580444336,0.0934048593044281
1683139538853085400,22.21208544921875,-0.011348724365234375,-0.3225415349006653,0.08259513974189758
1683139538870928000,22.229927978515626,-0.007317543029785156,-0.37552881240844727,0.1045304387807846
1683139538888771800,22.247771728515627,-0.013538360595703125,-0.30980148911476135,0.10502717643976212
1683139538906621400,22.265621337890625,-0.015770912170410156,-0.3578444719314575,0.10467445105314255
1683139538924464600,22.283464599609374,0.014589309692382812,-0.3377001881599426,0.10985109955072403
1683139538942311400,22.3013115234375,0.0047702789306640625,-0.3669285774230957,0.06870503723621368
1683139538960156700,22.31915673828125,-0.005505561828613281,-0.32906967401504517,0.09343455731868744
1683139538978003700,22.337003662109375,0.004893302917480469,-0.3340330719947815,0.09107166528701782
1683139538995848200,22.35484814453125,-0.015213966369628906,-0.3691897988319397,0.10107313096523285
1683139539013695500,22.372695556640625,-0.012910842895507812,-0.2935357689857483,0.08823052793741226
