time,seconds_elapsed,z,y,x
1683139516768076000,0.127075927734375,9.762716293334961,0.41096729040145874,0.03349951654672623
1683139516785928400,0.144928466796875,9.743574142456055,0.5264210104942322,0.047258246690034866
1683139516803766000,0.16276611328125,9.705288887023926,0.4546363055706024,0.10887342691421509
1683139516821631500,0.180631591796875,9.753145217895508,0.4492524564266205,0.028115665540099144
1683139516839478000,0.19847802734375,9.753145217895508,0.39182472229003906,-0.07178468257188797
1683139516857313000,0.21631298828125,9.77707290649414,0.4307080805301666,0.07118647545576096
1683139516875172000,0.234172119140625,9.791430473327637,0.4875376224517822,-0.019142581149935722
1683139516893015000,0.25201513671875,9.719645500183105,0.41575294733047485,0.03290131315588951
1683139516910868200,0.2698681640625,9.791430473327637,0.49292147159576416,0.02871387079358101
1683139516928711000,0.2877109375,9.710074424743652,0.43489551544189453,0.09511470049619675
1683139516946560300,0.305560302734375,9.762716293334961,0.4492524564266205,0.009571290574967861
1683139516964405500,0.323405517578125,9.748359680175781,0.38703906536102295,-0.04307080805301666
1683139516982253000,0.341253173828125,9.734002113342285,0.46360939741134644,0.07118647545576096
1683139517000100400,0.359100341796875,9.796216011047363,0.4492524564266205,-0.0526420995593071
1683139517017942500,0.376942626953125,9.757930755615234,0.38703906536102295,0.03349951654672623
1683139517035796200,0.394796142578125,9.796216011047363,0.5072783827781677,0.03349951654672623
1683139517053639700,0.4126396484375,9.743574142456055,0.46360939741134644,0.06640082597732544
1683139517071487000,0.430487060546875,9.781859397888184,0.4205385744571686,-0.014356935396790504
1683139517089333800,0.448333740234375,9.791430473327637,0.4061816334724426,0
1683139517107180800,0.466180908203125,9.738788604736328,0.4540380835533142,0.0568295381963253
1683139517125025000,0.48402490234375,9.796216011047363,0.41096729040145874,-0.07597211748361588
1683139517142870800,0.501870849609375,9.796216011047363,0.41575294733047485,0.04307080805301666
1683139517160724200,0.51972412109375,9.77707290649414,0.49292147159576416,0.03768695518374443
1683139517178567700,0.537567626953125,9.77707290649414,0.4540380835533142,0.02871387079358101
1683139517196415200,0.555415283203125,9.796216011047363,0.43489551544189453,-0.004785645287483931
1683139517214261800,0.57326171875,9.78664493560791,0.44446679949760437,-0.009571290574967861
1683139517232108800,0.59110888671875,9.748359680175781,0.46360939741134644,0.04247260093688965
1683139517249955300,0.608955322265625,9.78664493560791,0.3966103494167328,-0.05742774158716202
1683139517267799600,0.626799560546875,9.77707290649414,0.4492524564266205,0.04247260093688965
1683139517285652200,0.64465234375,9.781859397888184,0.4588237404823303,0.004785645287483931
1683139517303495700,0.66249560546875,9.80100154876709,0.4540380835533142,0.038285162299871445
1683139517321343000,0.680343017578125,9.80100154876709,0.41096729040145874,-0.009571290574967861
1683139517339189200,0.698189208984375,9.762716293334961,0.49232324957847595,0.004785645287483931
1683139517357036500,0.71603662109375,9.762716293334961,0.46360939741134644,0.023330021649599075
1683139517374880300,0.73388037109375,9.805787086486816,0.4205385744571686,-0.02871387079358101
1683139517392731600,0.751731689453125,9.781859397888184,0.4977070987224579,0.047258246690034866
1683139517410578700,0.76957861328125,9.77707290649414,0.43489551544189453,0.03349951654672623
1683139517428422700,0.787422607421875,9.772287368774414,0.4540380835533142,0.04247260093688965
1683139517446271700,0.805271728515625,9.791430473327637,0.4205385744571686,-0.009571290574967861
1683139517464117200,0.8231171875,9.80100154876709,0.4875376224517822,0.02392822690308094
1683139517481964500,0.840964599609375,9.748359680175781,0.4588237404823303,0.023330021649599075
1683139517499809000,0.85880908203125,9.767501831054688,0.4253242313861847,0
1683139517517655800,0.87665576171875,9.757930755615234,0.5066801905632019,0.028115665540099144
1683139517535508700,0.8945087890625,9.757930755615234,0.4253242313861847,0.03290131315588951
1683139517553351400,0.912351318359375,9.810572624206543,0.49292147159576416,0.0526420995593071
1683139517571198700,0.93019873046875,9.757930755615234,0.4253242313861847,-0.004785645287483931
1683139517589045000,0.948044921875,9.772287368774414,0.49232324957847595,0.04247260093688965
1683139517606892000,0.96589208984375,9.791430473327637,0.46360939741134644,0.02392822690308094
1683139517624736000,0.983736083984375,9.767501831054688,0.4253242313861847,-0.019142581149935722
1683139517642587100,1.001587158203125,9.734601020812988,0.5401797294616699,0.03768695518374443
1683139517660434000,1.019433837890625,9.748359680175781,0.4301098585128784,0.09032905846834183
1683139517678280000,1.037280029296875,9.729216575622559,0.47796630859375,0.07597211748361588
1683139517696125200,1.055125244140625,9.748359680175781,0.4253242313861847,-0.009571290574967861
1683139517713972500,1.072972412109375,9.781859397888184,0.4875376224517822,0.06640082597732544
1683139517731819800,1.09081982421875,9.78664493560791,0.47796630859375,-0.009571290574967861
1683139517749664800,1.108664794921875,9.753145217895508,0.44446679949760437,0.008973085321485996
1683139517767515400,1.126515380859375,9.743574142456055,0.5306084156036377,0.06161518394947052
1683139517785360000,1.14435986328125,9.710074424743652,0.4205385744571686,0.09032905846834183
1683139517803207000,1.16220703125,9.743574142456055,0.49232324957847595,0.03290131315588951
1683139517821053400,1.180053466796875,9.748359680175781,0.3966103494167328,0.023330021649599075
1683139517838900500,1.197900390625,9.738788604736328,0.4540380835533142,0.09511470049619675
1683139517856747300,1.215747314453125,9.748359680175781,0.43489551544189453,-0.02871387079358101
1683139517874593800,1.23359375,9.748359680175781,0.43489551544189453,0.018544375896453857
1683139517892441300,1.25144140625,9.781859397888184,0.5407779216766357,0.06640082597732544
1683139517910287600,1.26928759765625,9.710074424743652,0.43489551544189453,0.09451649338006973
1683139517928134400,1.287134521484375,9.715457916259766,0.49710890650749207,0.028115665540099144
1683139517945981200,1.304981201171875,9.710074424743652,0.4301098585128784,0.08554340898990631
1683139517963828000,1.322827880859375,9.714859962463379,0.46839502453804016,0.07597211748361588
1683139517981675300,1.34067529296875,9.757930755615234,0.4061816334724426,-0.07178468257188797
1683139517999521800,1.358521728515625,9.734002113342285,0.4205385744571686,0.023330021649599075
1683139518017368600,1.37636865234375,9.757930755615234,0.5018945336341858,0.047258246690034866
1683139518035211300,1.394211181640625,9.710074424743652,0.4061816334724426,0.03768695518374443
1683139518053065700,1.412065673828125,9.781859397888184,0.49710890650749207,0.019142581149935722
1683139518070909000,1.429908935546875,9.710074424743652,0.4588237404823303,0.10408778488636017
1683139518088758500,1.447758544921875,9.724431037902832,0.4588237404823303,0.052043892443180084
1683139518106603800,1.465603759765625,9.772287368774414,0.38703906536102295,-0.07178468257188797
1683139518124449500,1.483449462890625,9.753145217895508,0.43968117237091064,0.06640082597732544
1683139518142296000,1.501296142578125,9.781859397888184,0.49710890650749207,0.019142581149935722
1683139518160142600,1.519142578125,9.729216575622559,0.4301098585128784,0.04247260093688965
1683139518177989600,1.53698974609375,9.772287368774414,0.47796630859375,0.018544375896453857
1683139518195836700,1.554836669921875,9.724431037902832,0.43489551544189453,0.09511470049619675
1683139518213669600,1.572669677734375,9.729216575622559,0.44446679949760437,0.018544375896453857
1683139518231534800,1.590534912109375,9.748359680175781,0.38225340843200684,-0.04785645380616188
1683139518249376800,1.608376708984375,9.748359680175781,0.4588237404823303,0.07597211748361588
1683139518267223300,1.626223388671875,9.781859397888184,0.46839502453804016,-0.038285162299871445
1683139518285070300,1.6440703125,9.781859397888184,0.3966103494167328,0.02392822690308094
1683139518302912500,1.66191259765625,9.80100154876709,0.4875376224517822,0.019142581149935722
1683139518320764200,1.67976416015625,9.757930755615234,0.4731806814670563,0.052043892443180084
1683139518338600000,1.697599853515625,9.772287368774414,0.43489551544189453,-0.019142581149935722
1683139518356458800,1.715458740234375,9.781859397888184,0.39182472229003906,-0.019142581149935722
1683139518374304500,1.733304443359375,9.743574142456055,0.46360939741134644,0.07597211748361588
1683139518392150800,1.75115087890625,9.781859397888184,0.41575294733047485,-0.06699903309345245
1683139518409997600,1.76899755859375,9.80100154876709,0.41096729040145874,0.03349951654672623
1683139518427844400,1.78684423828125,9.78664493560791,0.49710890650749207,0.02871387079358101
1683139518445691600,1.804691650390625,9.753145217895508,0.4731806814670563,0.023330021649599075
1683139518463528400,1.822528564453125,9.78664493560791,0.43968117237091064,-0.004785645287483931
1683139518481384700,1.840384765625,9.772287368774414,0.43489551544189453,-0.02871387079358101
1683139518499231700,1.858231689453125,9.748359680175781,0.47796630859375,0.0568295381963253
1683139518517078300,1.876078369140625,9.80100154876709,0.4013960063457489,-0.04785645380616188
1683139518534925000,1.893925048828125,9.767501831054688,0.44446679949760437,0.03290131315588951
1683139518552768300,1.911768310546875,9.77707290649414,0.46360939741134644,-0.004785645287483931
1683139518570619000,1.929618896484375,9.81535816192627,0.46360939741134644,0.03349951654672623
1683139518588455200,1.947455078125,9.78664493560791,0.4061816334724426,-0.02392822690308094
1683139518606311200,1.965311279296875,9.810572624206543,0.4731806814670563,-0.004785645287483931
1683139518624159200,1.9831591796875,9.757930755615234,0.47796630859375,0.018544375896453857
1683139518642005800,2.001005859375,9.791430473327637,0.4253242313861847,-0.02871387079358101
1683139518659852300,2.018852294921875,9.77707290649414,0.49710890650749207,0.052043892443180084
1683139518677699000,2.036698974609375,9.753145217895508,0.43968117237091064,0.028115665540099144
1683139518695554800,2.054554931640625,9.791430473327637,0.4588237404823303,0.038285162299871445
1683139518713380900,2.072380859375,9.78664493560791,0.41575294733047485,-0.019142581149935722
1683139518731235000,2.090235107421875,9.77707290649414,0.5018945336341858,0.004785645287483931
1683139518749091000,2.108091064453125,9.767501831054688,0.46839502453804016,0.028115665540099144
1683139518766932700,2.1259326171875,9.762716293334961,0.41575294733047485,0.009571290574967861
1683139518784779000,2.143779052734375,9.734601020812988,0.5018945336341858,0.023330021649599075
1683139518802626600,2.16162646484375,9.757930755615234,0.4301098585128784,0.03290131315588951
1683139518820473600,2.1794736328125,9.781859397888184,0.4827519655227661,0.03768695518374443
1683139518838315000,2.19731494140625,9.77707290649414,0.41575294733047485,-0.019142581149935722
1683139518856167700,2.215167724609375,9.78664493560791,0.49710890650749207,0.028115665540099144
1683139518874013700,2.233013671875,9.762716293334961,0.46360939741134644,0.018544375896453857
1683139518891860000,2.25085986328125,9.767501831054688,0.4205385744571686,-0.004785645287483931
1683139518909707300,2.268707275390625,9.710672378540039,0.5353940725326538,0.03768695518374443
1683139518927553500,2.286553466796875,9.714859962463379,0.4253242313861847,0.09930214285850525
1683139518945400800,2.30440087890625,9.724431037902832,0.4827519655227661,0.07118647545576096
1683139518963246000,2.32224609375,9.738788604736328,0.4301098585128784,-0.014356935396790504
1683139518981094100,2.34009423828125,9.767501831054688,0.4875376224517822,0.06640082597732544
1683139518998941200,2.357941162109375,9.762716293334961,0.4875376224517822,0.008973085321485996
1683139519016787500,2.375787353515625,9.743574142456055,0.43489551544189453,0.018544375896453857
1683139519034634200,2.39363427734375,9.743574142456055,0.5401797294616699,0.047258246690034866
1683139519052481000,2.41148095703125,9.705288887023926,0.4301098585128784,0.10887342691421509
1683139519070327800,2.429327880859375,9.738788604736328,0.5018945336341858,0.03768695518374443
1683139519088162600,2.44716259765625,9.729216575622559,0.4061816334724426,0.004187439568340778
1683139519106021400,2.465021484375,9.729216575622559,0.4540380835533142,0.07118647545576096
1683139519123868400,2.482868408203125,9.743574142456055,0.4540380835533142,0.004187439568340778
1683139519141714700,2.500714599609375,9.734002113342285,0.41575294733047485,0.004187439568340778
1683139519159568600,2.518568603515625,9.772287368774414,0.5401797294616699,0.06161518394947052
1683139519177407700,2.53640771484375,9.714859962463379,0.44446679949760437,0.11844471842050552
1683139519195251000,2.5542509765625,9.715457916259766,0.4875376224517822,0.018544375896453857
1683139519213106000,2.57210595703125,9.710074424743652,0.4301098585128784,0.06640082597732544
1683139519230948600,2.589948486328125,9.729216575622559,0.46360939741134644,0.09032905846834183
1683139519248792300,2.607792236328125,9.739386558532715,0.4205385744571686,-0.05742774158716202
1683139519266645000,2.62564501953125,9.738788604736328,0.4205385744571686,0.023330021649599075
1683139519284488700,2.64348876953125,9.753145217895508,0.5066801905632019,0.06640082597732544
1683139519302335200,2.661335205078125,9.686744689941406,0.41096729040145874,0.061016976833343506
1683139519320163800,2.679163818359375,9.762716293334961,0.4827519655227661,0.018544375896453857
1683139519338028800,2.69702880859375,9.695717811584473,0.43489551544189453,0.07058826833963394
1683139519355875600,2.71487548828125,9.734002113342285,0.4492524564266205,0.06161518394947052
1683139519373722400,2.732722412109375,9.767501831054688,0.38225340843200684,-0.09032905846834183
1683139519391569400,2.7505693359375,9.762716293334961,0.4205385744571686,0.0568295381963253
1683139519409412000,2.768412109375,9.78664493560791,0.5018945336341858,0.02392822690308094
1683139519427266300,2.786266357421875,9.719645500183105,0.4253242313861847,0.052043892443180084
1683139519445109000,2.80410888671875,9.791430473327637,0.46839502453804016,0.004785645287483931
1683139519462943500,2.821943603515625,9.724431037902832,0.43968117237091064,0.07118647545576096
1683139519480802800,2.839802734375,9.734002113342285,0.4492524564266205,0.028115665540099144
1683139519498649900,2.85764990234375,9.762716293334961,0.39182472229003906,-0.062213387340307236
1683139519516496000,2.875495849609375,9.724431037902832,0.46360939741134644,0.07118647545576096
1683139519534342700,2.8933427734375,9.77707290649414,0.4827519655227661,-0.014356935396790504
1683139519552189400,2.911189453125,9.772287368774414,0.4013960063457489,0.019142581149935722
1683139519570036500,2.929036376953125,9.805787086486816,0.47796630859375,0
1683139519587873500,2.94687353515625,9.738788604736328,0.4540380835533142,0.06161518394947052
1683139519605729800,2.964729736328125,9.77707290649414,0.43489551544189453,-0.009571290574967861
1683139519623576800,2.982576904296875,9.772287368774414,0.38703906536102295,-0.038285162299871445
1683139519641423600,3.000423583984375,9.734002113342285,0.4588237404823303,0.07118647545576096
1683139519659270100,3.018270263671875,9.77707290649414,0.43489551544189453,-0.062213387340307236
1683139519677116400,3.036116455078125,9.77707290649414,0.41575294733047485,0.04247260093688965
1683139519694963500,3.05396337890625,9.796216011047363,0.4827519655227661,0.02871387079358101
1683139519712802600,3.071802490234375,9.743574142456055,0.4731806814670563,0.03290131315588951
1683139519730657300,3.0896572265625,9.77707290649414,0.4253242313861847,-0.004785645287483931
1683139519748502800,3.107502685546875,9.796216011047363,0.4205385744571686,-0.038285162299871445
1683139519766351400,3.125351318359375,9.757930755615234,0.47796630859375,0.052043892443180084
1683139519784197000,3.143197021484375,9.791430473327637,0.41575294733047485,-0.038285162299871445
1683139519802043600,3.161043701171875,9.757930755615234,0.43968117237091064,0.03290131315588951
1683139519819890700,3.178890625,9.77707290649414,0.4588237404823303,-0.014356935396790504
1683139519837722400,3.196722412109375,9.80100154876709,0.4731806814670563,0.03349951654672623
1683139519855575000,3.214574951171875,9.77707290649414,0.41575294733047485,-0.014356935396790504
1683139519873431000,3.23243115234375,9.791430473327637,0.46360939741134644,-0.014356935396790504
1683139519891274200,3.250274169921875,9.743574142456055,0.4827519655227661,0.03290131315588951
1683139519909127000,3.268126953125,9.791430473327637,0.4253242313861847,-0.03349951654672623
1683139519926970600,3.285970703125,9.772287368774414,0.49232324957847595,0.04247260093688965
1683139519944817700,3.303817626953125,9.762716293334961,0.4540380835533142,0.018544375896453857
1683139519962649900,3.32164990234375,9.781859397888184,0.46360939741134644,0.03290131315588951
1683139519980514300,3.339514404296875,9.781859397888184,0.41575294733047485,-0.019142581149935722
1683139519998357200,3.357357177734375,9.796216011047363,0.4875376224517822,0.004785645287483931
1683139520016205600,3.37520556640625,9.743574142456055,0.49232324957847595,0.023330021649599075
1683139520034050800,3.39305078125,9.77707290649414,0.41575294733047485,0.014356935396790504
1683139520051897900,3.41089794921875,9.748359680175781,0.5018945336341858,0.03290131315588951
1683139520069745000,3.428744873046875,9.753145217895508,0.43489551544189453,0.03290131315588951
1683139520087583500,3.44658349609375,9.767501831054688,0.4875376224517822,0.047258246690034866
1683139520105438200,3.464438232421875,9.757930755615234,0.41575294733047485,-0.02392822690308094
1683139520123285000,3.482284912109375,9.767501831054688,0.49710890650749207,0.008973085321485996
1683139520141131800,3.5001318359375,9.781859397888184,0.4731806814670563,0.028115665540099144
1683139520158978000,3.51797802734375,9.738788604736328,0.41096729040145874,0.023330021649599075
1683139520176824600,3.535824462890625,9.729815483093262,0.5258227586746216,0.028115665540099144
1683139520194671900,3.553671875,9.695717811584473,0.4301098585128784,0.09930214285850525
1683139520212506000,3.571506103515625,9.734002113342285,0.4827519655227661,0.07118647545576096
1683139520230365200,3.589365234375,9.743574142456055,0.4205385744571686,-0.005383851006627083
1683139520248212000,3.6072119140625,9.748359680175781,0.47796630859375,0.06161518394947052
1683139520266048300,3.62504833984375,9.781859397888184,0.49710890650749207,0.018544375896453857
1683139520283905000,3.642905029296875,9.724431037902832,0.4301098585128784,0.01375873014330864
1683139520301751600,3.66075146484375,9.738788604736328,0.5353940725326538,0.0568295381963253
1683139520319586800,3.6785869140625,9.695717811584473,0.43489551544189453,0.10887342691421509
1683139520337435100,3.69643505859375,9.734002113342285,0.4875376224517822,0.047258246690034866
1683139520355291600,3.714291748046875,9.738788604736328,0.3966103494167328,-0.009571290574967861
1683139520373136400,3.732136474609375,9.729216575622559,0.4540380835533142,0.07118647545576096
1683139520390986500,3.749986572265625,9.757930755615234,0.46360939741134644,0.01375873014330864
1683139520408833800,3.767833740234375,9.738788604736328,0.41096729040145874,0.008973085321485996
1683139520426678500,3.785678466796875,9.772287368774414,0.5593222975730896,0.06640082597732544
1683139520444525300,3.803525390625,9.69093132019043,0.44446679949760437,0.12323036789894104
1683139520462371800,3.821371826171875,9.715457916259766,0.46839502453804016,0.023330021649599075
1683139520480219000,3.839218994140625,9.710074424743652,0.41575294733047485,0.03290131315588951
1683139520498066000,3.85706591796875,9.734002113342285,0.46839502453804016,0.10408778488636017
1683139520515912400,3.874912353515625,9.758528709411621,0.43489551544189453,-0.0526420995593071
1683139520533759000,3.892759033203125,9.734002113342285,0.4205385744571686,0.018544375896453857
1683139520551605500,3.91060546875,9.738788604736328,0.5066801905632019,0.07118647545576096
1683139520569452500,3.92845263671875,9.681958198547363,0.4205385744571686,0.07537391036748886
1683139520587300400,3.94630029296875,9.743574142456055,0.4731806814670563,0.004187439568340778
1683139520605146000,3.96414599609375,9.719645500183105,0.4253242313861847,0.06161518394947052
1683139520622993000,3.981992919921875,9.714859962463379,0.4540380835533142,0.07118647545576096
1683139520640840700,3.9998408203125,9.77707290649414,0.4013960063457489,-0.09032905846834183
1683139520658684700,4.0176845703125,9.748359680175781,0.4013960063457489,0.06161518394947052
1683139520676532500,4.035532470703125,9.772287368774414,0.5210371017456055,0.03768695518374443
1683139520694367700,4.05336767578125,9.729216575622559,0.43968117237091064,0.0568295381963253
1683139520712230100,4.071230224609375,9.748359680175781,0.44446679949760437,-0.0005982056609354913
1683139520730073000,4.089072998046875,9.724431037902832,0.43489551544189453,0.07118647545576096
1683139520747919600,4.106919677734375,9.714859962463379,0.43489551544189453,0.03768695518374443
1683139520765766400,4.124766357421875,9.753145217895508,0.38225340843200684,-0.05742774158716202
1683139520783612700,4.14261279296875,9.748359680175781,0.4492524564266205,0.06640082597732544
1683139520801459200,4.160459228515625,9.77707290649414,0.49232324957847595,-0.009571290574967861
1683139520819306200,4.17830615234375,9.757930755615234,0.3966103494167328,0.023330021649599075
1683139520837141000,4.19614111328125,9.796216011047363,0.4540380835533142,0
1683139520854999800,4.213999755859375,9.748359680175781,0.4588237404823303,0.0568295381963253
1683139520872842500,4.231842529296875,9.757930755615234,0.43968117237091064,0
1683139520890694100,4.249694091796875,9.78664493560791,0.3774677813053131,-0.0526420995593071
1683139520908538000,4.2675380859375,9.738788604736328,0.46360939741134644,0.0568295381963253
1683139520926386200,4.28538623046875,9.77707290649414,0.4492524564266205,-0.038285162299871445
1683139520944233200,4.303233154296875,9.78664493560791,0.4205385744571686,0.02871387079358101
1683139520962071000,4.321071044921875,9.772287368774414,0.46360939741134644,0.03290131315588951
1683139520979926800,4.3389267578125,9.738788604736328,0.4875376224517822,0.03290131315588951
1683139520997769200,4.356769287109375,9.743574142456055,0.4301098585128784,0.004187439568340778
1683139521015628800,4.37462890625,9.781859397888184,0.41575294733047485,-0.03349951654672623
1683139521033466400,4.39246630859375,9.743574142456055,0.4827519655227661,0.0568295381963253
1683139521051313200,4.410313232421875,9.767501831054688,0.4205385744571686,-0.019142581149935722
1683139521069163500,4.42816357421875,9.757930755615234,0.43489551544189453,0.018544375896453857
1683139521086995000,4.445994873046875,9.791430473327637,0.4588237404823303,-0.014356935396790504
1683139521104853500,4.463853515625,9.791430473327637,0.47796630859375,0.03768695518374443
1683139521122700000,4.481699951171875,9.796216011047363,0.41096729040145874,-0.019142581149935722
1683139521140543700,4.499543701171875,9.80100154876709,0.4492524564266205,-0.02392822690308094
1683139521158395100,4.51739501953125,9.748359680175781,0.49710890650749207,0.028115665540099144
1683139521176241000,4.535240966796875,9.791430473327637,0.4253242313861847,0
1683139521194075000,4.553074951171875,9.757930755615234,0.4875376224517822,0.03768695518374443
1683139521211935700,4.570935791015625,9.781859397888184,0.44446679949760437,0.03290131315588951
1683139521229780200,4.5887802734375,9.781859397888184,0.4731806814670563,0.03768695518374443
1683139521247627000,4.606626953125,9.791430473327637,0.4205385744571686,0
1683139521265473300,4.624473388671875,9.781859397888184,0.4731806814670563,0
1683139521283320300,4.6423203125,9.720243453979492,0.5018945336341858,0.03290131315588951
1683139521301166800,4.660166748046875,9.762716293334961,0.4205385744571686,0.028115665540099144
1683139521319014000,4.678013916015625,9.743574142456055,0.5018945336341858,0.028115665540099144
1683139521336860700,4.695860595703125,9.743574142456055,0.4253242313861847,0.03768695518374443
1683139521354707000,4.71370703125,9.781859397888184,0.4875376224517822,0.052043892443180084
1683139521372550400,4.73155029296875,9.762716293334961,0.4205385744571686,-0.02871387079358101
1683139521390403300,4.7494033203125,9.77707290649414,0.4731806814670563,0.009571290574967861
1683139521408246500,4.76724658203125,9.762716293334961,0.49232324957847595,0.04247260093688965
1683139521426093600,4.785093505859375,9.753145217895508,0.4013960063457489,0.018544375896453857
1683139521443940000,4.802940185546875,9.729815483093262,0.5210371017456055,0.01375873014330864
1683139521461773800,4.82077392578125,9.719645500183105,0.4253242313861847,0.08973085135221481
1683139521479632100,4.838632080078125,9.734002113342285,0.4731806814670563,0.08075776696205139
1683139521497480700,4.856480712890625,9.748359680175781,0.4253242313861847,-0.02392822690308094
1683139521515322400,4.874322265625,9.753145217895508,0.4875376224517822,0.0568295381963253
1683139521533178000,4.89217822265625,9.762716293334961,0.49232324957847595,0.018544375896453857
1683139521551020300,4.910020263671875,9.715457916259766,0.4253242313861847,0.023330021649599075
1683139521568867000,4.9278671875,9.748359680175781,0.5210371017456055,0.047258246690034866
1683139521586703600,4.94570361328125,9.69093132019043,0.4301098585128784,0.10887342691421509
1683139521604563500,4.9635634765625,9.734002113342285,0.4731806814670563,0.047258246690034866
1683139521622407200,4.9814072265625,9.748359680175781,0.38703906536102295,-0.02871387079358101
1683139521640254000,4.99925390625,9.738788604736328,0.44446679949760437,0.0568295381963253
1683139521658100200,5.017100341796875,9.753145217895508,0.46839502453804016,0.008973085321485996
1683139521675946800,5.03494677734375,9.724431037902832,0.4013960063457489,0.004187439568340778
1683139521693793800,5.052793701171875,9.781859397888184,0.544965386390686,0.052043892443180084
1683139521711622400,5.070622314453125,9.705288887023926,0.4588237404823303,0.137587308883667
1683139521729487400,5.0884873046875,9.705886840820312,0.46360939741134644,0.01375873014330864
1683139521747334000,5.106333984375,9.719645500183105,0.4061816334724426,0.018544375896453857
1683139521765180400,5.124180419921875,9.719645500183105,0.4588237404823303,0.08973085135221481
1683139521783027200,5.142027099609375,9.767501831054688,0.43968117237091064,-0.0526420995593071
1683139521800874000,5.1598740234375,9.729216575622559,0.4205385744571686,0.018544375896453857
1683139521818720000,5.177719970703125,9.738788604736328,0.5066801905632019,0.047258246690034866
1683139521836548600,5.195548583984375,9.686145782470703,0.41575294733047485,0.07537391036748886
1683139521854413800,5.213413818359375,9.748359680175781,0.46839502453804016,-0.005383851006627083
1683139521872260600,5.231260498046875,9.714859962463379,0.4205385744571686,0.028115665540099144
1683139521890106000,5.249106201171875,9.734002113342285,0.46839502453804016,0.06640082597732544
1683139521907954700,5.26695458984375,9.781859397888184,0.4061816334724426,-0.09092725813388824
1683139521925800200,5.28480029296875,9.757930755615234,0.4061816334724426,0.04247260093688965
1683139521943647200,5.302647216796875,9.781859397888184,0.5353940725326538,0.03768695518374443
1683139521961482000,5.32048193359375,9.714859962463379,0.4492524564266205,0.06640082597732544
1683139521979340800,5.3383408203125,9.77707290649414,0.44446679949760437,-0.009571290574967861
1683139521997185800,5.356185791015625,9.724431037902832,0.4301098585128784,0.06640082597732544
1683139522015035100,5.37403515625,9.719645500183105,0.4540380835533142,0.052043892443180084
1683139522032877000,5.391876953125,9.77707290649414,0.39182472229003906,-0.09511470049619675
1683139522050727000,5.409726806640625,9.748359680175781,0.44446679949760437,0.06640082597732544
1683139522068573700,5.42757373046875,9.772287368774414,0.49232324957847595,0.004187439568340778
1683139522086410200,5.44541015625,9.753145217895508,0.4253242313861847,0.028115665540099144
1683139522104267300,5.463267333984375,9.796216011047363,0.4492524564266205,-0.004785645287483931
1683139522122114000,5.481114013671875,9.77707290649414,0.4540380835533142,0.014356935396790504
1683139522139960300,5.498960205078125,9.753145217895508,0.4492524564266205,0.01375873014330864
1683139522157806800,5.516806884765625,9.781859397888184,0.3774677813053131,-0.05742774158716202
1683139522175653600,5.534653564453125,9.743574142456055,0.46360939741134644,0.052043892443180084
1683139522193500700,5.552500732421875,9.78664493560791,0.4492524564266205,-0.02871387079358101
1683139522211335200,5.570335205078125,9.80100154876709,0.43489551544189453,0.03349951654672623
1683139522229194000,5.588194091796875,9.796216011047363,0.4588237404823303,0.014356935396790504
1683139522247040800,5.606040771484375,9.757930755615234,0.49710890650749207,0.028115665540099144
1683139522264887000,5.623886962890625,9.738788604736328,0.44446679949760437,0.018544375896453857
1683139522282734300,5.641734375,9.781859397888184,0.4301098585128784,-0.04307080805301666
1683139522300580400,5.659580322265625,9.734002113342285,0.49232324957847595,0.052043892443180084
1683139522318426400,5.67742626953125,9.791430473327637,0.41096729040145874,-0.02392822690308094
1683139522336274200,5.695274169921875,9.767501831054688,0.44446679949760437,0.023330021649599075
1683139522354120400,5.713120361328125,9.772287368774414,0.44446679949760437,-0.004785645287483931
1683139522371967200,5.73096728515625,9.78664493560791,0.49710890650749207,0.03290131315588951
1683139522389812500,5.7488125,9.772287368774414,0.41096729040145874,-0.009571290574967861
1683139522407661800,5.766661865234375,9.796216011047363,0.4492524564266205,-0.014356935396790504
1683139522425506800,5.7845068359375,9.729815483093262,0.5018945336341858,0.023330021649599075
1683139522443347700,5.80234765625,9.78664493560791,0.43489551544189453,0.03290131315588951
1683139522461200100,5.8202001953125,9.757930755615234,0.4875376224517822,0.03290131315588951
1683139522479047200,5.838047119140625,9.734002113342285,0.44446679949760437,0.03768695518374443
1683139522496893700,5.855893798828125,9.762716293334961,0.4875376224517822,0.0568295381963253
1683139522514740200,5.873740234375,9.762716293334961,0.4205385744571686,0
1683139522532587000,5.8915869140625,9.762716293334961,0.46839502453804016,-0.0005982056609354913
1683139522550433300,5.909433349609375,9.729815483093262,0.5066801905632019,0.03768695518374443
1683139522568281300,5.92728125,9.753145217895508,0.41096729040145874,0.03768695518374443
1683139522586129700,5.945129638671875,9.738788604736328,0.4875376224517822,0.028115665540099144
1683139522603974000,5.962973876953125,9.743574142456055,0.4205385744571686,0.03290131315588951
1683139522621820400,5.9808203125,9.781859397888184,0.4875376224517822,0.0568295381963253
1683139522639662600,5.99866259765625,9.757930755615234,0.41096729040145874,-0.04307080805301666
1683139522657513500,6.016513427734375,9.77707290649414,0.46360939741134644,0.01375873014330864
1683139522675356700,6.034356689453125,9.748359680175781,0.5066801905632019,0.0568295381963253
1683139522693205800,6.052205810546875,9.729216575622559,0.41096729040145874,0.023330021649599075
1683139522711055400,6.070055419921875,9.710672378540039,0.5162515044212341,0.03768695518374443
1683139522728900400,6.087900390625,9.724431037902832,0.4205385744571686,0.09451649338006973
1683139522746747100,6.1057470703125,9.719645500183105,0.47796630859375,0.09451649338006973
1683139522764593400,6.123593505859375,9.739386558532715,0.4013960063457489,-0.03349951654672623
1683139522782440000,6.14143994140625,9.748359680175781,0.47796630859375,0.06161518394947052
1683139522800286700,6.15928662109375,9.772287368774414,0.5066801905632019,0.03768695518374443
1683139522818132200,6.17713232421875,9.719645500183105,0.4205385744571686,0.03290131315588951
1683139522835981300,6.194981201171875,9.739386558532715,0.5162515044212341,0.023330021649599075
1683139522853827000,6.2128271484375,9.7005033493042,0.4253242313861847,0.11844471842050552
1683139522871671800,6.230671875,9.719645500183105,0.4731806814670563,0.052043892443180084
1683139522889522000,6.24852197265625,9.762716293334961,0.372682124376297,-0.038285162299871445
1683139522907366400,6.266366455078125,9.738788604736328,0.43489551544189453,0.052043892443180084
1683139522925213200,6.284213134765625,9.748359680175781,0.4731806814670563,0.018544375896453857
1683139522943060200,6.302060302734375,9.719645500183105,0.4061816334724426,0.028115665540099144
1683139522960906500,6.319906494140625,9.772287368774414,0.544965386390686,0.0568295381963253
1683139522978753300,6.337753173828125,9.686145782470703,0.4492524564266205,0.137587308883667
1683139522996600300,6.355600341796875,9.715457916259766,0.4540380835533142,0.023330021649599075
1683139523014446000,6.373446044921875,9.729216575622559,0.4061816334724426,-0.0005982056609354913
1683139523032293000,6.391293212890625,9.734002113342285,0.46360939741134644,0.08554340898990631
1683139523050140000,6.409139892578125,9.768099784851074,0.46360939741134644,-0.04785645380616188
1683139523067986400,6.426986328125,9.729216575622559,0.41575294733047485,0.023330021649599075
1683139523085833000,6.4448330078125,9.762716293334961,0.5018945336341858,0.04247260093688965
1683139523103679700,6.4626796875,9.695717811584473,0.4205385744571686,0.07537391036748886
1683139523121526500,6.480526611328125,9.762716293334961,0.4588237404823303,-0.0005982056609354913
1683139523139362000,6.498362060546875,9.748359680175781,0.4061816334724426,-0.0005982056609354913
1683139523157208300,6.516208251953125,9.729216575622559,0.46360939741134644,0.07118647545576096
1683139523175066000,6.534066162109375,9.78664493560791,0.4253242313861847,-0.08135596662759781
1683139523192908000,6.551907958984375,9.762716293334961,0.4013960063457489,0.03768695518374443
1683139523210756900,6.5697568359375,9.791430473327637,0.5210371017456055,0.03768695518374443
1683139523228608800,6.58760888671875,9.710074424743652,0.4540380835533142,0.07537391036748886
1683139523246453000,6.605452880859375,9.762716293334961,0.43968117237091064,-0.004785645287483931
1683139523264299500,6.623299560546875,9.710074424743652,0.4205385744571686,0.04247260093688965
1683139523282146300,6.641146240234375,9.719645500183105,0.4540380835533142,0.052043892443180084
1683139523299992600,6.65899267578125,9.758528709411621,0.38644084334373474,-0.09092725813388824
1683139523317822200,6.676822265625,9.753145217895508,0.43489551544189453,0.0568295381963253
1683139523335683600,6.69468359375,9.767501831054688,0.5066801905632019,0.01375873014330864
1683139523353533000,6.712532958984375,9.753145217895508,0.4301098585128784,0.028115665540099144
1683139523371377000,6.730376953125,9.78664493560791,0.43489551544189453,-0.014356935396790504
1683139523389228800,6.748228759765625,9.762716293334961,0.4540380835533142,0.01375873014330864
1683139523407072500,6.766072509765625,9.748359680175781,0.4588237404823303,0.01375873014330864
1683139523424919000,6.7839189453125,9.781859397888184,0.38703906536102295,-0.062213387340307236
1683139523442751700,6.801751708984375,9.748359680175781,0.46839502453804016,0.052043892443180084
1683139523460612400,6.8196123046875,9.753145217895508,0.46839502453804016,-0.014955141581594944
1683139523478458600,6.837458740234375,9.781859397888184,0.4253242313861847,0.03290131315588951
1683139523496304400,6.855304443359375,9.77707290649414,0.43968117237091064,0
1683139523514153700,6.87315380859375,9.762716293334961,0.49232324957847595,0.008973085321485996
1683139523532000500,6.89100048828125,9.767501831054688,0.43968117237091064,0.018544375896453857
1683139523549846000,6.908845947265625,9.796216011047363,0.4205385744571686,-0.04307080805301666
1683139523567692500,6.926692626953125,9.738788604736328,0.511465847492218,0.0568295381963253
1683139523585539000,6.9445390625,9.738788604736328,0.4205385744571686,0.008973085321485996
1683139523603385900,6.9623857421875,9.772287368774414,0.43968117237091064,0.023330021649599075
1683139523621228800,6.980228759765625,9.77707290649414,0.43968117237091064,-0.014356935396790504
1683139523639080700,6.998080810546875,9.796216011047363,0.49232324957847595,0.028115665540099144
1683139523656927500,7.015927490234375,9.767501831054688,0.4253242313861847,0.004785645287483931
1683139523674774000,7.03377392578125,9.796216011047363,0.4253242313861847,-0.02871387079358101
1683139523692619000,7.051618896484375,9.729815483093262,0.5162515044212341,0.047258246690034866
1683139523710465300,7.06946533203125,9.762716293334961,0.4301098585128784,0.01375873014330864
1683139523728311600,7.0873115234375,9.767501831054688,0.4827519655227661,0.04247260093688965
1683139523746157000,7.105156982421875,9.762716293334961,0.43489551544189453,0.018544375896453857
1683139523764006100,7.123006103515625,9.77707290649414,0.4875376224517822,0.047258246690034866
1683139523781854500,7.1408544921875,9.753145217895508,0.4253242313861847,-0.0005982056609354913
1683139523799696400,7.1586962890625,9.757930755615234,0.4588237404823303,-0.005383851006627083
1683139523817545500,7.17654541015625,9.725028991699219,0.5210371017456055,0.03290131315588951
1683139523835389000,7.194388916015625,9.738788604736328,0.4205385744571686,0.047258246690034866
1683139523853237200,7.2122373046875,9.753145217895508,0.49232324957847595,0.03768695518374443
1683139523871085300,7.230085205078125,9.734002113342285,0.4301098585128784,0.004187439568340778
1683139523888933400,7.247933349609375,9.757930755615234,0.4827519655227661,0.07118647545576096
1683139523906777000,7.265777099609375,9.767501831054688,0.44446679949760437,-0.019142581149935722
1683139523924625200,7.283625244140625,9.729815483093262,0.4731806814670563,-0.0005982056609354913
1683139523942472200,7.30147216796875,9.743574142456055,0.5066801905632019,0.0568295381963253
1683139523960318200,7.319318115234375,9.738788604736328,0.41575294733047485,0.052043892443180084
1683139523978165200,7.337165283203125,9.720243453979492,0.511465847492218,0.03290131315588951
1683139523996011800,7.35501171875,9.724431037902832,0.4205385744571686,0.06161518394947052
1683139524013858300,7.3728583984375,9.705886840820312,0.46360939741134644,0.06580262631177902
1683139524031704800,7.390704833984375,9.743574142456055,0.41575294733047485,-0.019142581149935722
1683139524049551400,7.40855126953125,9.719645500183105,0.4540380835533142,0.04247260093688965
1683139524067386600,7.42638671875,9.738788604736328,0.5258227586746216,0.06161518394947052
1683139524085244700,7.44424462890625,9.710074424743652,0.41575294733047485,0.047258246690034866
1683139524103086800,7.4620869140625,9.725028991699219,0.511465847492218,0.023330021649599075
1683139524120937500,7.4799375,9.7005033493042,0.4253242313861847,0.09930214285850525
1683139524138785800,7.497785888671875,9.714859962463379,0.46839502453804016,0.08015955984592438
1683139524156631300,7.51563134765625,9.734601020812988,0.3966103494167328,-0.04307080805301666
1683139524174478300,7.533478271484375,9.705886840820312,0.44446679949760437,0.047258246690034866
1683139524192325000,7.5513251953125,9.734002113342285,0.49710890650749207,0.04247260093688965
1683139524210167800,7.569167724609375,9.701101303100586,0.41096729040145874,0.03768695518374443
1683139524228018200,7.58701806640625,9.748359680175781,0.5258227586746216,0.03290131315588951
1683139524245862100,7.604862060546875,9.681360244750977,0.43489551544189453,0.137587308883667
1683139524263712000,7.6227119140625,9.686744689941406,0.4588237404823303,0.04666004329919815
1683139524281560300,7.640560302734375,9.715457916259766,0.381655216217041,-0.04785645380616188
1683139524299404500,7.658404541015625,9.719645500183105,0.4540380835533142,0.08015955984592438
1683139524317251800,7.676251953125,9.744172096252441,0.46839502453804016,-0.005383851006627083
1683139524335098000,7.69409814453125,9.719645500183105,0.4061816334724426,0.028115665540099144
1683139524352945000,7.71194482421875,9.748359680175781,0.5162515044212341,0.04247260093688965
1683139524370791200,7.729791259765625,9.677172660827637,0.4301098585128784,0.09451649338006973
1683139524388635100,7.74763525390625,9.734002113342285,0.43968117237091064,-0.0005982056609354913
1683139524406487600,7.765487548828125,9.743574142456055,0.39182472229003906,-0.004785645287483931
1683139524424331300,7.783331298828125,9.743574142456055,0.46360939741134644,0.06640082597732544
1683139524442178000,7.801177978515625,9.758528709411621,0.4540380835533142,-0.0526420995593071
1683139524460024600,7.819024658203125,9.714859962463379,0.38225340843200684,0.03290131315588951
1683139524477871400,7.836871337890625,9.772287368774414,0.5066801905632019,0.03768695518374443
1683139524495706400,7.854706298828125,9.705288887023926,0.43489551544189453,0.08015955984592438
1683139524513565000,7.87256494140625,9.753145217895508,0.4492524564266205,-0.0005982056609354913
1683139524531410700,7.89041064453125,9.738788604736328,0.41575294733047485,0.004187439568340778
1683139524549257500,7.908257568359375,9.724431037902832,0.46360939741134644,0.07118647545576096
1683139524567104500,7.9261044921875,9.763314247131348,0.4061816334724426,-0.08614161610603333
1683139524584951300,7.943951416015625,9.757930755615234,0.41096729040145874,0.04247260093688965
1683139524602794200,7.961794189453125,9.77707290649414,0.5162515044212341,0.03290131315588951
1683139524620644000,7.97964404296875,9.734002113342285,0.43489551544189453,0.03768695518374443
1683139524638491100,7.9974912109375,9.78664493560791,0.4492524564266205,-0.02871387079358101
1683139524656337700,8.015337646484374,9.757930755615234,0.43968117237091064,0.03290131315588951
1683139524674184000,8.033183837890626,9.743574142456055,0.4588237404823303,0.03768695518374443
1683139524692031000,8.051031005859375,9.781859397888184,0.4061816334724426,-0.07657032459974289
1683139524709877800,8.068877685546875,9.77707290649414,0.43968117237091064,0.052043892443180084
1683139524727724300,8.086724365234375,9.772287368774414,0.49232324957847595,-0.0005982056609354913
1683139524745570800,8.10457080078125,9.753145217895508,0.43968117237091064,0.03768695518374443
1683139524763414300,8.122414306640625,9.767501831054688,0.4253242313861847,0
1683139524781267700,8.140267822265624,9.772287368774414,0.4731806814670563,-0.004785645287483931
1683139524799110700,8.158110595703125,9.767501831054688,0.4588237404823303,0.018544375896453857
1683139524816957200,8.175957275390624,9.767501831054688,0.39182472229003906,-0.04307080805301666
1683139524834804200,8.19380419921875,9.725028991699219,0.4875376224517822,0.04247260093688965
1683139524852650800,8.211650634765626,9.748359680175781,0.46360939741134644,0.008973085321485996
1683139524870497300,8.229497314453125,9.791430473327637,0.43489551544189453,0.03768695518374443
1683139524888342500,8.247342529296875,9.767501831054688,0.43968117237091064,-0.009571290574967861
1683139524906192100,8.265192138671875,9.781859397888184,0.5018945336341858,0.023330021649599075
1683139524924037000,8.283037109375,9.762716293334961,0.44446679949760437,0.028115665540099144
1683139524941875700,8.300875732421876,9.796216011047363,0.4205385744571686,-0.02871387079358101
1683139524959736300,8.318736328125,9.725028991699219,0.511465847492218,0.06161518394947052
1683139524977577200,8.3365771484375,9.738788604736328,0.4253242313861847,0.008973085321485996
1683139524995418000,8.354418212890625,9.772287368774414,0.4540380835533142,0.023330021649599075
1683139525013270500,8.3722705078125,9.77707290649414,0.43968117237091064,-0.009571290574967861
1683139525031117000,8.390116943359375,9.767501831054688,0.5018945336341858,0.047258246690034866
1683139525048952300,8.407952392578125,9.748359680175781,0.43489551544189453,0.008973085321485996
1683139525066810600,8.425810546875,9.743574142456055,0.4301098585128784,-0.010169495828449726
1683139525084657400,8.443657470703124,9.739386558532715,0.5210371017456055,0.03768695518374443
1683139525102503700,8.461503662109376,9.748359680175781,0.43489551544189453,0.047258246690034866
1683139525120350700,8.479350830078126,9.767501831054688,0.47796630859375,0.052043892443180084
1683139525138196700,8.49719677734375,9.753145217895508,0.43489551544189453,-0.009571290574967861
1683139525156043500,8.51504345703125,9.78664493560791,0.49232324957847595,0.03768695518374443
1683139525173890000,8.53289013671875,9.78664493560791,0.43968117237091064,0.009571290574967861
1683139525191737000,8.550737060546876,9.748359680175781,0.4492524564266205,-0.010169495828449726
1683139525209583600,8.56858349609375,9.715457916259766,0.5258227586746216,0.05144568532705307
1683139525227430400,8.586430419921875,9.738788604736328,0.4253242313861847,0.06640082597732544
1683139525245277000,8.60427685546875,9.725028991699219,0.49232324957847595,0.04247260093688965
1683139525263120600,8.62212060546875,9.753145217895508,0.4205385744571686,0.018544375896453857
1683139525280972800,8.639972900390624,9.757930755615234,0.4827519655227661,0.07118647545576096
1683139525298816500,8.65781640625,9.78664493560791,0.43968117237091064,-0.03349951654672623
1683139525316663000,8.6756630859375,9.757930755615234,0.46839502453804016,0.018544375896453857
1683139525334510000,8.693510009765625,9.753145217895508,0.5210371017456055,0.0568295381963253
1683139525352356900,8.71135693359375,9.710074424743652,0.4061816334724426,0.06161518394947052
1683139525370203600,8.72920361328125,9.725028991699219,0.5018945336341858,0.018544375896453857
1683139525388049400,8.74704931640625,9.719645500183105,0.43489551544189453,0.07118647545576096
1683139525405896400,8.764896484375,9.734002113342285,0.4588237404823303,0.09451649338006973
1683139525423731200,8.782731201171876,9.744172096252441,0.4205385744571686,-0.038285162299871445
1683139525441577700,8.80057763671875,9.748359680175781,0.44446679949760437,0.03290131315588951
1683139525459436500,8.8184365234375,9.772287368774414,0.5353940725326538,0.047258246690034866
1683139525477283000,8.836282958984375,9.714859962463379,0.4205385744571686,0.06161518394947052
1683139525495129900,8.8541298828125,9.738788604736328,0.5018945336341858,0.047258246690034866
1683139525512971300,8.87197119140625,9.686145782470703,0.44446679949760437,0.1136590763926506
1683139525530822700,8.88982275390625,9.724431037902832,0.46839502453804016,0.07537391036748886
1683139525548659200,8.9076591796875,9.757930755615234,0.3966103494167328,-0.0526420995593071
1683139525566511400,8.925511474609374,9.734002113342285,0.44446679949760437,0.04247260093688965
1683139525584363000,8.943363037109375,9.762716293334961,0.49232324957847595,0.047258246690034866
1683139525602209800,8.961209716796875,9.69631576538086,0.4061816334724426,0.023330021649599075
1683139525620056000,8.97905615234375,9.77707290649414,0.5258227586746216,0.04247260093688965
1683139525637902800,8.99690283203125,9.67657470703125,0.44446679949760437,0.12323036789894104
1683139525655740200,9.014740234375,9.734002113342285,0.46360939741134644,0.047258246690034866
1683139525673596200,9.03259619140625,9.744172096252441,0.381655216217041,-0.05742774158716202
1683139525691442400,9.0504423828125,9.748359680175781,0.4492524564266205,0.07118647545576096
1683139525709289200,9.068289306640626,9.781859397888184,0.4731806814670563,-0.009571290574967861
1683139525727135700,9.0861357421875,9.734002113342285,0.4205385744571686,0.028115665540099144
1683139525744982300,9.103982177734375,9.767501831054688,0.5018945336341858,0.028115665540099144
1683139525762825200,9.1218251953125,9.7005033493042,0.43489551544189453,0.0849452018737793
1683139525780675800,9.13967578125,9.743574142456055,0.4492524564266205,-0.005383851006627083
1683139525798523000,9.15752294921875,9.743574142456055,0.4013960063457489,-0.014356935396790504
1683139525816369000,9.175368896484375,9.719645500183105,0.4588237404823303,0.08015955984592438
1683139525834216000,9.1932158203125,9.781859397888184,0.44446679949760437,-0.05742774158716202
1683139525852062200,9.211062255859375,9.767501831054688,0.38703906536102295,0.028115665540099144
1683139525869908700,9.22890869140625,9.791430473327637,0.5066801905632019,0.028115665540099144
1683139525887755300,9.24675537109375,9.719645500183105,0.4492524564266205,0.08973085135221481
1683139525905602000,9.26460205078125,9.772287368774414,0.4253242313861847,-0.02392822690308094
1683139525923448300,9.2824482421875,9.757930755615234,0.41096729040145874,0.004187439568340778
1683139525941295000,9.300295166015625,9.743574142456055,0.46360939741134644,0.06640082597732544
1683139525959142100,9.31814208984375,9.78664493560791,0.39122650027275085,-0.08614161610603333
1683139525976988400,9.335988525390626,9.791430473327637,0.4205385744571686,0.04247260093688965
1683139525994835500,9.35383544921875,9.781859397888184,0.5066801905632019,0.03768695518374443
1683139526012681700,9.371681640625,9.729216575622559,0.4492524564266205,0.04247260093688965
1683139526030528800,9.38952880859375,9.805787086486816,0.44446679949760437,-0.014356935396790504
1683139526048374300,9.407374267578126,9.781859397888184,0.44446679949760437,-0.009571290574967861
1683139526066222600,9.42522265625,9.738788604736328,0.46839502453804016,0.052043892443180084
1683139526084068900,9.44306884765625,9.805787086486816,0.39182472229003906,-0.062213387340307236
1683139526101915000,9.460914794921875,9.767501831054688,0.44446679949760437,0.03768695518374443
1683139526119747800,9.478747802734375,9.781859397888184,0.47796630859375,0.004785645287483931
1683139526137608000,9.49660791015625,9.80100154876709,0.43489551544189453,0.038285162299871445
1683139526155452200,9.5144521484375,9.791430473327637,0.4205385744571686,-0.009571290574967861
1683139526173304300,9.53230419921875,9.80100154876709,0.4827519655227661,0
1683139526191148000,9.55014794921875,9.77707290649414,0.4540380835533142,0.009571290574967861
1683139526208993500,9.56799365234375,9.820143699645996,0.4061816334724426,-0.06161518394947052
1683139526226842400,9.58584228515625,9.767501831054688,0.4875376224517822,0.03768695518374443
1683139526244688000,9.60368798828125,9.77707290649414,0.4492524564266205,0.01375873014330864
1683139526262534100,9.6215341796875,9.80100154876709,0.4492524564266205,0.03349951654672623
1683139526280381400,9.63938134765625,9.781859397888184,0.43968117237091064,-0.014356935396790504
1683139526298227500,9.6572275390625,9.791430473327637,0.49710890650749207,0.028115665540099144
1683139526316075300,9.6750751953125,9.753145217895508,0.44446679949760437,0.03290131315588951
1683139526333905700,9.69290576171875,9.791430473327637,0.4205385744571686,-0.02871387079358101
1683139526351770600,9.7107705078125,9.762716293334961,0.5066801905632019,0.03768695518374443
1683139526369613800,9.72861376953125,9.772287368774414,0.4301098585128784,0.03290131315588951
1683139526387460400,9.74646044921875,9.78664493560791,0.46839502453804016,0.03768695518374443
1683139526405307100,9.76430712890625,9.762716293334961,0.4253242313861847,0
1683139526423153700,9.782153564453125,9.772287368774414,0.49710890650749207,0.04247260093688965
1683139526441000700,9.800000732421875,9.781859397888184,0.4301098585128784,0
1683139526458847000,9.817846923828125,9.796216011047363,0.4301098585128784,-0.02392822690308094
1683139526476694000,9.835694091796874,9.734601020812988,0.5353940725326538,0.03290131315588951
1683139526494540500,9.85354052734375,9.757930755615234,0.4253242313861847,0.07597211748361588
1683139526512387000,9.871386962890625,9.734002113342285,0.4875376224517822,0.03768695518374443
1683139526530233900,9.88923388671875,9.77707290649414,0.4205385744571686,0.004785645287483931
1683139526548080000,9.907080078125,9.781859397888184,0.46360939741134644,0.052043892443180084
1683139526565927000,9.924927001953124,9.762716293334961,0.44446679949760437,0.01375873014330864
1683139526583773700,9.942773681640626,9.744172096252441,0.46360939741134644,-0.005383851006627083
1683139526601619700,9.96061962890625,9.734002113342285,0.5306084156036377,0.06580262631177902
1683139526619466800,9.978466796875,9.748359680175781,0.4205385744571686,0.08075776696205139
1683139526637313300,9.996313232421874,9.739386558532715,0.49710890650749207,0.028115665540099144
1683139526655156700,10.01415673828125,9.729216575622559,0.41096729040145874,0.03768695518374443
1683139526673009400,10.032009521484374,9.738788604736328,0.46360939741134644,0.08075776696205139
1683139526690852900,10.049852783203125,9.767501831054688,0.4205385744571686,-0.02871387079358101
1683139526708699600,10.06769970703125,9.753145217895508,0.44446679949760437,0.023330021649599075
1683139526726546000,10.0855458984375,9.757930755615234,0.5306084156036377,0.07118647545576096
1683139526744392700,10.103392822265626,9.719645500183105,0.41575294733047485,0.06161518394947052
1683139526762239500,10.121239501953125,9.725028991699219,0.5066801905632019,0.03768695518374443
1683139526780085800,10.139085693359375,9.714859962463379,0.4205385744571686,0.0849452018737793
1683139526797932800,10.156932861328125,9.724431037902832,0.4588237404823303,0.09930214285850525
1683139526815775700,10.174775634765625,9.748957633972168,0.4055834412574768,-0.0526420995593071
1683139526833628700,10.192628662109374,9.738788604736328,0.43489551544189453,0.04247260093688965
1683139526851472400,10.210472412109375,9.767501831054688,0.5066801905632019,0.06640082597732544
1683139526869318400,10.228318359375,9.69093132019043,0.41575294733047485,0.06580262631177902
1683139526887165200,10.246165283203124,9.734601020812988,0.5066801905632019,0.023330021649599075
1683139526905011700,10.26401171875,9.69093132019043,0.43489551544189453,0.11844471842050552
1683139526922855000,10.28185498046875,9.738788604736328,0.46360939741134644,0.047258246690034866
1683139526940704800,10.299704833984375,9.772287368774414,0.3768695592880249,-0.07178468257188797
1683139526958551300,10.31755126953125,9.753145217895508,0.4253242313861847,0.0568295381963253
1683139526976398000,10.335398193359374,9.772287368774414,0.4875376224517822,0.03290131315588951
1683139526994232800,10.35323291015625,9.710074424743652,0.39122650027275085,0.028115665540099144
1683139527012091400,10.37109130859375,9.78664493560791,0.5066801905632019,0.03768695518374443
1683139527029938200,10.388938232421875,9.69093132019043,0.4301098585128784,0.10887342691421509
1683139527047785000,10.406784912109375,9.734002113342285,0.43489551544189453,0.01375873014330864
1683139527065631200,10.42463134765625,9.772287368774414,0.39182472229003906,-0.02392822690308094
1683139527083466000,10.442466064453125,9.748359680175781,0.4588237404823303,0.07597211748361588
1683139527101324300,10.46032421875,9.772287368774414,0.46839502453804016,-0.02392822690308094
1683139527119171000,10.478171142578125,9.738788604736328,0.3966103494167328,0.023330021649599075
1683139527137017300,10.496017333984375,9.791430473327637,0.4875376224517822,0.023330021649599075
1683139527154864000,10.513864013671874,9.738788604736328,0.43968117237091064,0.08554340898990631
1683139527172710700,10.531710693359376,9.757930755615234,0.43968117237091064,-0.005383851006627083
1683139527190557400,10.549557373046875,9.767501831054688,0.38644084334373474,-0.038285162299871445
1683139527208403000,10.56740283203125,9.767501831054688,0.46839502453804016,0.08075776696205139
1683139527226251300,10.585251220703125,9.80100154876709,0.4295116662979126,-0.07657032459974289
1683139527244096800,10.6030966796875,9.781859397888184,0.3966103494167328,0.04247260093688965
1683139527261943300,10.620943359375,9.781859397888184,0.5162515044212341,0.028115665540099144
1683139527279770000,10.63877001953125,9.748359680175781,0.4588237404823303,0.047258246690034866
1683139527297638000,10.656637939453125,9.796216011047363,0.43968117237091064,-0.019142581149935722
1683139527315480300,10.674480224609376,9.772287368774414,0.4301098585128784,0.023330021649599075
1683139527333332700,10.692332763671875,9.734002113342285,0.46839502453804016,0.07597211748361588
1683139527351176400,10.710176513671875,9.762716293334961,0.39122650027275085,-0.06699903309345245
1683139527369022700,10.728022705078125,9.78664493560791,0.43489551544189453,0.04247260093688965
1683139527386869000,10.745868896484374,9.791430473327637,0.49232324957847595,0.023330021649599075
1683139527404715800,10.7637158203125,9.78664493560791,0.4540380835533142,0.028115665540099144
1683139527422562300,10.781562255859376,9.810572624206543,0.4301098585128784,-0.014356935396790504
1683139527440408800,10.799408935546875,9.81535816192627,0.4588237404823303,-0.019142581149935722
1683139527458255400,10.81725537109375,9.753145217895508,0.4588237404823303,0.047258246690034866
1683139527476102100,10.83510205078125,9.810572624206543,0.39601215720176697,-0.06699903309345245
1683139527493949000,10.852948974609374,9.753145217895508,0.46839502453804016,0.04247260093688965
1683139527511783400,10.870783447265625,9.77707290649414,0.46839502453804016,0.01375873014330864
1683139527529642000,10.88864208984375,9.796216011047363,0.4588237404823303,0.03290131315588951
1683139527547488500,10.906488525390625,9.781859397888184,0.4205385744571686,0.004785645287483931
1683139527565335000,10.9243349609375,9.78664493560791,0.49710890650749207,0.018544375896453857
1683139527583183400,10.942183349609374,9.748359680175781,0.46839502453804016,0.028115665540099144
1683139527601028000,10.960028076171875,9.80100154876709,0.41575294733047485,-0.009571290574967861
1683139527618873300,10.977873291015625,9.748359680175781,0.49710890650749207,0.047258246690034866
1683139527636722400,10.995722412109375,9.762716293334961,0.43489551544189453,0.023330021649599075
1683139527654567700,11.013567626953124,9.78664493560791,0.4588237404823303,0.03290131315588951
1683139527672414200,11.031414306640626,9.80100154876709,0.41575294733047485,-0.009571290574967861
1683139527690261000,11.049260986328125,9.80100154876709,0.5018945336341858,0.03290131315588951
1683139527708107300,11.067107177734375,9.753145217895508,0.44446679949760437,0.018544375896453857
1683139527725954000,11.0849541015625,9.78664493560791,0.41096729040145874,0
1683139527743800600,11.102800537109376,9.753145217895508,0.5162515044212341,0.028115665540099144
1683139527761646800,11.120646728515625,9.78664493560791,0.43489551544189453,0.023330021649599075
1683139527779490600,11.138490478515624,9.791430473327637,0.5018945336341858,0.04247260093688965
1683139527797343000,11.156343017578125,9.767501831054688,0.4301098585128784,0.008973085321485996
1683139527815185000,11.174184814453126,9.767501831054688,0.49710890650749207,0.047258246690034866
1683139527833034800,11.19203466796875,9.767501831054688,0.4540380835533142,0.028115665540099144
1683139527850879700,11.209879638671875,9.757930755615234,0.4342973232269287,-0.0005982056609354913
1683139527868726000,11.22772607421875,9.739386558532715,0.5306084156036377,0.03768695518374443
1683139527886572500,11.245572509765625,9.729216575622559,0.41575294733047485,0.07597211748361588
1683139527904418800,11.263418701171876,9.748359680175781,0.4827519655227661,0.07118647545576096
1683139527922265600,11.281265625,9.762716293334961,0.41515472531318665,-0.019142581149935722
1683139527940112400,11.2991123046875,9.772287368774414,0.4875376224517822,0.07118647545576096
1683139527957958400,11.31695849609375,9.80100154876709,0.4540380835533142,-0.009571290574967861
1683139527975805400,11.334805419921874,9.753145217895508,0.44446679949760437,-0.0005982056609354913
1683139527993652000,11.35265185546875,9.762716293334961,0.5353940725326538,0.07118647545576096
1683139528011498500,11.37049853515625,9.705288887023926,0.4205385744571686,0.0849452018737793
1683139528029345000,11.388344970703125,9.715457916259766,0.4827519655227661,0.023330021649599075
1683139528047191600,11.406191650390625,9.743574142456055,0.4205385744571686,0.052043892443180084
1683139528065037800,11.424037841796874,9.738788604736328,0.4588237404823303,0.0849452018737793
1683139528082880800,11.441880859375,9.744172096252441,0.43908295035362244,-0.019740786403417587
1683139528100731100,11.459731201171875,9.734002113342285,0.43908295035362244,0.018544375896453857
1683139528118569500,11.477569580078125,9.78664493560791,0.5497509837150574,0.07118647545576096
1683139528136423700,11.495423583984374,9.705288887023926,0.4301098585128784,0.08015955984592438
1683139528154270700,11.513270751953126,9.744172096252441,0.5018945336341858,0.023330021649599075
1683139528172117500,11.531117431640626,9.710074424743652,0.4205385744571686,0.07058826833963394
1683139528189961000,11.5489609375,9.743574142456055,0.46839502453804016,0.07597211748361588
1683139528207813400,11.5668134765625,9.78664493560791,0.4055834412574768,-0.05742774158716202
1683139528225656800,11.58465673828125,9.757930755615234,0.4342973232269287,0.028115665540099144
1683139528243503400,11.60250341796875,9.753145217895508,0.49710890650749207,0.0568295381963253
1683139528261350000,11.620349853515625,9.714859962463379,0.4103690981864929,0.028115665540099144
1683139528279196700,11.63819677734375,9.772287368774414,0.511465847492218,0.018544375896453857
1683139528297044000,11.6560439453125,9.738788604736328,0.4588237404823303,0.10887342691421509
1683139528314883600,11.673883544921875,9.724431037902832,0.44446679949760437,0.04247260093688965
1683139528332740900,11.691740966796875,9.758528709411621,0.38644084334373474,-0.07178468257188797
1683139528350581200,11.709581298828125,9.753145217895508,0.43968117237091064,0.07118647545576096
1683139528368428800,11.7274287109375,9.77707290649414,0.49710890650749207,0.018544375896453857
1683139528386276000,11.745276123046875,9.710074424743652,0.4247260093688965,0.047258246690034866
1683139528404121300,11.763121337890626,9.762716293334961,0.4731806814670563,0.008973085321485996
1683139528421968000,11.7809677734375,9.719645500183105,0.4301098585128784,0.0849452018737793
1683139528439809300,11.798809326171876,9.767501831054688,0.43968117237091064,0.008973085321485996
1683139528457661000,11.816660888671874,9.781859397888184,0.381655216217041,-0.062213387340307236
1683139528475505000,11.8345048828125,9.743574142456055,0.46360939741134644,0.08075776696205139
1683139528493357600,11.852357666015624,9.78664493560791,0.46360939741134644,-0.02871387079358101
1683139528511201000,11.870200927734375,9.77707290649414,0.39601215720176697,0.018544375896453857
1683139528529047600,11.888047607421875,9.80100154876709,0.49232324957847595,0.023330021649599075
1683139528546894000,11.90589404296875,9.748359680175781,0.46360939741134644,0.0568295381963253
1683139528564740600,11.92374072265625,9.772287368774414,0.4301098585128784,0.004187439568340778
1683139528582575400,11.941575439453125,9.767501831054688,0.4007977843284607,0
1683139528600433400,11.959433349609375,9.719645500183105,0.4540380835533142,0.08015955984592438
1683139528618280400,11.977280517578125,9.77707290649414,0.4055834412574768,-0.062213387340307236
1683139528636123000,11.995122802734375,9.796216011047363,0.4205385744571686,0.03290131315588951
1683139528653964000,12.012964111328126,9.80100154876709,0.4875376224517822,0.004785645287483931
1683139528671819500,12.030819580078125,9.78664493560791,0.46839502453804016,0.028115665540099144
1683139528689665500,12.04866552734375,9.796216011047363,0.4247260093688965,-0.014356935396790504
1683139528707512600,12.0665126953125,9.805787086486816,0.4342973232269287,-0.019142581149935722
1683139528725358800,12.08435888671875,9.743574142456055,0.4731806814670563,0.06161518394947052
1683139528743205400,12.102205322265625,9.80100154876709,0.39122650027275085,-0.05742774158716202
1683139528761051600,12.1200517578125,9.77707290649414,0.4540380835533142,0.03768695518374443
1683139528778898400,12.1378984375,9.80100154876709,0.46360939741134644,0.004785645287483931
1683139528796744000,12.155743896484376,9.791430473327637,0.4588237404823303,0.04247260093688965
1683139528814589400,12.17358935546875,9.781859397888184,0.41994038224220276,-0.004785645287483931
1683139528832440800,12.19144091796875,9.77707290649414,0.47796630859375,-0.0005982056609354913
1683139528850282500,12.209282470703124,9.753145217895508,0.46839502453804016,0.03290131315588951
1683139528868132000,12.227132080078125,9.805787086486816,0.4247260093688965,-0.02392822690308094
1683139528885977000,12.24497705078125,9.757930755615234,0.5018945336341858,0.052043892443180084
1683139528903823400,12.2628232421875,9.753145217895508,0.43968117237091064,0.04247260093688965
1683139528921670100,12.280670166015625,9.77707290649414,0.44446679949760437,0.03768695518374443
1683139528939516200,12.29851611328125,9.80100154876709,0.4055834412574768,-0.02392822690308094
1683139528957362700,12.31636279296875,9.796216011047363,0.49232324957847595,0.018544375896453857
1683139528975209700,12.334209716796876,9.762716293334961,0.46360939741134644,0.018544375896453857
1683139528993056300,12.35205615234375,9.781859397888184,0.4103690981864929,-0.004785645287483931
1683139529010902800,12.36990283203125,9.744172096252441,0.511465847492218,0.03290131315588951
1683139529028747800,12.387747802734374,9.772287368774414,0.43968117237091064,0.047258246690034866
1683139529046596900,12.405596923828124,9.781859397888184,0.49232324957847595,0.052043892443180084
1683139529064441900,12.42344189453125,9.77707290649414,0.41515472531318665,-0.014356935396790504
1683139529082270200,12.441270263671875,9.762716293334961,0.49232324957847595,0.03290131315588951
1683139529100135200,12.45913525390625,9.781859397888184,0.4492524564266205,0.04247260093688965
1683139529117975300,12.476975341796875,9.757930755615234,0.41994038224220276,0.008973085321485996
1683139529135827500,12.494827392578125,9.739386558532715,0.5353940725326538,0.023330021649599075
1683139529153674000,12.512674072265625,9.738788604736328,0.41575294733047485,0.08973085135221481
1683139529171520800,12.530520751953125,9.738788604736328,0.4875376224517822,0.07058826833963394
1683139529189367300,12.5483671875,9.77707290649414,0.41515472531318665,-0.019142581149935722
1683139529207213800,12.5662138671875,9.77707290649414,0.47796630859375,0.06161518394947052
1683139529225060000,12.58406005859375,9.781859397888184,0.4630111753940582,-0.009571290574967861
1683139529242902800,12.60190283203125,9.753145217895508,0.4295116662979126,-0.005383851006627083
1683139529260753000,12.6197529296875,9.781859397888184,0.5353940725326538,0.06161518394947052
1683139529278598400,12.637598388671876,9.710074424743652,0.4301098585128784,0.09930214285850525
1683139529296444700,12.655444580078125,9.729815483093262,0.49232324957847595,0.03290131315588951
1683139529314292200,12.673292236328125,9.734002113342285,0.4103690981864929,0.03768695518374443
1683139529332142000,12.69114208984375,9.734002113342285,0.4492524564266205,0.0849452018737793
1683139529349982500,12.708982421875,9.772287368774414,0.44386860728263855,-0.005383851006627083
1683139529367834600,12.726834716796875,9.743574142456055,0.4342973232269287,0.028115665540099144
1683139529385678000,12.744677978515625,9.767501831054688,0.5497509837150574,0.07118647545576096
1683139529403524600,12.762524658203125,9.710074424743652,0.43968117237091064,0.10408778488636017
1683139529421371100,12.78037109375,9.734601020812988,0.4821537733078003,0.028115665540099144
1683139529439217400,12.798217529296876,9.724431037902832,0.41515472531318665,0.07058826833963394
1683139529457064000,12.81606396484375,9.753145217895508,0.46839502453804016,0.07118647545576096
1683139529474910700,12.83391064453125,9.77707290649414,0.39601215720176697,-0.07657032459974289
1683139529492753700,12.851753662109376,9.753145217895508,0.4295116662979126,0.028115665540099144
1683139529510589400,12.86958935546875,9.757930755615234,0.5018945336341858,0.052043892443180084
1683139529528440000,12.887440185546875,9.714859962463379,0.4103690981864929,0.052043892443180084
1683139529546297900,12.9052978515625,9.762716293334961,0.4875376224517822,0.018544375896453857
1683139529564142600,12.923142578125,9.705288887023926,0.4492524564266205,0.09930214285850525
1683139529581977300,12.940977294921876,9.719645500183105,0.4630111753940582,0.05144568532705307
1683139529599826000,12.958825927734376,9.762716293334961,0.381655216217041,-0.07178468257188797
1683139529617678600,12.9766787109375,9.767501831054688,0.4301098585128784,0.06161518394947052
1683139529635529000,12.994529052734375,9.781859397888184,0.49710890650749207,0.018544375896453857
1683139529653374700,13.012374755859375,9.748359680175781,0.4295116662979126,0.04247260093688965
1683139529671222000,13.030221923828124,9.77707290649414,0.4773681163787842,0.004187439568340778
1683139529689068000,13.048068115234376,9.705288887023926,0.4247260093688965,0.0849452018737793
1683139529706914600,13.06591455078125,9.738788604736328,0.43908295035362244,0.018544375896453857
1683139529724760800,13.0837607421875,9.767501831054688,0.381655216217041,-0.06699903309345245
1683139529742607400,13.101607421875,9.753145217895508,0.46360939741134644,0.07597211748361588
1683139529760453600,13.11945361328125,9.80100154876709,0.4821537733078003,-0.02871387079358101
1683139529778297900,13.1372978515625,9.781859397888184,0.4055834412574768,0.03290131315588951
1683139529796149200,13.155149169921875,9.80100154876709,0.4731806814670563,0.01375873014330864
1683139529813990400,13.172990478515626,9.738788604736328,0.4630111753940582,0.06161518394947052
1683139529831839700,13.19083984375,9.767501831054688,0.4342973232269287,0.004187439568340778
1683139529849689000,13.208689208984374,9.77707290649414,0.39122650027275085,-0.02392822690308094
1683139529867532300,13.2265322265625,9.738788604736328,0.46839502453804016,0.07537391036748886
1683139529885378600,13.244378662109375,9.767501831054688,0.41994038224220276,-0.04785645380616188
1683139529903224800,13.262224853515624,9.80100154876709,0.4253242313861847,0.028115665540099144
1683139529921071400,13.2800712890625,9.805787086486816,0.4827519655227661,0.018544375896453857
1683139529938918000,13.29791796875,9.791430473327637,0.4731806814670563,0.028115665540099144
1683139529956764400,13.315764404296875,9.78664493560791,0.4247260093688965,-0.014356935396790504
1683139529974611000,13.33361083984375,9.80100154876709,0.4342973232269287,-0.02392822690308094
1683139529992457700,13.351457763671876,9.753145217895508,0.4875376224517822,0.052043892443180084
1683139530010304000,13.369303955078125,9.805787086486816,0.4007977843284607,-0.04307080805301666
1683139530028150300,13.387150390625,9.78664493560791,0.43908295035362244,0.028115665540099144
1683139530045996800,13.404996826171875,9.80100154876709,0.4630111753940582,-0.004785645287483931
1683139530063840000,13.422840087890625,9.810572624206543,0.47796630859375,0.052043892443180084
1683139530081692000,13.44069189453125,9.772287368774414,0.4103690981864929,0.004187439568340778
1683139530099541500,13.45854150390625,9.78664493560791,0.46779683232307434,-0.019142581149935722
1683139530117380900,13.476380859375,9.748359680175781,0.49172505736351013,0.03290131315588951
1683139530135229000,13.49422900390625,9.820143699645996,0.4295116662979126,-0.014356935396790504
1683139530153075000,13.512074951171876,9.767501831054688,0.49232324957847595,0.03290131315588951
1683139530170921500,13.52992138671875,9.757930755615234,0.43908295035362244,0.047258246690034866
1683139530188768000,13.54776806640625,9.772287368774414,0.4630111753940582,0.03290131315588951
1683139530206614300,13.5656142578125,9.805787086486816,0.4055834412574768,-0.009571290574967861
1683139530224460800,13.583460693359376,9.81535816192627,0.47796630859375,0.004785645287483931
1683139530242307300,13.601307373046875,9.762716293334961,0.4773681163787842,0.023330021649599075
1683139530260153900,13.61915380859375,9.78664493560791,0.4103690981864929,0.01375873014330864
1683139530278000000,13.637000244140625,9.748957633972168,0.5108676552772522,0.028115665540099144
1683139530295846100,13.65484619140625,9.762716293334961,0.44386860728263855,0.03768695518374443
1683139530313693000,13.67269287109375,9.796216011047363,0.4875376224517822,0.047258246690034866
1683139530331539500,13.69053955078125,9.78664493560791,0.4295116662979126,-0.004785645287483931
1683139530349382700,13.708382568359376,9.757930755615234,0.49172505736351013,0.03290131315588951
1683139530367234800,13.72623486328125,9.757930755615234,0.4630111753940582,0.047258246690034866
1683139530385078500,13.74407861328125,9.767501831054688,0.41994038224220276,0.01375873014330864
1683139530402932500,13.761932373046875,9.744172096252441,0.5300102233886719,0.01375873014330864
1683139530420770800,13.779770751953125,9.762716293334961,0.4253242313861847,0.09990034252405167
1683139530438616300,13.7976162109375,9.734002113342285,0.47796630859375,0.07058826833963394
1683139530456465200,13.815465087890624,9.748359680175781,0.4055834412574768,-0.014955141581594944
1683139530474310700,13.833310546875,9.762716293334961,0.49232324957847595,0.0568295381963253
1683139530492157200,13.8511572265625,9.791430473327637,0.486939400434494,0.008973085321485996
1683139530510003500,13.86900341796875,9.757930755615234,0.4295116662979126,0.004187439568340778
1683139530527849700,13.886849609375,9.757930755615234,0.5401797294616699,0.0568295381963253
1683139530545696000,13.904696044921875,9.705288887023926,0.43908295035362244,0.12323036789894104
1683139530563542300,13.922542236328125,9.720243453979492,0.4821537733078003,0.05144568532705307
1683139530581388500,13.940388427734375,9.748359680175781,0.4007977843284607,0.004187439568340778
1683139530599231200,13.958231201171875,9.748359680175781,0.4582255482673645,0.08015955984592438
1683139530617069800,13.97606982421875,9.748359680175781,0.4486542344093323,0.01375873014330864
1683139530634928400,13.993928466796875,9.729216575622559,0.4295116662979126,0.028115665540099144
1683139530652763100,14.01176318359375,9.757930755615234,0.5401797294616699,0.06580262631177902
1683139530670621000,14.029620849609374,9.7005033493042,0.4342973232269287,0.1136590763926506
1683139530688466200,14.047466064453126,9.753145217895508,0.4773681163787842,0.018544375896453857
1683139530706314800,14.065314697265626,9.734002113342285,0.4007977843284607,0.028115665540099144
1683139530724160000,14.083159912109375,9.762716293334961,0.4540380835533142,0.09930214285850525
1683139530742006800,14.1010068359375,9.772287368774414,0.4342973232269287,-0.0526420995593071
1683139530759842600,14.118842529296876,9.738788604736328,0.4055834412574768,0.01375873014330864
1683139530777698800,14.13669873046875,9.767501831054688,0.5066801905632019,0.06161518394947052
1683139530795533800,14.154533935546874,9.714859962463379,0.4103690981864929,0.061016976833343506
1683139530813389300,14.172389404296876,9.772287368774414,0.46779683232307434,0.008973085321485996
1683139530831241200,14.1902412109375,9.705288887023926,0.4295116662979126,0.0849452018737793
1683139530849084400,14.20808447265625,9.743574142456055,0.4630111753940582,0.0568295381963253
1683139530866931000,14.225930908203125,9.758528709411621,0.38644084334373474,-0.08614161610603333
1683139530884777500,14.243777587890625,9.762716293334961,0.41515472531318665,0.052043892443180084
1683139530902623700,14.261623779296874,9.767501831054688,0.5156532526016235,0.03290131315588951
1683139530920466700,14.279466796875,9.719645500183105,0.41515472531318665,0.05144568532705307
1683139530938315300,14.297315185546875,9.781859397888184,0.47258245944976807,-0.0005982056609354913
1683139530956163600,14.31516357421875,9.710074424743652,0.4247260093688965,0.06580262631177902
1683139530974009300,14.33300927734375,9.748359680175781,0.43908295035362244,0.04247260093688965
1683139530991855900,14.35085595703125,9.781859397888184,0.36251261830329895,-0.08614161610603333
1683139531009702400,14.368702392578125,9.772287368774414,0.44386860728263855,0.06640082597732544
1683139531027548400,14.38654833984375,9.77707290649414,0.49172505736351013,-0.0005982056609354913
1683139531045395000,14.40439501953125,9.753145217895508,0.4055834412574768,0.03768695518374443
1683139531063241000,14.422240966796876,9.80100154876709,0.47258245944976807,-0.0005982056609354913
1683139531081075500,14.440075439453125,9.743574142456055,0.4534398913383484,0.08015955984592438
1683139531098933500,14.45793359375,9.762716293334961,0.4486542344093323,0.023330021649599075
1683139531116770300,14.475770263671874,9.772287368774414,0.38644084334373474,-0.062213387340307236
1683139531134614300,14.4936142578125,9.762716293334961,0.47258245944976807,0.08075776696205139
1683139531152470800,14.511470703125,9.781859397888184,0.4582255482673645,-0.04307080805301666
1683139531170319600,14.529319580078125,9.781859397888184,0.4103690981864929,0.03768695518374443
1683139531188165600,14.54716552734375,9.80100154876709,0.4773681163787842,0.008973085321485996
1683139531206012200,14.56501220703125,9.767501831054688,0.4773681163787842,0.03768695518374443
1683139531223858400,14.5828583984375,9.796216011047363,0.4342973232269287,0
1683139531241705000,14.600705078125,9.781859397888184,0.4055834412574768,-0.02871387079358101
1683139531259551200,14.61855126953125,9.734002113342285,0.486939400434494,0.06580262631177902
1683139531277397500,14.6363974609375,9.791430473327637,0.4295116662979126,-0.04307080805301666
1683139531295244000,14.654244140625,9.820143699645996,0.4247260093688965,0.02871387079358101
1683139531313090600,14.672090576171875,9.791430473327637,0.486939400434494,0.023330021649599075
1683139531330936600,14.6899365234375,9.791430473327637,0.4773681163787842,0.03768695518374443
1683139531348779500,14.707779541015626,9.762716293334961,0.4247260093688965,-0.0005982056609354913
1683139531366632000,14.7256318359375,9.824930191040039,0.4295116662979126,-0.038285162299871445
1683139531384475400,14.743475341796875,9.753145217895508,0.486939400434494,0.06161518394947052
1683139531402322000,14.761322021484375,9.791430473327637,0.4103690981864929,-0.02392822690308094
1683139531420168200,14.779168212890625,9.762716293334961,0.4582255482673645,0.03290131315588951
1683139531438014200,14.79701416015625,9.781859397888184,0.4630111753940582,-0.005383851006627083
1683139531455861000,14.814861083984376,9.834501266479492,0.4773681163787842,0.03349951654672623
1683139531473707500,14.83270751953125,9.791430473327637,0.4055834412574768,-0.014356935396790504
1683139531491553800,14.8505537109375,9.805787086486816,0.47258245944976807,-0.009571290574967861
1683139531509400300,14.868400390625,9.757930755615234,0.49172505736351013,0.023330021649599075
1683139531527246300,14.886246337890626,9.80100154876709,0.4295116662979126,0
1683139531545092900,14.9040927734375,9.772287368774414,0.49172505736351013,0.04247260093688965
1683139531562938600,14.921938720703125,9.757930755615234,0.44386860728263855,0.028115665540099144
1683139531580776700,14.939776611328124,9.791430473327637,0.4630111753940582,0.04247260093688965
1683139531598620000,14.957619873046875,9.796216011047363,0.4103690981864929,-0.009571290574967861
1683139531616477700,14.975477783203125,9.781859397888184,0.486939400434494,0.023330021649599075
1683139531634324200,14.99332421875,9.748359680175781,0.4821537733078003,0.03290131315588951
1683139531652159000,15.011158935546876,9.772287368774414,0.41515472531318665,0.01375873014330864
1683139531670017300,15.029017333984376,9.748957633972168,0.5156532526016235,0.018544375896453857
1683139531687863600,15.046863525390625,9.767501831054688,0.4342973232269287,0.04247260093688965
1683139531705710000,15.0647099609375,9.78664493560791,0.49172505736351013,0.052043892443180084
1683139531723556400,15.082556396484375,9.796216011047363,0.41515472531318665,-0.02871387079358101
1683139531741402600,15.100402587890626,9.781859397888184,0.49651068449020386,0.028115665540099144
1683139531759249000,15.118248779296875,9.78664493560791,0.4773681163787842,0.04247260093688965
1683139531777095400,15.136095458984375,9.753145217895508,0.41994038224220276,0.008973085321485996
1683139531794941400,15.15394140625,9.720243453979492,0.5395814776420593,0.037088751792907715
1683139531812784400,15.171784423828125,9.743574142456055,0.4247260093688965,0.10887342691421509
1683139531830634200,15.18963427734375,9.729216575622559,0.4773681163787842,0.0849452018737793
1683139531848479500,15.2074794921875,9.77707290649414,0.41994038224220276,-0.014955141581594944
1683139531866327800,15.225327880859375,9.77707290649414,0.4821537733078003,0.0568295381963253
1683139531884173000,15.243173095703124,9.77707290649414,0.49172505736351013,0.01375873014330864
1683139531902019000,15.26101904296875,9.748359680175781,0.4247260093688965,0.01375873014330864
1683139531919855000,15.278855224609375,9.744172096252441,0.5395814776420593,0.04666004329919815
1683139531937711900,15.2967119140625,9.719645500183105,0.4295116662979126,0.11844471842050552
1683139531955558100,15.31455810546875,9.753145217895508,0.47258245944976807,0.023330021649599075
1683139531973400000,15.332400146484375,9.762716293334961,0.39122650027275085,-0.014955141581594944
1683139531991248100,15.350248046875,9.762716293334961,0.4534398913383484,0.07118647545576096
1683139532009100500,15.3681005859375,9.757930755615234,0.4630111753940582,0.008973085321485996
1683139532026943700,15.38594384765625,9.743574142456055,0.4103690981864929,0.008973085321485996
1683139532044790000,15.4037900390625,9.767501831054688,0.5545366406440735,0.07537391036748886
1683139532062636000,15.421635986328125,9.7005033493042,0.44386860728263855,0.12323036789894104
1683139532080482600,15.439482666015625,9.739386558532715,0.4773681163787842,0.028115665540099144
1683139532098327800,15.457327880859374,9.719645500183105,0.41515472531318665,0.03768695518374443
1683139532116164000,15.4751640625,9.729216575622559,0.4630111753940582,0.09451649338006973
1683139532134011400,15.493011474609375,9.767501831054688,0.4295116662979126,-0.04785645380616188
1683139532151855900,15.51085595703125,9.748359680175781,0.41994038224220276,0.03290131315588951
1683139532169714200,15.528714111328124,9.762716293334961,0.50129634141922,0.0568295381963253
1683139532187560700,15.546560791015626,9.710074424743652,0.4055834412574768,0.061016976833343506
1683139532205407000,15.564406982421875,9.772287368774414,0.4773681163787842,-0.0005982056609354913
1683139532223253000,15.5822529296875,9.734002113342285,0.4295116662979126,0.06580262631177902
1683139532241099500,15.600099609375,9.729216575622559,0.4630111753940582,0.08015955984592438
1683139532258945300,15.6179453125,9.77707290649414,0.39122650027275085,-0.08135596662759781
1683139532276792300,15.635792236328125,9.757930755615234,0.4103690981864929,0.04247260093688965
1683139532294638300,15.653638427734375,9.77707290649414,0.5204389095306396,0.052043892443180084
1683139532312484600,15.671484619140625,9.738788604736328,0.43908295035362244,0.052043892443180084
1683139532330331000,15.689330810546876,9.77707290649414,0.4582255482673645,-0.005383851006627083
1683139532348177400,15.707177490234375,9.753145217895508,0.4247260093688965,0.07118647545576096
1683139532366024000,15.72502392578125,9.734002113342285,0.4342973232269287,0.04247260093688965
1683139532383869400,15.742869384765624,9.757930755615234,0.3720839321613312,-0.06699903309345245
1683139532401716000,15.760716064453124,9.762716293334961,0.4486542344093323,0.06640082597732544
1683139532419562000,15.77856201171875,9.772287368774414,0.486939400434494,0.004187439568340778
1683139532437408500,15.796408447265625,9.77707290649414,0.4007977843284607,0.03768695518374443
1683139532455254800,15.8142548828125,9.791430473327637,0.4630111753940582,-0.005383851006627083
1683139532473101600,15.8321015625,9.748359680175781,0.4582255482673645,0.0568295381963253
1683139532490944800,15.84994482421875,9.77707290649414,0.44386860728263855,0.008973085321485996
1683139532508797000,15.867796875,9.78664493560791,0.38644084334373474,-0.05742774158716202
1683139532526640400,15.885640380859375,9.772287368774414,0.47258245944976807,0.07597211748361588
1683139532544486400,15.903486328125,9.781859397888184,0.44386860728263855,-0.04785645380616188
1683139532562332400,15.92133251953125,9.791430473327637,0.41515472531318665,0.047258246690034866
1683139532580178700,15.9391787109375,9.791430473327637,0.47258245944976807,0.023330021649599075
1683139532598025000,15.95702490234375,9.757930755615234,0.46779683232307434,0.03290131315588951
1683139532615871000,15.97487109375,9.772287368774414,0.4247260093688965,0.008973085321485996
1683139532633717800,15.9927177734375,9.796216011047363,0.41515472531318665,-0.04307080805301666
1683139532651552300,16.01055224609375,9.748359680175781,0.49172505736351013,0.05623133108019829
1683139532669410800,16.028410888671875,9.791430473327637,0.4103690981864929,-0.02392822690308094
1683139532687256800,16.0462568359375,9.80100154876709,0.4295116662979126,0.028115665540099144
1683139532705088500,16.064088623046874,9.80100154876709,0.47258245944976807,-0.0005982056609354913
1683139532722952000,16.081951904296876,9.810572624206543,0.4773681163787842,0.03768695518374443
1683139532740795600,16.099795654296877,9.772287368774414,0.41515472531318665,-0.010169495828449726
1683139532758642000,16.117641845703126,9.824930191040039,0.4342973232269287,-0.03349951654672623
1683139532776488000,16.135488037109376,9.762716293334961,0.49651068449020386,0.03768695518374443
1683139532794329000,16.1533291015625,9.820143699645996,0.41994038224220276,-0.02392822690308094
1683139532812180700,16.1711806640625,9.78664493560791,0.4821537733078003,0.03290131315588951
1683139532830027300,16.18902734375,9.77707290649414,0.4630111753940582,0.028115665540099144
1683139532847873300,16.206873291015626,9.78664493560791,0.47258245944976807,0.052043892443180084
1683139532865719600,16.224719482421875,9.78664493560791,0.4103690981864929,-0.005383851006627083
1683139532883565800,16.24256591796875,9.805787086486816,0.47258245944976807,0.004187439568340778
1683139532901412000,16.260412109375,9.767501831054688,0.49172505736351013,0.028115665540099144
1683139532919257900,16.2782578125,9.80100154876709,0.41994038224220276,0.028115665540099144
1683139532937104400,16.2961044921875,9.757930755615234,0.5060819983482361,0.03290131315588951
1683139532954950700,16.31395068359375,9.772287368774414,0.4486542344093323,0.03768695518374443
1683139532972790800,16.331790771484375,9.772287368774414,0.4773681163787842,0.06161518394947052
1683139532990645800,16.349645751953126,9.791430473327637,0.4247260093688965,-0.019142581149935722
1683139533008489500,16.367489501953123,9.77707290649414,0.50129634141922,0.01375873014330864
1683139533026336000,16.3853359375,9.757930755615234,0.486939400434494,0.052043892443180084
1683139533044182300,16.403182373046874,9.767501831054688,0.41515472531318665,0.03290131315588951
1683139533062028000,16.421028076171876,9.748957633972168,0.5252245664596558,0.01375873014330864
1683139533079862800,16.43886279296875,9.762716293334961,0.4342973232269287,0.08075776696205139
1683139533097720600,16.456720458984375,9.772287368774414,0.4773681163787842,0.052043892443180084
1683139533115566800,16.47456689453125,9.796216011047363,0.41994038224220276,-0.019142581149935722
1683139533133415200,16.492415283203126,9.767501831054688,0.4821537733078003,0.06161518394947052
1683139533151259400,16.51025927734375,9.753145217895508,0.486939400434494,0.061016976833343506
1683139533169106200,16.528106201171877,9.738788604736328,0.41994038224220276,0.01375873014330864
1683139533186952200,16.5459521484375,9.739386558532715,0.534795880317688,0.04187439754605293
1683139533204798500,16.563798583984376,9.738788604736328,0.4295116662979126,0.10887342691421509
1683139533222644500,16.58164453125,9.757930755615234,0.49172505736351013,0.06580262631177902
1683139533240490800,16.59949072265625,9.748359680175781,0.38644084334373474,-0.03409772366285324
1683139533258336300,16.617336181640624,9.767501831054688,0.46779683232307434,0.07597211748361588
1683139533276184300,16.635184326171874,9.796216011047363,0.4773681163787842,0.008973085321485996
1683139533294029800,16.65302978515625,9.738788604736328,0.41994038224220276,0.023330021649599075
1683139533311876000,16.6708759765625,9.77707290649414,0.5300102233886719,0.04247260093688965
1683139533329722400,16.688722412109374,9.705288887023926,0.4247260093688965,0.09930214285850525
1683139533347568400,16.706568359375,9.757930755615234,0.486939400434494,0.03768695518374443
1683139533365414700,16.72441455078125,9.748359680175781,0.4007977843284607,-0.005383851006627083
1683139533383256000,16.742256103515626,9.729216575622559,0.4534398913383484,0.0849452018737793
1683139533401107000,16.76010693359375,9.748957633972168,0.44386860728263855,-0.010169495828449726
1683139533418953200,16.777953125,9.738788604736328,0.4103690981864929,0.008973085321485996
1683139533436799000,16.795799072265623,9.810572624206543,0.534795880317688,0.06161518394947052
1683139533454645800,16.813645751953125,9.686145782470703,0.43908295035362244,0.1136590763926506
1683139533472491000,16.831490966796874,9.757930755615234,0.4630111753940582,0.004187439568340778
1683139533490339300,16.84933935546875,9.734002113342285,0.4055834412574768,0.028115665540099144
1683139533508181500,16.867181396484376,9.77707290649414,0.4630111753940582,0.06640082597732544
1683139533526034000,16.885033935546875,9.796216011047363,0.41994038224220276,-0.06699903309345245
1683139533543876900,16.902876953125,9.757930755615234,0.41994038224220276,0.01375873014330864
1683139533561723400,16.920723388671874,9.757930755615234,0.5204389095306396,0.061016976833343506
1683139533579569200,16.938569091796875,9.705288887023926,0.4055834412574768,0.05623133108019829
1683139533597415400,16.95641552734375,9.80100154876709,0.4773681163787842,-0.010169495828449726
1683139533615261400,16.974261474609374,9.734002113342285,0.4247260093688965,0.05623133108019829
1683139533633108000,16.99210791015625,9.772287368774414,0.4582255482673645,0.06640082597732544
1683139533650943000,17.00994287109375,9.758528709411621,0.39122650027275085,-0.08614161610603333
1683139533668800500,17.027800537109375,9.781859397888184,0.4295116662979126,0.04247260093688965
1683139533686646800,17.045646728515624,9.805787086486816,0.5156532526016235,0.018544375896453857
1683139533704493000,17.0634931640625,9.767501831054688,0.4247260093688965,0.0568295381963253
1683139533722339000,17.081339111328123,9.796216011047363,0.4534398913383484,-0.0005982056609354913
1683139533740185600,17.099185546875,9.729216575622559,0.44386860728263855,0.07058826833963394
1683139533758032000,17.117031982421874,9.757930755615234,0.4486542344093323,0.03290131315588951
1683139533775877400,17.13487744140625,9.805787086486816,0.3768695592880249,-0.09092725813388824
1683139533793724200,17.15272412109375,9.791430473327637,0.4582255482673645,0.06640082597732544
1683139533811570400,17.1705703125,9.791430473327637,0.49172505736351013,-0.0005982056609354913
1683139533829416400,17.18841650390625,9.772287368774414,0.41994038224220276,0.047258246690034866
1683139533847262700,17.2062626953125,9.77707290649414,0.47258245944976807,0.018544375896453857
1683139533865109000,17.22410888671875,9.753145217895508,0.47258245944976807,0.047258246690034866
1683139533882955300,17.241955322265625,9.762716293334961,0.4342973232269287,0.008973085321485996
1683139533900798500,17.259798583984374,9.796216011047363,0.38644084334373474,-0.02392822690308094
1683139533918650400,17.277650390625,9.748359680175781,0.47258245944976807,0.07537391036748886
1683139533936493800,17.295493896484373,9.78664493560791,0.43908295035362244,-0.03349951654672623
1683139533954339800,17.31333984375,9.820143699645996,0.4247260093688965,0.03290131315588951
1683139533972182800,17.331182861328124,9.796216011047363,0.46779683232307434,0.01375873014330864
1683139533990036000,17.349035888671875,9.80100154876709,0.49172505736351013,0.03768695518374443
1683139534007878400,17.36687841796875,9.78664493560791,0.4295116662979126,0.004187439568340778
1683139534025724700,17.384724609375,9.791430473327637,0.4295116662979126,-0.03349951654672623
1683139534043571000,17.402571044921874,9.767501831054688,0.49172505736351013,0.0568295381963253
1683139534061417000,17.4204169921875,9.810572624206543,0.4103690981864929,-0.02392822690308094
1683139534079263000,17.438262939453125,9.781859397888184,0.43908295035362244,0.03768695518374443
1683139534097109800,17.45610986328125,9.78664493560791,0.44386860728263855,0.008973085321485996
1683139534114955500,17.47395556640625,9.78664493560791,0.5108676552772522,0.04247260093688965
1683139534132798200,17.491798095703125,9.78664493560791,0.41515472531318665,0.01375873014330864
1683139534150647800,17.509647705078127,9.77707290649414,0.46779683232307434,0.004187439568340778
1683139534168494600,17.52749462890625,9.757930755615234,0.49651068449020386,0.028115665540099144
1683139534186340600,17.545340576171874,9.791430473327637,0.4342973232269287,0.01375873014330864
1683139534204187000,17.563186767578124,9.796216011047363,0.486939400434494,0.03290131315588951
1683139534222033200,17.581033203125,9.762716293334961,0.44386860728263855,0.03290131315588951
1683139534239863600,17.598863525390627,9.781859397888184,0.4630111753940582,0.0568295381963253
1683139534257725000,17.616724853515624,9.80100154876709,0.4055834412574768,-0.014356935396790504
1683139534275571700,17.63457177734375,9.78664493560791,0.4821537733078003,0.008973085321485996
1683139534293417700,17.652417724609375,9.767501831054688,0.49651068449020386,0.03768695518374443
1683139534311264000,17.670263916015625,9.772287368774414,0.4055834412574768,0.03768695518374443
1683139534329110000,17.688110107421874,9.762716293334961,0.49651068449020386,0.03768695518374443
1683139534346956300,17.705956298828124,9.762716293334961,0.4342973232269287,0.03290131315588951
1683139534364802600,17.723802490234377,9.80100154876709,0.4821537733078003,0.06161518394947052
1683139534382648800,17.74164892578125,9.772287368774414,0.4103690981864929,-0.019740786403417587
1683139534400494300,17.759494384765624,9.762716293334961,0.47258245944976807,0.023330021649599075
1683139534418339600,17.777339599609373,9.77707290649414,0.486939400434494,0.06161518394947052
1683139534436188400,17.7951884765625,9.734002113342285,0.4055834412574768,0.01375873014330864
1683139534454033000,17.813032958984376,9.767501831054688,0.5204389095306396,0.018544375896453857
1683139534471877000,17.830877197265625,9.738788604736328,0.4055834412574768,0.08973085135221481
1683139534489728000,17.84872802734375,9.757930755615234,0.47258245944976807,0.09451649338006973
1683139534507572700,17.86657275390625,9.762716293334961,0.4007977843284607,-0.0526420995593071
1683139534525417200,17.884417236328126,9.767501831054688,0.47258245944976807,0.052043892443180084
1683139534543264300,17.90226416015625,9.805787086486816,0.4773681163787842,0.023330021649599075
1683139534561110500,17.920110595703125,9.738788604736328,0.41994038224220276,0.018544375896453857
1683139534578956000,17.9379560546875,9.767501831054688,0.5300102233886719,0.05623133108019829
1683139534596802800,17.955802734375,9.710074424743652,0.43908295035362244,0.11844471842050552
1683139534614648300,17.9736484375,9.738788604736328,0.47258245944976807,0.04187439754605293
1683139534632494600,17.99149462890625,9.757930755615234,0.39122650027275085,-0.019740786403417587
1683139534650340900,18.0093408203125,9.734002113342285,0.4582255482673645,0.061016976833343506
1683139534668187400,18.0271875,9.791430473327637,0.46779683232307434,0.01375873014330864
1683139534686033400,18.045033447265624,9.734002113342285,0.41994038224220276,0.01375873014330864
1683139534703879700,18.062879638671873,9.796216011047363,0.5587241053581238,0.06161518394947052
1683139534721725700,18.0807255859375,9.7005033493042,0.4486542344093323,0.12741780281066895
1683139534739572000,18.098572021484376,9.757930755615234,0.4630111753940582,0.018544375896453857
1683139534757406000,18.116406005859375,9.743574142456055,0.38644084334373474,0.018544375896453857
1683139534775264000,18.134263916015627,9.762716293334961,0.4582255482673645,0.08973085135221481
1683139534793106000,18.15210595703125,9.796216011047363,0.4342973232269287,-0.0526420995593071
1683139534810956500,18.16995654296875,9.753145217895508,0.4103690981864929,0.018544375896453857
1683139534828802800,18.187802734375,9.772287368774414,0.5060819983482361,0.0568295381963253
1683139534846648800,18.20564892578125,9.701101303100586,0.41994038224220276,0.061016976833343506
1683139534864495000,18.2234951171875,9.767501831054688,0.46779683232307434,-0.0005982056609354913
1683139534882341000,18.241341064453124,9.734002113342285,0.4342973232269287,0.05144568532705307
1683139534900187400,18.2591875,9.719645500183105,0.4630111753940582,0.07537391036748886
1683139534918033400,18.277033447265627,9.77707290649414,0.39541393518447876,-0.07178468257188797
1683139534935879400,18.29487939453125,9.772287368774414,0.4007977843284607,0.047258246690034866
1683139534953725400,18.312725341796874,9.791430473327637,0.5204389095306396,0.04247260093688965
1683139534971569200,18.330569091796875,9.734002113342285,0.43908295035362244,0.061016976833343506
1683139534989421000,18.348421142578125,9.781859397888184,0.43908295035362244,-0.010169495828449726
1683139535007263500,18.366263427734374,9.738788604736328,0.4247260093688965,0.07058826833963394
1683139535025111300,18.384111328125,9.767501831054688,0.4486542344093323,0.04247260093688965
1683139535042953200,18.401953125,9.781859397888184,0.3810569941997528,-0.08135596662759781
1683139535060805400,18.419805419921875,9.77707290649414,0.4582255482673645,0.07118647545576096
1683139535078648300,18.4376484375,9.791430473327637,0.49651068449020386,0.004187439568340778
1683139535096494800,18.455494873046874,9.781859397888184,0.41994038224220276,0.03768695518374443
1683139535114340900,18.4733408203125,9.796216011047363,0.4582255482673645,-0.010169495828449726
1683139535132187000,18.491186767578125,9.772287368774414,0.4630111753940582,0.03768695518374443
1683139535150033000,18.509032958984374,9.767501831054688,0.43908295035362244,0.018544375896453857
1683139535167879400,18.52687939453125,9.791430473327637,0.39601215720176697,-0.038285162299871445
1683139535185725200,18.54472509765625,9.743574142456055,0.47258245944976807,0.07537391036748886
1683139535203572000,18.562572021484375,9.753743171691895,0.4534398913383484,-0.029312077909708023
1683139535221417700,18.580417724609376,9.81535816192627,0.41994038224220276,0.04247260093688965
1683139535239264000,18.598263916015625,9.791430473327637,0.4534398913383484,0.004187439568340778
1683139535257109800,18.61610986328125,9.80100154876709,0.49172505736351013,0.03290131315588951
1683139535274952000,18.633951904296875,9.805787086486816,0.44386860728263855,-0.0005982056609354913
1683139535292799000,18.651799072265625,9.791430473327637,0.41994038224220276,-0.024526432156562805
1683139535310648300,18.6696484375,9.762716293334961,0.49651068449020386,0.07058826833963394
1683139535328494600,18.68749462890625,9.796216011047363,0.41515472531318665,-0.02392822690308094
1683139535346340600,18.705340576171874,9.791430473327637,0.4295116662979126,0.028115665540099144
1683139535364187000,18.723186767578124,9.796216011047363,0.4486542344093323,-0.014955141581594944
1683139535382033000,18.741032958984373,9.80100154876709,0.49651068449020386,0.052043892443180084
1683139535399862800,18.75886279296875,9.781859397888184,0.41994038224220276,-0.0005982056609354913
1683139535417725000,18.776724853515624,9.78664493560791,0.43908295035362244,-0.010169495828449726
1683139535435571200,18.7945712890625,9.753145217895508,0.49172505736351013,0.03290131315588951
1683139535453417500,18.81241748046875,9.80100154876709,0.4342973232269287,0.008973085321485996
1683139535471260700,18.8302607421875,9.781859397888184,0.49172505736351013,0.04247260093688965
1683139535489112600,18.848112548828126,9.767501831054688,0.4582255482673645,0.03290131315588951
1683139535506952700,18.86595263671875,9.781859397888184,0.4821537733078003,0.0568295381963253
1683139535524805000,18.88380517578125,9.791430473327637,0.4007977843284607,-0.005383851006627083
1683139535542647800,18.901647705078126,9.805787086486816,0.46779683232307434,-0.014955141581594944
1683139535560494000,18.919494140625,9.762716293334961,0.50129634141922,0.03768695518374443
1683139535578338800,18.9373388671875,9.791430473327637,0.4055834412574768,0.03768695518374443
1683139535596187400,18.9551875,9.734601020812988,0.5108676552772522,0.037088751792907715
1683139535614020000,18.97302001953125,9.767501831054688,0.4342973232269287,0.028115665540099144
1683139535631878100,18.990878173828126,9.781859397888184,0.4821537733078003,0.06161518394947052
1683139535649724400,19.008724365234375,9.796216011047363,0.41994038224220276,-0.02392822690308094
1683139535667570700,19.02657080078125,9.78664493560791,0.486939400434494,0.01375873014330864
1683139535685416700,19.044416748046874,9.77707290649414,0.486939400434494,0.0568295381963253
1683139535703263000,19.062262939453124,9.757930755615234,0.4055834412574768,0.028115665540099144
1683139535721108700,19.080108642578125,9.739386558532715,0.5252245664596558,0.02273181453347206
1683139535738955000,19.097955078125,9.762716293334961,0.4247260093688965,0.09451649338006973
1683139535756801300,19.11580126953125,9.753145217895508,0.47258245944976807,0.0849452018737793
1683139535774646800,19.133646728515625,9.767501831054688,0.4097708761692047,-0.04366901144385338
1683139535792493300,19.151493408203127,9.781859397888184,0.486939400434494,0.052043892443180084
1683139535810341000,19.169341064453125,9.791430473327637,0.49651068449020386,0.008973085321485996
1683139535828185600,19.187185546875,9.772287368774414,0.41515472531318665,0.023330021649599075
1683139535846031600,19.205031494140623,9.762716293334961,0.5395814776420593,0.04187439754605293
1683139535863878000,19.2228779296875,9.714859962463379,0.43908295035362244,0.10887342691421509
1683139535881709800,19.240709716796875,9.734002113342285,0.47258245944976807,0.061016976833343506
1683139535899572200,19.258572265625,9.757930755615234,0.4001995921134949,-0.029312077909708023
1683139535917416000,19.276416015625,9.748359680175781,0.44386860728263855,0.061016976833343506
1683139535935262200,19.29426220703125,9.772287368774414,0.47258245944976807,0.03768695518374443
1683139535953108000,19.31210791015625,9.720243453979492,0.4145565330982208,0.01375873014330864
1683139535970954200,19.329954345703126,9.796216011047363,0.5491527915000916,0.06161518394947052
1683139535988800500,19.347800537109375,9.705288887023926,0.44386860728263855,0.12741780281066895
1683139536006648000,19.36564794921875,9.744172096252441,0.46779683232307434,0.023330021649599075
1683139536024491000,19.383490966796874,9.753145217895508,0.39541393518447876,-0.0005982056609354913
1683139536042338300,19.40133837890625,9.762716293334961,0.46779683232307434,0.08973085135221481
1683139536060184600,19.4191845703125,9.805787086486816,0.4486542344093323,-0.04785645380616188
1683139536078030300,19.4370302734375,9.762716293334961,0.41515472531318665,0.028115665540099144
1683139536095865000,19.454864990234373,9.77707290649414,0.50129634141922,0.052043892443180084
1683139536113722600,19.47272265625,9.710074424743652,0.41515472531318665,0.07537391036748886
1683139536131568600,19.490568603515626,9.791430473327637,0.4582255482673645,0.004187439568340778
1683139536149414700,19.50841455078125,9.738788604736328,0.41994038224220276,0.04187439754605293
1683139536167261200,19.52626123046875,9.738788604736328,0.4630111753940582,0.08015955984592438
1683139536185107200,19.544107177734375,9.777671813964844,0.4145565330982208,-0.08614161610603333
1683139536202948600,19.561948486328124,9.78664493560791,0.39601215720176697,0.04247260093688965
1683139536220799500,19.579799560546874,9.796216011047363,0.5108676552772522,0.047258246690034866
1683139536238645200,19.597645263671875,9.729216575622559,0.43908295035362244,0.07058826833963394
1683139536256491000,19.615490966796877,9.796216011047363,0.44386860728263855,-0.010169495828449726
1683139536274337000,19.6333369140625,9.743574142456055,0.4295116662979126,0.05623133108019829
1683139536292183600,19.65118359375,9.757930755615234,0.4486542344093323,0.061016976833343506
1683139536310029000,19.669029052734373,9.791430473327637,0.3762713670730591,-0.08614161610603333
1683139536327875800,19.686875732421875,9.77707290649414,0.44386860728263855,0.06640082597732544
1683139536345727000,19.70472705078125,9.781859397888184,0.49172505736351013,0.023330021649599075
1683139536363568000,19.722568115234374,9.772287368774414,0.4247260093688965,0.03290131315588951
1683139536381413600,19.74041357421875,9.80100154876709,0.44386860728263855,0.008973085321485996
1683139536399259600,19.758259765625,9.77707290649414,0.4630111753940582,0.047258246690034866
1683139536417105400,19.77610546875,9.762716293334961,0.43908295035362244,0.028115665540099144
1683139536434952000,19.793951904296875,9.810572624206543,0.3810569941997528,-0.0526420995593071
1683139536452794600,19.811794677734376,9.753145217895508,0.4630111753940582,0.07058826833963394
1683139536470642700,19.829642578125,9.781859397888184,0.4630111753940582,-0.019740786403417587
1683139536488489700,19.84748974609375,9.810572624206543,0.41515472531318665,0.03290131315588951
1683139536506335000,19.8653349609375,9.80100154876709,0.44386860728263855,0.008973085321485996
1683139536524185000,19.88318505859375,9.796216011047363,0.486939400434494,0.03768695518374443
1683139536542027500,19.901027587890624,9.78664493560791,0.4342973232269287,-0.0005982056609354913
1683139536559863800,19.91886376953125,9.839286804199219,0.4103690981864929,-0.04785645380616188
1683139536577719800,19.9367197265625,9.762716293334961,0.49651068449020386,0.061016976833343506
1683139536595554600,19.954554443359374,9.791430473327637,0.41934216022491455,-0.019740786403417587
1683139536613411800,19.972411865234374,9.80100154876709,0.4486542344093323,0.018544375896453857
1683139536631257900,19.9902578125,9.824930191040039,0.4582255482673645,-0.009571290574967861
1683139536649104100,20.008104248046877,9.80100154876709,0.49651068449020386,0.04247260093688965
1683139536666950400,20.025950439453126,9.781859397888184,0.4295116662979126,0.028115665540099144
1683139536684796700,20.043796630859376,9.80100154876709,0.4342973232269287,-0.014955141581594944
1683139536702642400,20.061642333984373,9.753145217895508,0.49651068449020386,0.04666004329919815
1683139536720488200,20.07948828125,9.824930191040039,0.4247260093688965,0.023330021649599075
1683139536738333400,20.09733349609375,9.781859397888184,0.4821537733078003,0.03290131315588951
1683139536756181800,20.115181640625,9.791430473327637,0.4534398913383484,0.018544375896453857
1683139536774012700,20.1330126953125,9.80100154876709,0.4821537733078003,0.04247260093688965
1683139536791872800,20.150872802734376,9.81535816192627,0.4049852192401886,-0.009571290574967861
1683139536809706500,20.16870654296875,9.810572624206543,0.4486542344093323,-0.014955141581594944
1683139536827564800,20.186564697265624,9.762716293334961,0.5108676552772522,0.028115665540099144
1683139536845399000,20.20439892578125,9.791430473327637,0.41994038224220276,0.052043892443180084
1683139536863256800,20.2222568359375,9.725028991699219,0.50129634141922,0.04187439754605293
1683139536881102600,20.2401025390625,9.757930755615234,0.4342973232269287,0.04247260093688965
1683139536898947600,20.257947509765625,9.77707290649414,0.4773681163787842,0.06580262631177902
1683139536916796000,20.2757958984375,9.781859397888184,0.4336991012096405,-0.010169495828449726
1683139536934640600,20.293640625,9.78664493560791,0.4821537733078003,0.018544375896453857
1683139536952487000,20.31148681640625,9.762716293334961,0.49651068449020386,0.05144568532705307
1683139536970333200,20.329333251953123,9.757930755615234,0.4145565330982208,0.03768695518374443
1683139536988179000,20.347178955078125,9.753743171691895,0.5300102233886719,0.008973085321485996
1683139537006025000,20.36502490234375,9.762716293334961,0.4247260093688965,0.08015955984592438
1683139537023868000,20.382867919921875,9.762716293334961,0.47258245944976807,0.08973085135221481
1683139537041717000,20.400717041015625,9.772287368774414,0.4145565330982208,-0.03888336941599846
1683139537059565600,20.418565673828127,9.762716293334961,0.4582255482673645,0.04247260093688965
1683139537077408500,20.436408447265624,9.791430473327637,0.5060819983482361,0.04247260093688965
1683139537095255000,20.454255126953125,9.743574142456055,0.42412781715393066,0.018544375896453857
1683139537113100500,20.4721005859375,9.757930755615234,0.5204389095306396,0.061016976833343506
1683139537130946600,20.489946533203124,9.714859962463379,0.43908295035362244,0.1136590763926506
1683139537148792800,20.507792724609374,9.738788604736328,0.4821537733078003,0.07058826833963394
1683139537166639000,20.52563916015625,9.762716293334961,0.4001995921134949,-0.019740786403417587
1683139537184484900,20.54348486328125,9.753145217895508,0.4773681163787842,0.06580262631177902
1683139537202331000,20.561330810546874,9.781859397888184,0.486939400434494,0.047258246690034866
1683139537220177000,20.579177001953123,9.715457916259766,0.4145565330982208,0.017946170642971992
1683139537238023000,20.59702294921875,9.767501831054688,0.5300102233886719,0.05144568532705307
1683139537255857000,20.61485693359375,9.714859962463379,0.4295116662979126,0.11844471842050552
1683139537273698600,20.632698486328124,9.748359680175781,0.4624129831790924,0.023330021649599075
1683139537291561200,20.650561279296873,9.772287368774414,0.39062830805778503,-0.014955141581594944
1683139537309392000,20.668391845703123,9.748359680175781,0.46779683232307434,0.09930214285850525
1683139537327253000,20.6862529296875,9.772287368774414,0.46719861030578613,-0.005383851006627083
1683139537345098500,20.704098388671873,9.720243453979492,0.4049852192401886,0.008374879136681557
1683139537362945000,20.721945068359375,9.80100154876709,0.5300102233886719,0.0568295381963253
1683139537380791000,20.739791015625,9.705288887023926,0.42412781715393066,0.09451649338006973
1683139537398637000,20.757636962890626,9.767501831054688,0.45284169912338257,-0.005383851006627083
1683139537416482300,20.775482421875,9.734002113342285,0.4145565330982208,0.04666004329919815
1683139537434328800,20.793328857421876,9.738788604736328,0.47258245944976807,0.10408778488636017
1683139537452174800,20.8111748046875,9.772886276245117,0.41934216022491455,-0.07657032459974289
1683139537470017800,20.829017822265627,9.757930755615234,0.39541393518447876,0.03290131315588951
1683139537487870000,20.846869873046874,9.77707290649414,0.5108676552772522,0.04247260093688965
1683139537505709800,20.864709716796874,9.738788604736328,0.41994038224220276,0.08015955984592438
1683139537523563000,20.88256298828125,9.78664493560791,0.45284169912338257,-0.014955141581594944
1683139537541400300,20.900400390625,9.743574142456055,0.4145565330982208,0.037088751792907715
1683139537559253200,20.918253173828123,9.762716293334961,0.4582255482673645,0.061016976833343506
1683139537577096400,20.936096435546876,9.78664493560791,0.3858426511287689,-0.08135596662759781
1683139537594943000,20.95394287109375,9.80100154876709,0.41994038224220276,0.06161518394947052
1683139537612785000,20.971784912109374,9.772287368774414,0.5204389095306396,0.028115665540099144
1683139537630634200,20.98963427734375,9.748359680175781,0.4145565330982208,0.05144568532705307
1683139537648480300,21.007480224609374,9.81535816192627,0.4336991012096405,-0.019142581149935722
1683139537666326500,21.025326416015623,9.762716293334961,0.44386860728263855,0.061016976833343506
1683139537684172500,21.043172607421877,9.767501831054688,0.4582255482673645,0.047258246690034866
1683139537702018600,21.0610185546875,9.781859397888184,0.3858426511287689,-0.07657032459974289
1683139537719853000,21.07885302734375,9.781859397888184,0.4582255482673645,0.06580262631177902
1683139537737707000,21.09670703125,9.791430473327637,0.4863412082195282,-0.010169495828449726
1683139537755559000,21.114558837890623,9.78664493560791,0.4289134442806244,0.03768695518374443
1683139537773390300,21.132390380859373,9.796216011047363,0.44805604219436646,0.004187439568340778
1683139537791248400,21.150248291015625,9.77707290649414,0.47198426723480225,0.028115665540099144
1683139537809077000,21.168076904296875,9.791430473327637,0.4336991012096405,0.004187439568340778
1683139537826940200,21.185940185546876,9.805787086486816,0.3858426511287689,-0.04785645380616188
1683139537844774000,21.20377392578125,9.743574142456055,0.49172505736351013,0.07058826833963394
1683139537862632400,21.221632568359375,9.77707290649414,0.4384847581386566,-0.019740786403417587
1683139537880478000,21.23947802734375,9.80100154876709,0.4342973232269287,0.04247260093688965
1683139537898323000,21.257322998046874,9.791430473327637,0.4624129831790924,0.01375873014330864
1683139537916171300,21.275171142578124,9.781859397888184,0.49651068449020386,0.04247260093688965
1683139537934015700,21.293015625,9.781859397888184,0.42412781715393066,0.023330021649599075
1683139537951861800,21.31086181640625,9.834501266479492,0.4336991012096405,-0.04785645380616188
1683139537969708000,21.3287080078125,9.757930755615234,0.50129634141922,0.05144568532705307
1683139537987553800,21.3465537109375,9.796216011047363,0.41934216022491455,-0.019740786403417587
1683139538005399800,21.36439990234375,9.796216011047363,0.45284169912338257,0.023330021649599075
1683139538023245600,21.38224560546875,9.791430473327637,0.44327038526535034,-0.0005982056609354913
1683139538041090000,21.400090087890625,9.805787086486816,0.486939400434494,0.052043892443180084
1683139538058939000,21.41793896484375,9.78664493560791,0.4049852192401886,-0.010169495828449726
1683139538076783000,21.435783203125,9.80100154876709,0.4576273262500763,-0.014955141581594944
1683139538094629400,21.45362939453125,9.767501831054688,0.5060819983482361,0.04666004329919815
1683139538112475100,21.47147509765625,9.805787086486816,0.4336991012096405,0.028115665540099144
1683139538130321200,21.489321044921876,9.781859397888184,0.47198426723480225,0.028115665540099144
1683139538148167000,21.5071669921875,9.781859397888184,0.44327038526535034,0.03290131315588951
1683139538166017000,21.52501708984375,9.767501831054688,0.47258245944976807,0.061016976833343506
1683139538183859200,21.542859130859377,9.796216011047363,0.41934216022491455,-0.005383851006627083
1683139538201705000,21.560705078125,9.757930755615234,0.47676992416381836,0.018544375896453857
1683139538219551000,21.578551025390624,9.762716293334961,0.49591249227523804,0.04187439754605293
1683139538237397000,21.59639697265625,9.767501831054688,0.4001995921134949,0.03290131315588951
1683139538255234000,21.614234130859376,9.762716293334961,0.49591249227523804,0.02751746028661728
1683139538273076700,21.63207666015625,9.77707290649414,0.41934216022491455,0.03290131315588951
1683139538290920200,21.649920166015626,9.78664493560791,0.486939400434494,0.04247260093688965
1683139538308778500,21.667778564453126,9.810572624206543,0.4145565330982208,-0.038285162299871445
1683139538326627800,21.6856279296875,9.791430473327637,0.46719861030578613,0.018544375896453857
1683139538344460500,21.70346044921875,9.77707290649414,0.49651068449020386,0.06580262631177902
1683139538362318300,21.721318359375,9.748359680175781,0.4145565330982208,0.02751746028661728
1683139538380164600,21.73916455078125,9.725028991699219,0.5198407173156738,0.02751746028661728
1683139538398010400,21.75701025390625,9.748359680175781,0.4289134442806244,0.09451649338006973
1683139538415855900,21.77485595703125,9.743574142456055,0.4773681163787842,0.09451649338006973
1683139538433702400,21.792702392578125,9.767501831054688,0.4145565330982208,-0.029312077909708023
1683139538451548200,21.810548095703126,9.772287368774414,0.4773681163787842,0.05623133108019829
1683139538469394000,21.828393798828124,9.805787086486816,0.486939400434494,0.023330021649599075
1683139538487240200,21.846240234375,9.738788604736328,0.4145565330982208,0.0323031060397625
1683139538505087200,21.864087158203127,9.762716293334961,0.5252245664596558,0.04666004329919815
1683139538522931000,21.881930908203124,9.7005033493042,0.41934216022491455,0.11306086927652359
1683139538540777700,21.89977783203125,9.743574142456055,0.47198426723480225,0.04666004329919815
1683139538558623500,21.91762353515625,9.772287368774414,0.3810569941997528,-0.019740786403417587
1683139538576469500,21.935469482421876,9.753145217895508,0.44327038526535034,0.061016976833343506
1683139538594304800,21.9533046875,9.762716293334961,0.4576273262500763,0.018544375896453857
1683139538612161000,21.9711611328125,9.748359680175781,0.4145565330982208,0.008973085321485996
1683139538630007000,21.989007080078125,9.791430473327637,0.5491527915000916,0.05623133108019829
1683139538647852800,22.006852783203126,9.719645500183105,0.44805604219436646,0.1178465187549591
1683139538665699000,22.024698974609375,9.734601020812988,0.4624129831790924,0.013160524889826775
1683139538683533300,22.042533203125,9.753145217895508,0.4097708761692047,0.018544375896453857
1683139538701391000,22.06039111328125,9.743574142456055,0.46719861030578613,0.09930214285850525
1683139538719236900,22.07823681640625,9.77707290649414,0.44805604219436646,-0.029312077909708023
1683139538737082600,22.09608251953125,9.734002113342285,0.41934216022491455,0.02751746028661728
1683139538754928000,22.11392822265625,9.767501831054688,0.5006981492042542,0.05144568532705307
1683139538772771000,22.13177099609375,9.710074424743652,0.4049852192401886,0.07537391036748886
1683139538790620200,22.1496201171875,9.772287368774414,0.4624129831790924,-0.005383851006627083
1683139538808455400,22.167455322265624,9.757930755615234,0.41934216022491455,0.04187439754605293
1683139538826312000,22.18531201171875,9.743574142456055,0.47198426723480225,0.07537391036748886
1683139538844149500,22.2031494140625,9.78245735168457,0.4097708761692047,-0.08135596662759781
1683139538862004200,22.221004150390623,9.77707290649414,0.4145565330982208,0.04247260093688965
1683139538879841800,22.238841796875,9.796216011047363,0.5252245664596558,0.04247260093688965
1683139538897695700,22.25669580078125,9.743574142456055,0.44805604219436646,0.06580262631177902
1683139538915542000,22.2745419921875,9.78664493560791,0.4384847581386566,-0.010169495828449726
1683139538933387800,22.2923876953125,9.738788604736328,0.4336991012096405,0.061016976833343506
1683139538951233500,22.310233642578126,9.738788604736328,0.4384847581386566,0.05623133108019829
1683139538969079600,22.32807958984375,9.77707290649414,0.3762713670730591,-0.07657032459974289
1683139538986925600,22.345925537109373,9.772287368774414,0.4384847581386566,0.06580262631177902
1683139539004771300,22.363771240234374,9.805787086486816,0.5054838061332703,0.018544375896453857
1683139539022617300,22.381617431640624,9.772287368774414,0.4097708761692047,0.03768695518374443
1683139539040461600,22.399461669921877,9.810572624206543,0.44327038526535034,-0.0005982056609354913
1683139539058309000,22.41730908203125,9.767501831054688,0.45284169912338257,0.04187439754605293
1683139539076141000,22.43514111328125,9.762716293334961,0.44327038526535034,0.018544375896453857
1683139539094003500,22.45300341796875,9.805787086486816,0.3762713670730591,-0.07178468257188797
1683139539111846100,22.47084619140625,9.753145217895508,0.4576273262500763,0.06580262631177902
1683139539129692400,22.4886923828125,9.796216011047363,0.45284169912338257,-0.019740786403417587
1683139539147538200,22.5065380859375,9.78664493560791,0.42412781715393066,0.028115665540099144
1683139539165384200,22.52438427734375,9.805787086486816,0.4576273262500763,0.01375873014330864
1683139539183230500,22.54223046875,9.781859397888184,0.47676992416381836,0.03290131315588951
1683139539201076000,22.560075927734374,9.781859397888184,0.4289134442806244,0.008973085321485996
1683139539218921700,22.577921630859375,9.81535816192627,0.4097708761692047,-0.03349951654672623
1683139539236767700,22.595767822265625,9.743574142456055,0.49591249227523804,0.061016976833343506
