time,seconds_elapsed,z,y,x
1683119066813374500,0.14337451171875,0.3395957946777344,-0.0016906261444091797,0.6200292110443115
1683119066831205000,0.161205078125,0.2041492462158203,0.9533367156982422,-0.14596247673034668
1683119066849045200,0.179045166015625,-0.0932302474975586,0.6859450340270996,0.5778100490570068
1683119066866883000,0.196883056640625,0.0401458740234375,1.287627935409546,-0.15766841173171997
1683119066884731000,0.21473095703125,0.1111288070678711,0.5343314409255981,0.463838130235672
1683119066902572500,0.232572509765625,0.07058048248291016,1.2302879095077515,0.32495400309562683
1683119066920412400,0.250412353515625,-0.11878395080566406,0.9089919328689575,0.04280972480773926
1683119066938250500,0.26825048828125,0.40767955780029297,0.8043346405029297,0.4407941699028015
1683119066956088000,0.286088134765625,-0.0008554458618164062,1.0502197742462158,-0.040293216705322266
1683119066973928000,0.303927978515625,0.0024080276489257812,0.8045149445533752,0.4813973307609558
1683119066991771000,0.32177099609375,0.19136810302734375,0.9382656812667847,-0.12272685766220093
1683119067009604900,0.33960498046875,0.10422325134277344,0.7672120332717896,0.5286800265312195
1683119067027444200,0.3574443359375,0.19237518310546875,1.323939323425293,0.14831066131591797
1683119067045287200,0.375287109375,-0.01794910430908203,0.594887375831604,0.19446861743927002
1683119067063120000,0.393119873046875,0.25139808654785156,0.9029287099838257,0.32736510038375854
1683119067080961500,0.41096142578125,-0.13229751586914062,0.7813637256622314,-0.03781992197036743
1683119067098801700,0.4288017578125,0.12635231018066406,0.649585485458374,0.4164581596851349
1683119067116639500,0.446639404296875,0.2882852554321289,1.271256446838379,-0.13075125217437744
1683119067134475000,0.46447509765625,0.05706501007080078,0.704928457736969,0.5633053183555603
1683119067152313000,0.48231298828125,0.03619098663330078,1.1959189176559448,0.027900397777557373
1683119067170162000,0.500161865234375,-0.006529808044433594,0.7047275304794312,0.28128647804260254
1683119067187995400,0.517995361328125,0.32413482666015625,0.8328027725219727,0.30538204312324524
1683119067205830400,0.535830322265625,-0.14492034912109375,0.8019728660583496,0.00006276369094848633
1683119067223673300,0.55367333984375,0.3282442092895508,0.9529350996017456,0.4033169150352478
1683119067241513500,0.571513427734375,0.3005094528198242,0.9853822588920593,-0.08498978614807129
1683119067259350000,0.58935009765625,-0.0783834457397461,0.8150836229324341,0.6129042506217957
1683119067277192000,0.60719189453125,0.14656639099121094,1.2369216680526733,-0.03256195783615112
1683119067295033600,0.62503369140625,0.10126686096191406,0.511482834815979,0.44085201621055603
1683119067312856800,0.64285693359375,0.21631717681884766,1.0469639301300049,0.11917680501937866
1683119067330705700,0.66070556640625,-0.10380077362060547,0.7194589376449585,0.10485827922821045
1683119067348545300,0.678545166015625,0.3018512725830078,0.786488950252533,0.35011956095695496
1683119067366392000,0.69639208984375,0.034145355224609375,1.006203532218933,-0.10853290557861328
1683119067384224300,0.714224365234375,-0.041747093200683594,0.8886823654174805,0.611653208732605
1683119067402060500,0.732060546875,0.16190242767333984,1.2365117073059082,-0.06275182962417603
1683119067419904000,0.749904052734375,0.10905742645263672,0.6881921291351318,0.5353742837905884
1683119067437740000,0.767739990234375,0.07440662384033203,0.9160993099212646,0.05098003149032593
1683119067455575600,0.785575439453125,-0.12070274353027344,0.8540881276130676,0.34070706367492676
1683119067473410300,0.803410400390625,0.4031801223754883,1.1615657806396484,0.26742738485336304
1683119067491257900,0.8212578125,0.1148223876953125,0.554024338722229,0.013521552085876465
1683119067509096200,0.83909619140625,0.06068229675292969,1.1111390590667725,0.6251314282417297
1683119067526930700,0.8569306640625,0.2750511169433594,1.216689944267273,-0.07775247097015381
1683119067544761600,0.87476171875,0.0006780624389648438,0.30236709117889404,0.5631130933761597
1683119067562613500,0.892613525390625,-0.008914947509765625,1.1304947137832642,-0.08758807182312012
1683119067580448000,0.910447998046875,0.07075691223144531,0.6639176607131958,0.3906998038291931
1683119067598282800,0.92828271484375,0.30411815643310547,0.8477439880371094,0.1311866044998169
1683119067616129300,0.94612939453125,-0.0828390121459961,0.9374657273292542,0.057420551776885986
1683119067633966300,0.96396630859375,0.1541156768798828,1.0757150650024414,0.5743662118911743
1683119067651808800,0.981808837890625,0.1481332778930664,1.0797033309936523,-0.06348663568496704
1683119067669648400,0.9996484375,0.030279159545898438,0.7851513028144836,0.5715748071670532
1683119067687485000,1.01748486328125,0.14454078674316406,1.0480706691741943,-0.04018515348434448
1683119067705319700,1.035319580078125,0.11373424530029297,0.7156081199645996,0.5007689595222473
1683119067723162600,1.05316259765625,0.19321632385253906,1.0644804239273071,0.03614652156829834
1683119067741003000,1.0710029296875,0.14414215087890625,0.48969733715057373,0.23656415939331055
1683119067758840600,1.088840576171875,0.22270679473876953,1.310456395149231,0.5327158570289612
1683119067776673000,1.106673095703125,0.08868694305419922,1.0776630640029907,-0.014800965785980225
1683119067794509800,1.124509765625,0.1359577178955078,0.4281442165374756,0.6103722453117371
1683119067812358100,1.142358154296875,0.03277873992919922,1.2160059213638306,-0.1026340126991272
1683119067830184000,1.160183837890625,0.10818767547607422,0.539029598236084,0.45946192741394043
1683119067848036000,1.1780361328125,0.11037731170654297,0.7697141170501709,-0.09149777889251709
1683119067865862100,1.195862060546875,0.03777027130126953,0.9708132743835449,0.26458871364593506
1683119067883713800,1.2137138671875,0.29529762268066406,1.301630973815918,0.39364373683929443
1683119067901550800,1.23155078125,-0.05854988098144531,0.8531967401504517,0.0471004843711853
1683119067919395300,1.249395263671875,0.15661048889160156,0.9497976899147034,0.6012707948684692
1683119067937227500,1.2672275390625,0.19315338134765625,0.9986109733581543,-0.05878496170043945
1683119067955057700,1.2850576171875,0.033660888671875,0.7393292188644409,0.5993711948394775
1683119067972896000,1.30289599609375,0.10378456115722656,1.1028021574020386,-0.08013731241226196
1683119067990747600,1.32074755859375,0.19353961944580078,0.6296340227127075,0.47875145077705383
1683119068008584200,1.338584228515625,0.2528352737426758,1.3791158199310303,0.23620977997779846
1683119068026426400,1.35642626953125,-0.1068868637084961,0.9259966611862183,0.0964972972869873
1683119068044262000,1.374261962890625,0.18377208709716797,0.7137174010276794,0.6315897703170776
1683119068062104300,1.392104248046875,0.010712623596191406,1.1258600950241089,-0.1624022126197815
1683119068079940600,1.409940673828125,0.07439994812011719,0.673102080821991,0.5320145487785339
1683119068097769500,1.42776953125,0.1531696319580078,0.798304557800293,-0.17447572946548462
1683119068115609300,1.445609375,0.05623340606689453,0.9279609322547913,0.48130637407302856
1683119068133459000,1.463458984375,0.2487926483154297,1.2089534997940063,0.07217556238174438
1683119068151284200,1.4812841796875,0.000865936279296875,0.698974072933197,0.2288861870765686
1683119068169126700,1.499126708984375,0.1804800033569336,1.325984239578247,0.5923495292663574
1683119068186973000,1.516972900390625,0.04144096374511719,0.8043854236602783,-0.04616767168045044
1683119068204815600,1.534815673828125,0.061431884765625,0.7681025862693787,0.5507855415344238
1683119068222652400,1.55265234375,0.10565662384033203,1.124201774597168,-0.1731182336807251
1683119068240489700,1.57048974609375,0.12918853759765625,0.6129187345504761,0.5625852942466736
1683119068258316300,1.58831640625,0.2075662612915039,1.2547976970672607,-0.02571350336074829
1683119068276169500,1.60616943359375,0.027337074279785156,0.786239504814148,0.3410271406173706
1683119068294002700,1.624002685546875,0.18738460540771484,1.0820472240447998,0.5354893207550049
1683119068311849200,1.64184912109375,-0.13939476013183594,0.8246908187866211,-0.09008008241653442
1683119068329681000,1.659680908203125,0.21511554718017578,0.677651047706604,0.47082728147506714
1683119068347528400,1.677528564453125,0.032578468322753906,0.7633588314056396,-0.16660237312316895
1683119068365363200,1.69536328125,0.013154029846191406,0.8759682178497314,0.5058774948120117
1683119068383191600,1.713191650390625,0.0917806625366211,1.2016774415969849,-0.10815185308456421
1683119068401029400,1.731029296875,-0.03451728820800781,0.6173456907272339,0.45047321915626526
1683119068418881000,1.748881103515625,0.10082817077636719,1.482740879058838,0.2861674129962921
1683119068436716000,1.766716064453125,-0.050067901611328125,0.6936845779418945,0.036182940006256104
1683119068454561500,1.7845615234375,0.21233177185058594,0.811145544052124,0.5149357914924622
1683119068472390400,1.802390380859375,0.03571796417236328,1.046802043914795,-0.09842383861541748
1683119068490236700,1.820236572265625,0.032588958740234375,0.5293134450912476,0.5215681791305542
1683119068508074500,1.838074462890625,0.2279214859008789,1.2458646297454834,-0.09947341680526733
1683119068525902600,1.855902587890625,0.008091926574707031,0.7294081449508667,0.5329290628433228
1683119068543747800,1.873747802734375,0.129791259765625,1.0858850479125977,0.230740487575531
1683119068561591000,1.891591064453125,-0.14759159088134766,0.7688150405883789,0.0696181058883667
1683119068579431200,1.90943115234375,0.30204105377197266,0.8424623608589172,0.4575287103652954
1683119068597270300,1.927270263671875,-0.0965738296508789,0.6530691385269165,-0.11640167236328125
1683119068615096000,1.945095947265625,0.0695047378540039,0.837700366973877,0.3508850038051605
1683119068632936700,1.962936767578125,0.20876312255859375,1.026897668838501,-0.1745237112045288
1683119068650785800,1.980785888671875,-0.01843738555908203,0.6347968578338623,0.5481289625167847
1683119068668622800,1.998622802734375,0.11697864532470703,1.4313182830810547,0.04400432109832764
1683119068686466300,2.01646630859375,0.040546417236328125,0.5892107486724854,0.26560091972351074
1683119068704303400,2.034303466796875,0.20675373077392578,1.0104957818984985,0.4767472743988037
1683119068722141000,2.052140869140625,-0.1311626434326172,0.9236010313034058,-0.05980181694030762
1683119068739971300,2.069971435546875,0.30075645446777344,0.6566826105117798,0.4028688669204712
1683119068757806300,2.087806396484375,0.28794002532958984,1.0951340198516846,-0.06297421455383301
1683119068775659300,2.1056591796875,-0.06510448455810547,0.7536783218383789,0.5689762830734253
1683119068793496800,2.123496826171875,0.11767292022705078,0.9804145097732544,-0.018085956573486328
1683119068811335700,2.141335693359375,-0.001373291015625,0.7165769934654236,0.28729042410850525
1683119068829176000,2.159176025390625,0.2543325424194336,0.9515795707702637,0.28224340081214905
1683119068847015000,2.177014892578125,-0.16245555877685547,0.48244941234588623,-0.02603590488433838
1683119068864848000,2.194847900390625,0.2619781494140625,0.8181054592132568,0.3269334137439728
1683119068882680600,2.2126806640625,0.12627696990966797,0.9121042490005493,-0.08803516626358032
1683119068900527400,2.23052734375,-0.04151630401611328,0.5656617879867554,0.6031991839408875
1683119068918373000,2.248373046875,0.18965625762939453,1.382482647895813,-0.07986944913864136
1683119068936202000,2.266201904296875,0.15141773223876953,0.6073453426361084,0.44130584597587585
1683119068954038000,2.2840380859375,0.1291790008544922,0.7868151068687439,0.2007535696029663
1683119068971885600,2.301885498046875,-0.2270183563232422,0.7166317701339722,0.07796961069107056
1683119068989725200,2.31972509765625,0.38371849060058594,0.890060544013977,0.3277851343154907
1683119069007553000,2.337552978515625,0.06245708465576172,0.8261157870292664,-0.03895223140716553
1683119069025404000,2.35540380859375,-0.0492706298828125,0.9148013591766357,0.6015629172325134
1683119069043241700,2.37324169921875,0.2629432678222656,1.1806623935699463,-0.09194785356521606
1683119069061081300,2.391081298828125,0.1105337142944336,0.4694054126739502,0.5297962427139282
1683119069078919200,2.408919189453125,0.013885498046875,1.0610237121582031,0.09326374530792236
1683119069096759300,2.42675927734375,-0.07314682006835938,0.7117817401885986,0.21132424473762512
1683119069114596900,2.444596923828125,0.4049968719482422,0.8330849409103394,0.2961181104183197
1683119069132433000,2.462432861328125,-0.07644939422607422,0.8895638585090637,-0.01741635799407959
1683119069150272000,2.48027197265625,0.14850234985351562,0.9304725527763367,0.516016960144043
1683119069168105200,2.498105224609375,0.3400440216064453,1.0210150480270386,-0.10126692056655884
1683119069185953000,2.515953125,-0.11698532104492188,0.6306676268577576,0.5620948672294617
1683119069203792400,2.53379248046875,-0.029152870178222656,1.0992636680603027,0.0157393217086792
1683119069221630200,2.551630126953125,0.10634326934814453,0.5345999002456665,0.33495599031448364
1683119069239459300,2.569459228515625,0.28624629974365234,0.928263783454895,0.1978892683982849
1683119069257291300,2.587291259765625,-0.07104301452636719,0.7193239331245422,0.03858882188796997
1683119069275137300,2.60513720703125,0.2197093963623047,0.899188756942749,0.5531153678894043
1683119069292982300,2.622982177734375,0.2543659210205078,1.0849242210388184,-0.09764569997787476
1683119069310824700,2.64082470703125,-0.12133312225341797,0.6924054026603699,0.6360980272293091
1683119069328663600,2.65866357421875,0.07973384857177734,1.0366532802581787,-0.020504474639892578
1683119069346505000,2.6765048828125,0.14105606079101562,0.5042068958282471,0.40330806374549866
1683119069364340000,2.694340087890625,0.17709064483642578,0.8756969571113586,0.047332167625427246
1683119069382178600,2.712178466796875,-0.025467872619628906,0.694888174533844,0.1741502285003662
1683119069400022300,2.730022216796875,0.3025684356689453,1.1126997470855713,0.46227630972862244
1683119069417859600,2.747859619140625,0.14535236358642578,0.9406617283821106,-0.06624746322631836
1683119069435697400,2.765697509765625,-0.07446670532226562,0.6956349611282349,0.6682469248771667
1683119069453525200,2.783525146484375,0.0923318862915039,1.1194403171539307,-0.05368417501449585
1683119069471372000,2.8013720703125,0.13440895080566406,0.40694403648376465,0.4713621735572815
1683119069489217800,2.8192177734375,0.12064838409423828,0.8736100792884827,-0.03608882427215576
1683119069507045600,2.837045654296875,0.06054973602294922,0.7273174524307251,0.3006565272808075
1683119069524891400,2.854891357421875,0.29681396484375,1.0414972305297852,0.3929513394832611
1683119069542730800,2.872730712890625,0.10935497283935547,0.9265998005867004,0.03608870506286621
1683119069560568000,2.890568115234375,0.11394786834716797,0.7908146381378174,0.6340866088867188
1683119069578408200,2.908408203125,0.04621315002441406,0.8478931784629822,-0.06328600645065308
1683119069596251100,2.926251220703125,0.045083045959472656,0.49993896484375,0.4474684000015259
1683119069614086100,2.944086181640625,0.04566669464111328,0.8634257316589355,-0.08844298124313354
1683119069631925000,2.961925048828125,0.037464141845703125,0.5458242893218994,0.41239017248153687
1683119069649764600,2.9797646484375,0.24794387817382812,1.2625573873519897,0.08994299173355103
1683119069667604200,2.997604248046875,0.07760238647460938,0.6516526937484741,0.10681140422821045
1683119069685441800,3.01544189453125,0.032563209533691406,0.8675088286399841,0.6138286590576172
1683119069703278300,3.0332783203125,0.03522300720214844,1.1275582313537598,-0.07861781120300293
1683119069721123000,3.051123046875,0.1739521026611328,0.4878699779510498,0.5108165740966797
1683119069738944000,3.068944091796875,0.09755611419677734,0.8852493166923523,-0.07982039451599121
1683119069756797200,3.086797119140625,0.113861083984375,0.719759464263916,0.45898646116256714
1683119069774628900,3.10462890625,0.28306007385253906,1.0201557874679565,0.031151115894317627
1683119069792475100,3.12247509765625,-0.0013551712036132812,0.8111021518707275,0.22030246257781982
1683119069810312000,3.14031201171875,0.061882972717285156,1.155487060546875,0.5898218154907227
1683119069828153000,3.158153076171875,0.011475563049316406,0.8248024582862854,-0.08643209934234619
1683119069845995800,3.175995849609375,0.13617420196533203,0.543547511100769,0.5324568748474121
1683119069863830800,3.193830810546875,0.1101999282836914,0.9356005191802979,-0.17770737409591675
1683119069881667800,3.211667724609375,0.056209564208984375,0.6803557872772217,0.5254375338554382
1683119069899499300,3.229499267578125,0.21808528900146484,0.9912316799163818,-0.10207682847976685
1683119069917348600,3.2473486328125,0.04158496856689453,0.701948344707489,0.37177127599716187
1683119069935186400,3.2651865234375,0.12331581115722656,1.2720441818237305,0.4458581805229187
1683119069953020200,3.283020263671875,-0.10707569122314453,0.6944675445556641,-0.05579286813735962
1683119069970867000,3.300866943359375,0.24326324462890625,0.591950535774231,0.4864995777606964
1683119069988703700,3.318703857421875,0.03312492370605469,0.8799172043800354,-0.17477750778198242
1683119070006539000,3.3365390625,0.04741859436035156,0.6420915126800537,0.5158426761627197
1683119070024369700,3.35436962890625,0.09563064575195312,1.1052837371826172,-0.12854427099227905
1683119070042222800,3.372222900390625,0.016854286193847656,0.682846188545227,0.4788547158241272
1683119070060059600,3.3900595703125,0.07717609405517578,1.2757145166397095,0.25216516852378845
1683119070077897200,3.407897216796875,-0.07453060150146484,0.663336992263794,0.03686410188674927
1683119070095720700,3.425720703125,0.27793216705322266,0.7109267711639404,0.5287913084030151
1683119070113578500,3.44357861328125,-0.0874166488647461,0.8320870399475098,-0.14864224195480347
1683119070131412500,3.46141259765625,-0.008504867553710938,0.5974830389022827,0.4830315113067627
1683119070149237200,3.4792373046875,0.13756752014160156,0.9934091567993164,-0.2223573923110962
1683119070167098400,3.497098388671875,0.04088878631591797,0.6428335905075073,0.5697351694107056
1683119070184923100,3.514923095703125,0.13195133209228516,1.2127432823181152,0.06881362199783325
1683119070202770700,3.532770751953125,-0.03187847137451172,0.5512712001800537,0.1354769468307495
1683119070220605700,3.550605712890625,0.25649356842041016,0.8168008327484131,0.5104296803474426
1683119070238452000,3.568451904296875,-0.09778499603271484,0.7735435366630554,-0.12924444675445557
1683119070256274700,3.586274658203125,0.1939229965209961,0.6423319578170776,0.4161788821220398
1683119070274122000,3.6041220703125,0.2067575454711914,0.8691861629486084,-0.18561714887619019
1683119070291964000,3.6219638671875,-0.058177947998046875,0.5954784750938416,0.5892046689987183
1683119070309804500,3.639804443359375,0.04070758819580078,1.2292226552963257,-0.05246162414550781
1683119070327642000,3.65764208984375,0.07906055450439453,0.5498813390731812,0.3092694878578186
1683119070345482200,3.675482177734375,0.15061283111572266,0.9132095575332642,0.3745979368686676
1683119070363319800,3.69331982421875,-0.18642139434814453,0.6442115902900696,-0.04137188196182251
1683119070381160000,3.711159912109375,0.2801389694213867,0.6530916094779968,0.38855108618736267
1683119070398996700,3.728996826171875,0.11140823364257812,0.8527313470840454,-0.13725650310516357
1683119070416839000,3.7468388671875,-0.07897567749023438,0.6616660356521606,0.5413709878921509
1683119070434675200,3.76467529296875,0.12410163879394531,1.155059814453125,-0.14679139852523804
1683119070452515300,3.782515380859375,0.12526893615722656,0.49082040786743164,0.40967437624931335
1683119070470350800,3.800350830078125,0.045546531677246094,0.9510705471038818,0.19957661628723145
1683119070488196400,3.8181962890625,-0.18277549743652344,0.58099365234375,0.09818226099014282
1683119070506031600,3.836031494140625,0.3450489044189453,0.7217652797698975,0.3422064185142517
1683119070523871000,3.85387109375,-0.00890350341796875,0.8175461292266846,-0.07199239730834961
1683119070541698300,3.8716982421875,-0.004744529724121094,0.7325835227966309,0.5406965017318726
1683119070559549200,3.889549072265625,0.21654796600341797,1.038896083831787,-0.12076276540756226
1683119070577387000,3.907386962890625,0.03958415985107422,0.508953332901001,0.5321077108383179
1683119070595223300,3.925223388671875,-0.004180908203125,1.0000147819519043,0.025867938995361328
1683119070613059800,3.943059814453125,-0.04829120635986328,0.541283369064331,0.25181716680526733
1683119070630904300,3.960904296875,0.2866783142089844,0.7798207998275757,0.24673667550086975
1683119070648741000,3.9787412109375,-0.09565448760986328,0.6468772888183594,-0.041592538356781006
1683119070666571800,3.99657177734375,0.26511096954345703,0.8269839286804199,0.46428078413009644
1683119070684420400,4.01442041015625,0.2656240463256836,0.9512190818786621,-0.13298439979553223
1683119070702256600,4.032256591796875,-0.1560354232788086,0.6225833296775818,0.6123899221420288
1683119070720100000,4.05010009765625,0.05189228057861328,1.0654712915420532,-0.006264925003051758
1683119070737939500,4.067939453125,0.10124397277832031,0.4777175188064575,0.4063546359539032
1683119070755764000,4.085763916015625,0.19018268585205078,0.7990149259567261,0.1315956711769104
1683119070773614300,4.1036142578125,-0.08394908905029297,0.649532675743103,0.10988515615463257
1683119070791445800,4.12144580078125,0.3205089569091797,0.9794658422470093,0.46371006965637207
1683119070809296600,4.139296630859375,0.13274669647216797,0.8457610607147217,-0.10007703304290771
1683119070827130000,4.157130126953125,-0.18901443481445312,0.6865677833557129,0.6395514011383057
1683119070844962600,4.174962646484375,0.09284305572509766,1.0739655494689941,-0.05390572547912598
1683119070862809600,4.1928095703125,0.17046260833740234,0.34589195251464844,0.44109076261520386
1683119070880646000,4.21064599609375,0.0498504638671875,0.7813361883163452,0.005665898323059082
1683119070898489900,4.22848974609375,-0.07960224151611328,0.602392315864563,0.2663002610206604
1683119070916315400,4.2463154296875,0.3655986785888672,1.0561518669128418,0.36717355251312256
1683119070934164700,4.264164794921875,0.03452491760253906,0.7963486909866333,0.0018865466117858887
1683119070952003000,4.282003173828125,0.01657390594482422,0.7216545343399048,0.6520490646362305
1683119070969844000,4.299843994140625,0.0780344009399414,1.0530102252960205,-0.09255725145339966
1683119070987684000,4.31768408203125,0.07361602783203125,0.2831439971923828,0.4935665726661682
1683119071005520600,4.335520751953125,0.009381294250488281,0.8033698797225952,-0.09044408798217773
1683119071023348700,4.3533486328125,0.06797981262207031,0.5973900556564331,0.3708728849887848
1683119071041197000,4.371197021484375,0.3262462615966797,1.0158414840698242,0.12272697687149048
1683119071059040000,4.3890400390625,0.01703929901123047,0.7043459415435791,0.11145472526550293
1683119071076876500,4.40687646484375,0.045660972595214844,0.8846259713172913,0.6309834718704224
1683119071094716400,4.42471630859375,0.034809112548828125,0.8904001712799072,-0.096668541431427
1683119071112554000,4.442553955078125,0.0927114486694336,0.4292891025543213,0.5317145586013794
1683119071130394000,4.46039404296875,0.14034557342529297,0.8399344086647034,-0.12326377630233765
1683119071148232000,4.47823193359375,0.1379537582397461,0.537550687789917,0.45757541060447693
1683119071166072000,4.496072021484375,0.17191219329833984,0.8977441787719727,-0.03127676248550415
1683119071183909600,4.51390966796875,-0.015268325805664062,0.7135030031204224,0.22367292642593384
1683119071201743000,4.5317431640625,0.08324813842773438,1.092658281326294,0.5386113524436951
1683119071219590400,4.54959033203125,-0.0639505386352539,0.7878601551055908,-0.08943027257919312
1683119071237428000,4.567427978515625,0.17501258850097656,0.47363877296447754,0.5175246596336365
1683119071255265500,4.585265625,0.08803844451904297,0.8237841129302979,-0.1975659728050232
1683119071273096400,4.603096435546875,0.043860435485839844,0.569044828414917,0.49299174547195435
1683119071290942200,4.620942138671875,0.14165210723876953,0.8591066002845764,-0.12369632720947266
1683119071308784600,4.63878466796875,0.04010772705078125,0.6593481302261353,0.42167964577674866
1683119071326621200,4.65662109375,0.07995128631591797,1.239546298980713,0.36099129915237427
1683119071344449300,4.67444921875,-0.14544296264648438,0.6166331171989441,-0.03547859191894531
1683119071362297900,4.6922978515625,0.24340534210205078,0.5433798432350159,0.5305911898612976
1683119071380140000,4.71014013671875,-0.013601303100585938,0.8057613372802734,-0.18673920631408691
1683119071397976600,4.7279765625,0.044785499572753906,0.606158971786499,0.5208195447921753
1683119071415811000,4.74581103515625,0.11361122131347656,0.9629640579223633,-0.22255206108093262
1683119071433654300,4.763654296875,-0.05107879638671875,0.5572671890258789,0.5370633602142334
1683119071451491600,4.78149169921875,0.08432483673095703,1.2456872463226318,0.09343183040618896
1683119071469335300,4.799335205078125,0.020424842834472656,0.5187687277793884,0.08892899751663208
1683119071487160300,4.817160400390625,0.25137996673583984,0.7421812415122986,0.5420606136322021
1683119071504998100,4.834998046875,-0.11925411224365234,0.7685682773590088,-0.16416972875595093
1683119071522847200,4.85284716796875,0.12877655029296875,0.5256730318069458,0.43083876371383667
1683119071540676600,4.870676513671875,0.027297019958496094,0.8556361198425293,-0.20682072639465332
1683119071558529800,4.88852978515625,-0.032935142517089844,0.6674420833587646,0.5591534376144409
1683119071576366800,4.906366943359375,0.1550750732421875,1.072298288345337,-0.022813379764556885
1683119071594206000,4.9242060546875,-0.07872390747070312,0.44113612174987793,0.21761304140090942
1683119071612042500,4.94204248046875,0.10024642944335938,0.9850633144378662,0.4904942512512207
1683119071629884700,4.959884765625,-0.13183879852294922,0.558760404586792,-0.12641620635986328
1683119071647721500,4.977721435546875,0.2150411605834961,0.5671647787094116,0.4236501455307007
1683119071665549800,4.9955498046875,0.12544631958007812,0.8443722128868103,-0.16566449403762817
1683119071683394800,5.013394775390625,-0.05720329284667969,0.4764275550842285,0.5597584247589111
1683119071701239300,5.0312392578125,0.0015506744384765625,1.0404702425003052,-0.1621655821800232
1683119071719077400,5.049077392578125,0.052353858947753906,0.5271157026290894,0.3366865813732147
1683119071736916500,5.06691650390625,0.1462717056274414,0.8264836072921753,0.26474666595458984
1683119071754755600,5.084755615234375,-0.2437152862548828,0.564565122127533,0.018910884857177734
1683119071772595000,5.102594970703125,0.30553340911865234,0.6605277061462402,0.39521530270576477
1683119071790431700,5.120431640625,-0.004031181335449219,0.6286582946777344,-0.1385778784751892
1683119071808274000,5.13827392578125,-0.060105323791503906,0.6952175498008728,0.5639890432357788
1683119071826110700,5.15611083984375,0.21298599243164062,1.0539484024047852,-0.14933878183364868
1683119071843950800,5.173950927734375,0.12354373931884766,0.22341012954711914,0.4735121726989746
1683119071861789000,5.191788818359375,-0.011096954345703125,0.9947071671485901,0.07414400577545166
1683119071879626000,5.2096259765625,-0.15094280242919922,0.4613412022590637,0.1287233829498291
1683119071897469700,5.2274697265625,0.28916072845458984,0.4565010070800781,0.28853631019592285
1683119071915307000,5.24530712890625,-0.1679849624633789,0.7803863286972046,-0.16860270500183105
1683119071933148000,5.26314794921875,0.14494991302490234,0.6612650156021118,0.4493449628353119
1683119071950984700,5.280984619140625,0.19638347625732422,0.8276002407073975,-0.20063436031341553
1683119071968822000,5.298822021484375,-0.10897254943847656,0.6302896738052368,0.5722454190254211
1683119071986662100,5.316662109375,-0.0019540786743164062,0.9350156784057617,-0.0007756948471069336
1683119072004495000,5.3344951171875,0.021521568298339844,0.4976649284362793,0.34843671321868896
1683119072022340000,5.352340087890625,0.2965707778930664,0.8435285687446594,0.19316771626472473
1683119072040177400,5.370177490234375,-0.07577705383300781,0.42952191829681396,-0.01396876573562622
1683119072058006000,5.388006103515625,0.2614889144897461,0.8330087661743164,0.5115686655044556
1683119072075844000,5.405843994140625,0.1817617416381836,0.9068760871887207,-0.12777215242385864
1683119072093696000,5.423696044921875,-0.07078170776367188,0.3341233730316162,0.5860701203346252
1683119072111521300,5.441521240234375,0.0631551742553711,1.110286831855774,-0.06063640117645264
1683119072129372400,5.459372314453125,0.11381721496582031,0.36272168159484863,0.3808549642562866
1683119072147210000,5.4772099609375,0.059159278869628906,0.48220890760421753,0.09369343519210815
1683119072165042400,5.49504248046875,-0.18175125122070312,0.6360815167427063,0.025950849056243896
1683119072182889200,5.51288916015625,0.3655414581298828,0.8639786243438721,0.3959958553314209
1683119072200729300,5.530729248046875,-0.0033788681030273438,0.6910561919212341,-0.11786085367202759
1683119072218554400,5.548554443359375,-0.23716163635253906,0.8347724676132202,0.6139646172523499
1683119072236405000,5.566405029296875,0.1622323989868164,0.9237087965011597,-0.08681333065032959
1683119072254243300,5.584243408203125,0.11988639831542969,0.2810375690460205,0.4833598732948303
1683119072272085200,5.602085205078125,0.0419769287109375,0.8649295568466187,-0.026616930961608887
1683119072289922600,5.619922607421875,-0.03199005126953125,0.381528377532959,0.2786690592765808
1683119072307763000,5.637762939453125,0.3815174102783203,0.9905239343643188,0.3388736844062805
1683119072325597700,5.65559765625,-0.004860877990722656,0.745373010635376,-0.007223248481750488
1683119072343438800,5.67343896484375,0.04819297790527344,0.43034887313842773,0.6501466035842896
1683119072361281000,5.691281005859375,0.08600044250488281,1.0600863695144653,-0.1266651749610901
1683119072379115000,5.709114990234375,0.026521682739257812,0.22259116172790527,0.498675674200058
1683119072396956200,5.7269560546875,0.009809494018554688,0.5529672503471375,-0.08228248357772827
1683119072414803700,5.7448037109375,-0.06286144256591797,0.5515745282173157,0.2991082966327667
1683119072432625200,5.762625244140625,0.36693382263183594,0.8888363242149353,0.14206665754318237
1683119072450473200,5.78047314453125,-0.07703018188476562,0.4855567216873169,0.056166231632232666
1683119072468313600,5.798313720703125,-0.012421607971191406,0.9229183197021484,0.5590845942497253
1683119072486152400,5.81615234375,0.05396461486816406,0.8432679772377014,-0.10656994581222534
1683119072503991000,5.833990966796875,0.050357818603515625,0.28320133686065674,0.5495904088020325
1683119072521828900,5.851828857421875,0.056591033935546875,0.8929949998855591,-0.12270385026931763
1683119072539668000,5.86966796875,0.1714916229248047,0.3763127326965332,0.4121665358543396
1683119072557495800,5.887495849609375,0.19820404052734375,0.8354933261871338,0.024254977703094482
1683119072575341000,5.905341064453125,-0.022180557250976562,0.6964893341064453,0.14903199672698975
1683119072593186000,5.92318603515625,0.20127391815185547,0.7025448083877563,0.5694529414176941
1683119072611023600,5.941023681640625,0.0047321319580078125,0.8547639846801758,-0.11838185787200928
1683119072628863500,5.958863525390625,0.1096963882446289,0.36785709857940674,0.5163137316703796
1683119072646697000,5.976697021484375,0.12477397918701172,0.521486759185791,-0.16455835103988647
1683119072664541400,5.99454150390625,0.0044002532958984375,0.4494441747665405,0.3964802026748657
1683119072682371300,6.012371337890625,0.21294307708740234,0.7437142133712769,-0.14690423011779785
1683119072700218000,6.030218017578125,-0.02312183380126953,0.46372997760772705,0.28621014952659607
1683119072718058500,6.04805859375,0.05284309387207031,1.187090277671814,0.3588394522666931
1683119072735885800,6.0658857421875,-0.10029220581054688,0.5994901061058044,-0.0631488561630249
1683119072753735400,6.0837353515625,0.15699195861816406,0.35799896717071533,0.49397900700569153
1683119072771574000,6.101573974609375,0.06513214111328125,0.8158025145530701,-0.2149801254272461
1683119072789405700,6.11940576171875,0.10517501831054688,0.43457281589508057,0.4624021649360657
1683119072807239200,6.1372392578125,0.08916091918945312,0.7303353548049927,-0.17221450805664062
1683119072825079600,6.15507958984375,-0.028435707092285156,0.5861298441886902,0.44829195737838745
1683119072842931500,6.172931396484375,0.10030269622802734,1.0687923431396484,0.25146061182022095
1683119072860757200,6.19075732421875,-0.1399984359741211,0.5607914924621582,0.01764202117919922
1683119072878608000,6.20860791015625,0.1919841766357422,0.5575008392333984,0.5624905228614807
1683119072896443000,6.22644287109375,-0.02032184600830078,0.6583178043365479,-0.20765042304992676
1683119072914287400,6.244287353515625,0.0038204193115234375,0.3772766590118408,0.521089494228363
1683119072932121600,6.26212158203125,0.08815383911132812,0.8732458353042603,-0.2760542035102844
1683119072949967600,6.279967529296875,-0.0073833465576171875,0.5040370225906372,0.5420399308204651
1683119072967802600,6.297802734375,0.036269187927246094,1.0049529075622559,0.0444025993347168
1683119072985642800,6.315642822265625,-0.05736541748046875,0.4913429617881775,0.08719736337661743
1683119073003471400,6.333471435546875,0.2539663314819336,0.7102211713790894,0.5366025567054749
1683119073021316000,6.351316162109375,-0.15250205993652344,0.5757335424423218,-0.19457876682281494
1683119073039162600,6.36916259765625,0.025762557983398438,0.4260116219520569,0.4527188241481781
1683119073056998100,6.386998046875,0.059248924255371094,0.7057063579559326,-0.2560557723045349
1683119073074836000,6.4048359375,-0.040106773376464844,0.49405789375305176,0.5825713872909546
1683119073092675800,6.42267578125,0.07146644592285156,1.0229997634887695,-0.07533246278762817
1683119073110511400,6.440511474609375,-0.013184547424316406,0.3872923254966736,0.23484188318252563
1683119073128357000,6.458357177734375,0.14732074737548828,0.8242212533950806,0.47101935744285583
1683119073146189300,6.476189208984375,-0.18151187896728516,0.5262101292610168,-0.15628069639205933
1683119073164035000,6.49403515625,0.19168376922607422,0.38925790786743164,0.41043609380722046
1683119073181869800,6.511869873046875,0.1008768081665039,0.634947657585144,-0.23497581481933594
1683119073199709700,6.529709716796875,-0.1042938232421875,0.4639546871185303,0.5542624592781067
1683119073217533200,6.547533203125,-0.005473136901855469,0.983810544013977,-0.1708553433418274
1683119073235376400,6.56537646484375,0.059970855712890625,0.3245042562484741,0.3691233992576599
1683119073253228800,6.583228759765625,0.08480262756347656,0.8346469402313232,0.287947416305542
1683119073271066000,6.601066162109375,-0.22319698333740234,0.3894613981246948,-0.050503313541412354
1683119073288900600,6.618900634765625,0.24475860595703125,0.48254334926605225,0.4016042947769165
1683119073306747000,6.636746826171875,-0.02918243408203125,0.6489255428314209,-0.1861150860786438
1683119073324581600,6.65458154296875,-0.07109928131103516,0.46598654985427856,0.46892455220222473
1683119073342408700,6.67240869140625,0.13171672821044922,0.8939805030822754,-0.21363234519958496
1683119073360260900,6.6902607421875,0.09325790405273438,0.33164048194885254,0.43066444993019104
1683119073378099700,6.708099609375,0.06760120391845703,0.8427935242652893,0.12327122688293457
1683119073395925800,6.72592578125,-0.20452117919921875,0.39748865365982056,0.09182268381118774
1683119073413772800,6.743772705078125,0.28589439392089844,0.5069184303283691,0.3309618830680847
1683119073431601400,6.761601318359375,-0.15265846252441406,0.5827662944793701,-0.1142844557762146
1683119073449462300,6.779462158203125,0.05242633819580078,0.5150124430656433,0.43164336681365967
1683119073467293200,6.797293212890625,0.19255542755126953,0.7877693176269531,-0.17749720811843872
1683119073485121500,6.81512158203125,-0.033989906311035156,0.33608901500701904,0.5046605467796326
1683119073502967600,6.832967529296875,-0.05833721160888672,0.8575170040130615,-0.0368427038192749
1683119073520811000,6.85081103515625,-0.08915901184082031,0.30483758449554443,0.19892537593841553
1683119073538635800,6.8686357421875,0.24750900268554688,0.562028706073761,0.23794889450073242
1683119073556491500,6.886491455078125,-0.17197895050048828,0.43849456310272217,-0.10555458068847656
1683119073574326800,6.904326904296875,0.2570381164550781,0.535285472869873,0.3594047427177429
1683119073592167200,6.922167236328125,0.21170997619628906,0.7086505889892578,-0.17937123775482178
1683119073610004700,6.940004638671875,-0.1592082977294922,0.48923420906066895,0.5881900191307068
1683119073627844900,6.957844970703125,0.0895242691040039,0.9326561093330383,-0.078513503074646
1683119073645683000,6.975682861328125,0.059340476989746094,0.2781919240951538,0.3766688108444214
1683119073663517400,6.993517333984375,0.16130542755126953,0.5890528559684753,0.11422377824783325
1683119073681359000,7.011359130859375,-0.17897701263427734,0.39781689643859863,0.03124147653579712
1683119073699202800,7.029202880859375,0.3042573928833008,0.7140544652938843,0.3460065722465515
1683119073717038800,7.047038818359375,0.024988174438476562,0.629784345626831,-0.1666131615638733
1683119073734874000,7.0648740234375,-0.17465782165527344,0.5759642720222473,0.5938524007797241
1683119073752716500,7.082716552734375,0.12036609649658203,0.9213356971740723,-0.12410902976989746
1683119073770552800,7.100552734375,0.10640239715576172,0.1775822639465332,0.46403735876083374
1683119073788398600,7.118398681640625,-0.027301788330078125,0.6118118762969971,-0.025006115436553955
1683119073806234600,7.136234619140625,-0.11191940307617188,0.44065314531326294,0.23994582891464233
1683119073824072400,7.154072509765625,0.38385009765625,0.7769570350646973,0.25403645634651184
1683119073841899000,7.17189892578125,-0.020366668701171875,0.5660762786865234,-0.05811578035354614
1683119073859748400,7.189748291015625,-0.08414840698242188,0.5989235639572144,0.5977402329444885
1683119073877590500,7.207590576171875,0.15923595428466797,0.8799187541007996,-0.1637936234474182
1683119073895425500,7.225425537109375,-0.017233848571777344,0.15761077404022217,0.5263227224349976
1683119073913259500,7.243259521484375,-0.06364631652832031,0.6874310970306396,-0.0972478985786438
1683119073931106000,7.26110595703125,0.01886463165283203,0.32200849056243896,0.3480703830718994
1683119073948946000,7.27894580078125,0.3444099426269531,0.7277722358703613,0.08071374893188477
1683119073966784000,7.296783935546875,-0.08252334594726562,0.4669748544692993,0.05073672533035278
1683119073984612400,7.3146123046875,0.00391387939453125,0.7407783269882202,0.5539798736572266
1683119074002462200,7.332462158203125,0.014737129211425781,0.772034764289856,-0.14068323373794556
1683119074020300500,7.350300537109375,0.028204917907714844,0.19528770446777344,0.5311212539672852
1683119074038141400,7.368141357421875,0.04776477813720703,0.6958993077278137,-0.1521185040473938
1683119074055975700,7.3859755859375,0.10013866424560547,0.2517939805984497,0.3858470618724823
1683119074073817900,7.40381787109375,0.15897083282470703,0.600821852684021,-0.055708885192871094
1683119074091658200,7.421658203125,-0.008348464965820312,0.5259089469909668,0.14831769466400146
1683119074109486300,7.439486328125,0.10792064666748047,0.8732432723045349,0.48116445541381836
1683119074127325400,7.457325439453125,0.004574775695800781,0.6301887631416321,-0.11202442646026611
1683119074145171200,7.475171142578125,0.12206745147705078,0.24579501152038574,0.5113797187805176
1683119074163013000,7.49301318359375,0.07419872283935547,0.6539067029953003,-0.18056464195251465
1683119074180852000,7.51085205078125,0.008553504943847656,0.2779090404510498,0.44278332591056824
1683119074198691600,7.528691650390625,0.0986185073852539,0.5931260585784912,-0.19203943014144897
1683119074216517600,7.546517578125,0.017202377319335938,0.49887871742248535,0.3265618085861206
1683119074234369800,7.564369873046875,0.14377689361572266,0.9932090044021606,0.2718719244003296
1683119074252207600,7.58220751953125,-0.1375265121459961,0.511520266532898,-0.09096729755401611
1683119074270047200,7.600047119140625,0.21218299865722656,0.33907365798950195,0.5001344680786133
1683119074287882500,7.617882568359375,0.04213237762451172,0.6047719717025757,-0.23442333936691284
1683119074305722000,7.63572216796875,0.023919105529785156,0.3290508985519409,0.46095216274261475
1683119074323563300,7.653563232421875,0.07283401489257812,0.6190106868743896,-0.22210609912872314
1683119074341397000,7.67139697265625,-0.014826774597167969,0.44425129890441895,0.45432427525520325
1683119074359242500,7.689242431640625,0.04816722869873047,1.0053253173828125,0.12369382381439209
1683119074377077500,7.707077392578125,-0.08839797973632812,0.4256895184516907,0.05444145202636719
1683119074394903600,7.724903564453125,0.17329883575439453,0.5668190121650696,0.5605707764625549
1683119074412761900,7.742761962890625,-0.1446685791015625,0.5572630763053894,-0.2278071641921997
1683119074430594300,7.76059423828125,-0.022989273071289062,0.32106471061706543,0.4752385914325714
1683119074448440600,7.778440673828125,0.045104026794433594,0.6235027313232422,-0.3029369115829468
1683119074466275300,7.796275390625,-0.0032758712768554688,0.41272783279418945,0.523087739944458
1683119074484115200,7.814115234375,0.044562339782714844,0.9121001958847046,-0.07720077037811279
1683119074501953500,7.83195361328125,0.01862335205078125,0.28575044870376587,0.1733454167842865
1683119074519793400,7.84979345703125,0.1777200698852539,0.7525681853294373,0.48000356554985046
1683119074537628400,7.86762841796875,-0.1953754425048828,0.4299675226211548,-0.18690162897109985
1683119074555474400,7.885474365234375,0.15098190307617188,0.29420560598373413,0.41500014066696167
1683119074573309200,7.90330908203125,0.06502437591552734,0.5755189657211304,-0.261374831199646
1683119074591137500,7.921137451171875,-0.1122598648071289,0.386013925075531,0.5293442010879517
1683119074608987100,7.938987060546875,-0.02960968017578125,0.8968154191970825,-0.16393399238586426
1683119074626821400,7.9568212890625,0.02008342742919922,0.2689002752304077,0.3459120988845825
1683119074644659500,7.974659423828125,0.04902458190917969,0.8686528205871582,0.3208312392234802
1683119074662506500,7.992506591796875,-0.21866798400878906,0.34381961822509766,-0.1143069863319397
1683119074680341800,8.010341796875,0.2279949188232422,0.35689276456832886,0.38843926787376404
1683119074698183200,8.02818310546875,-0.05846118927001953,0.5457206964492798,-0.2295399308204651
1683119074716009500,8.046009521484375,-0.05552387237548828,0.3454550504684448,0.4256478250026703
1683119074733861400,8.063861328125,0.02749156951904297,0.8042360544204712,-0.2540279030799866
1683119074751698200,8.0816982421875,0.08925342559814453,0.2330493927001953,0.43550175428390503
1683119074769540000,8.0995400390625,0.0810079574584961,0.7948270440101624,0.09474313259124756
1683119074787377400,8.11737744140625,-0.19510936737060547,0.30478620529174805,0.07104188203811646
1683119074805217000,8.135217041015625,0.27257537841796875,0.4293202757835388,0.3351942002773285
1683119074823051300,8.15305126953125,-0.17626190185546875,0.4852421283721924,-0.15008705854415894
1683119074840883500,8.170883544921875,0.06700706481933594,0.4083866477012634,0.38616976141929626
1683119074858727000,8.188726806640625,0.18026256561279297,0.713085412979126,-0.19644862413406372
1683119074876573000,8.206572998046875,-0.0450439453125,0.2652657628059387,0.4994620382785797
1683119074894411000,8.224410888671875,-0.000400543212890625,0.8016424179077148,-0.07098591327667236
1683119074912251100,8.242251220703125,-0.061249732971191406,0.21633577346801758,0.20631536841392517
1683119074930087000,8.2600869140625,0.2234201431274414,0.4723745584487915,0.20938712358474731
1683119074947931100,8.27793115234375,-0.19082355499267578,0.3501264452934265,-0.10966777801513672
1683119074965755000,8.2957548828125,0.26765918731689453,0.42764103412628174,0.3391481935977936
1683119074983595300,8.31359521484375,0.12990760803222656,0.5674487352371216,-0.2026081085205078
1683119075001442300,8.3314423828125,-0.1650543212890625,0.40911728143692017,0.5415397882461548
1683119075019288000,8.3492880859375,0.1299610137939453,0.8411072492599487,-0.137515127658844
1683119075037122800,8.367122802734375,0.05683422088623047,0.17814934253692627,0.38544315099716187
1683119075054958300,8.384958251953124,0.06791496276855469,0.5224561095237732,0.07143223285675049
1683119075072803600,8.402803466796875,-0.20065689086914062,0.3015151023864746,0.0499114990234375
1683119075090637600,8.420637451171874,0.33629894256591797,0.5925323963165283,0.29085955023765564
1683119075108482800,8.43848291015625,-0.013866424560546875,0.5002756714820862,-0.16326797008514404
1683119075126318000,8.456318115234374,-0.19199848175048828,0.5355135798454285,0.5646076202392578
1683119075144146700,8.474146728515626,0.1456584930419922,0.8114617466926575,-0.16245299577713013
1683119075161996800,8.491996826171874,0.04087066650390625,0.09463083744049072,0.4626113176345825
1683119075179831000,8.5098310546875,-0.062247276306152344,0.5808671712875366,-0.06019425392150879
1683119075197678000,8.527677978515625,-0.08919525146484375,0.28804755210876465,0.2556811273097992
1683119075215512800,8.545512939453126,0.3402681350708008,0.6677150726318359,0.18788248300552368
1683119075233352400,8.5633525390625,-0.0839385986328125,0.4547572135925293,-0.04501610994338989
1683119075251190500,8.5811904296875,-0.037833213806152344,0.59160315990448,0.5527554750442505
1683119075269030400,8.599030517578125,0.1087045669555664,0.7310563325881958,-0.20960569381713867
1683119075286868700,8.61686865234375,-0.018499374389648438,0.07271957397460938,0.5001438856124878
1683119075304708600,8.63470849609375,-0.03127002716064453,0.6004677414894104,-0.1576405167579651
1683119075322546400,8.65254638671875,0.039066314697265625,0.170180082321167,0.34855878353118896
1683119075340386600,8.670386474609375,0.18723487854003906,0.5531549453735352,-0.028859198093414307
1683119075358224600,8.688224609375,-0.013182640075683594,0.35721468925476074,0.09309440851211548
1683119075376064800,8.706064697265624,0.09335517883300781,0.7402026057243347,0.4682868719100952
1683119075393898000,8.72389794921875,0.004246711730957031,0.6146695613861084,-0.1250287890434265
1683119075411742500,8.741742431640626,0.049111366271972656,0.16850638389587402,0.512859582901001
1683119075429578000,8.759577880859375,0.028809547424316406,0.6291533708572388,-0.1759372353553772
1683119075447421200,8.777421142578126,0.07839679718017578,0.11985981464385986,0.4164169430732727
1683119075465256000,8.795255859375,0.08781719207763672,0.49051499366760254,-0.1573474407196045
1683119075483097300,8.813097412109375,-0.004398345947265625,0.43628060817718506,0.24865126609802246
1683119075500932400,8.830932373046876,0.10640811920166016,0.9091020226478577,0.3200928568840027
1683119075518775300,8.848775390625,-0.14366531372070312,0.485418438911438,-0.1005297303199768
1683119075536615700,8.86661572265625,0.14120864868164062,0.24107211828231812,0.5096031427383423
1683119075554451500,8.884451416015626,0.051047325134277344,0.5538246631622314,-0.2533721327781677
1683119075572295200,8.902295166015625,0.020746231079101562,0.21384197473526,0.44395166635513306
1683119075590132500,8.920132568359374,0.031952857971191406,0.5211697816848755,-0.21762537956237793
1683119075607970600,8.937970458984376,0.00122833251953125,0.39432406425476074,0.42689383029937744
1683119075625799000,8.955798828125,0.05925750732421875,0.916886568069458,0.1290408968925476
1683119075643648800,8.973648681640626,-0.12686634063720703,0.38116610050201416,0.02908986806869507
1683119075661489200,8.9914892578125,0.13907814025878906,0.4865090250968933,0.5657700300216675
1683119075679326200,9.009326171875,-0.07953929901123047,0.4709237217903137,-0.2557586431503296
1683119075697166300,9.027166259765625,0.007930755615234375,0.24048340320587158,0.4796357750892639
1683119075714994200,9.044994140625,0.02885150909423828,0.53692626953125,-0.3137483596801758
1683119075732844300,9.06284423828125,-0.012734413146972656,0.31543493270874023,0.5002396106719971
1683119075750679600,9.080679443359376,0.057056427001953125,0.7885047793388367,-0.11740708351135254
1683119075768524000,9.09852392578125,0.0052280426025390625,0.22816312313079834,0.1493905782699585
1683119075786361000,9.116361083984375,0.14623355865478516,0.7062832117080688,0.47018882632255554
1683119075804200700,9.13420068359375,-0.2090616226196289,0.32797449827194214,-0.20920133590698242
1683119075822038800,9.152038818359374,0.1503734588623047,0.19892942905426025,0.4091570973396301
1683119075839876900,9.169876953125,0.05012989044189453,0.516047477722168,-0.2927761673927307
1683119075857725000,9.187724853515626,-0.08466434478759766,0.31886768341064453,0.5080894231796265
1683119075875556400,9.205556396484376,-0.023331642150878906,0.8030579686164856,-0.19207733869552612
1683119075893394700,9.223394775390625,-0.012776374816894531,0.2111586332321167,0.33515721559524536
1683119075911234300,9.241234375,0.027805328369140625,0.8075013756752014,0.2844119668006897
1683119075929072400,9.259072265625,-0.2338237762451172,0.2587513327598572,-0.12458109855651855
1683119075946912500,9.27691259765625,0.22876739501953125,0.28263306617736816,0.37620967626571655
1683119075964754400,9.29475439453125,-0.10068798065185547,0.46524739265441895,-0.24773216247558594
1683119075982590500,9.312590576171875,-0.04697704315185547,0.25834178924560547,0.392752468585968
1683119076000428300,9.33042822265625,0.013592720031738281,0.688155472278595,-0.26201874017715454
1683119076018265600,9.348265625,0.07271862030029297,0.1713913083076477,0.4175751805305481
1683119076036105000,9.36610498046875,0.07621288299560547,0.7360268831253052,0.07314717769622803
1683119076053943300,9.383943359375,-0.20793437957763672,0.2138075828552246,0.07189404964447021
1683119076071787300,9.401787353515624,0.23174095153808594,0.3411967158317566,0.31740647554397583
1683119076089623300,9.419623291015625,-0.18212223052978516,0.3691152334213257,-0.17805039882659912
1683119076107460600,9.437460693359375,0.10211849212646484,0.34312552213668823,0.3468320965766907
1683119076125305300,9.455305419921874,0.179290771484375,0.5993744134902954,-0.23102319240570068
1683119076143140000,9.47314013671875,-0.0857381820678711,0.1763240098953247,0.5061338543891907
1683119076160979000,9.49097900390625,-0.03506278991699219,0.7795559167861938,-0.10019636154174805
1683119076178819600,9.508819580078125,-0.016222000122070312,0.13040900230407715,0.22299033403396606
1683119076196658400,9.526658447265625,0.2508563995361328,0.39092451333999634,0.1755276918411255
1683119076214496800,9.544496826171875,-0.20763492584228516,0.2647961378097534,-0.10615736246109009
1683119076232336400,9.56233642578125,0.30830860137939453,0.37787944078445435,0.3062490224838257
1683119076250174200,9.58017431640625,0.08217430114746094,0.47488832473754883,-0.2055521011352539
1683119076268014000,9.59801416015625,-0.2187652587890625,0.35606902837753296,0.5377656817436218
1683119076285840400,9.61584033203125,0.1407766342163086,0.81022047996521,-0.18406373262405396
1683119076303692500,9.633692626953126,0.12279510498046875,0.04304492473602295,0.39703765511512756
1683119076321517300,9.651517333984375,-0.03527355194091797,0.43337464332580566,0.016469955444335938
1683119076339373000,9.669373046875,-0.2076120376586914,0.23652136325836182,0.07133013010025024
1683119076357208800,9.687208740234375,0.3230171203613281,0.5213093757629395,0.2609311640262604
1683119076375036400,9.705036376953124,-0.05893421173095703,0.4106999635696411,-0.16213595867156982
1683119076392886500,9.722886474609375,-0.1807851791381836,0.46813857555389404,0.5570409893989563
1683119076410723800,9.740723876953124,0.15301036834716797,0.6843639612197876,-0.21007102727890015
1683119076428563500,9.7585634765625,-0.017669677734375,0.022758126258850098,0.4608282446861267
1683119076446407000,9.776406982421875,-0.08767223358154297,0.5284174680709839,-0.07871896028518677
1683119076464242000,9.794241943359374,-0.043982505798339844,0.1964430809020996,0.26561740040779114
1683119076482081000,9.8120810546875,0.34541797637939453,0.5783450603485107,0.1210317611694336
1683119076499921700,9.829921630859374,-0.11256980895996094,0.3516569137573242,-0.030859649181365967
1683119076517760500,9.847760498046876,-0.0060100555419921875,0.5501171946525574,0.5228418707847595
1683119076535598300,9.865598388671875,0.06844139099121094,0.6345011591911316,-0.2098602056503296
1683119076553438000,9.88343798828125,0.0027856826782226562,0.03415846824645996,0.48624610900878906
1683119076571273000,9.90127294921875,0.0024929046630859375,0.5689743757247925,-0.17727762460708618
1683119076589119200,9.919119140625,0.03739738464355469,0.08043158054351807,0.35234785079956055
1683119076606954200,9.936954345703125,0.15237140655517578,0.4450002908706665,-0.05580872297286987
1683119076624782600,9.954782470703124,-0.013147354125976562,0.33724939823150635,0.12114834785461426
1683119076642632000,9.9726318359375,0.1271829605102539,0.7179713249206543,0.45546454191207886
1683119076660458200,9.990458251953125,0.006093025207519531,0.5183363556861877,-0.1607455015182495
1683119076678312700,10.008312744140625,0.06354522705078125,0.1063469648361206,0.5059062242507935
1683119076696150300,10.026150390625,0.024404525756835938,0.5459185838699341,-0.20985454320907593
1683119076713977300,10.043977294921875,0.046629905700683594,0.09111487865447998,0.4094443917274475
1683119076731827200,10.0618271484375,0.06567764282226562,0.4105890989303589,-0.20340371131896973
1683119076749667000,10.0796669921875,-0.016937255859375,0.34797340631484985,0.2812293469905853
1683119076767506400,10.09750634765625,0.14659881591796875,0.8061546087265015,0.2369091510772705
1683119076785344000,10.115343994140625,-0.15876293182373047,0.3894309997558594,-0.10297077894210815
1683119076803179800,10.1331796875,0.18015384674072266,0.21356916427612305,0.5037325620651245
1683119076821022200,10.151022216796875,0.006665229797363281,0.4875771999359131,-0.26025819778442383
1683119076838862000,10.168862060546875,0.026470184326171875,0.13297569751739502,0.42575034499168396
1683119076856700400,10.186700439453125,0.02919769287109375,0.4527472257614136,-0.2549826502799988
1683119076874540500,10.20454052734375,0.017951011657714844,0.31970036029815674,0.4304671585559845
1683119076892377900,10.2223779296875,0.05716896057128906,0.8361625671386719,0.059607088565826416
1683119076910218000,10.240218017578124,-0.1219635009765625,0.2823767066001892,0.045279741287231445
1683119076928056000,10.25805615234375,0.1259317398071289,0.4679388403892517,0.5444185137748718
1683119076945884700,10.275884765625,-0.13298702239990234,0.40590453147888184,-0.23871910572052002
1683119076963734000,10.293734130859375,-0.02373790740966797,0.16251671314239502,0.437854140996933
1683119076981574000,10.311573974609376,-0.01598644256591797,0.4405789375305176,-0.33482593297958374
1683119076999412200,10.329412109375,-0.03643035888671875,0.24023222923278809,0.49049875140190125
1683119077017252400,10.34725244140625,0.059963226318359375,0.7732570767402649,-0.1674482822418213
1683119077035078400,10.365078369140624,0.048918724060058594,0.1149587631225586,0.1702083945274353
1683119077052930600,10.3829306640625,0.11885261535644531,0.5758787393569946,0.4442805051803589
1683119077070767900,10.400767822265625,-0.2232961654663086,0.31928861141204834,-0.21301639080047607
1683119077088607000,10.41860693359375,0.20184707641601562,0.1433483362197876,0.4005756676197052
1683119077106447400,10.436447265625,0.009314537048339844,0.31462669372558594,-0.30334556102752686
1683119077124281300,10.45428125,-0.12779617309570312,0.2974812984466553,0.5158047676086426
1683119077142124000,10.4721240234375,0.020854949951171875,0.7447308301925659,-0.25025004148483276
1683119077159952400,10.489952392578125,0.08837223052978516,-0.054326415061950684,0.3569827079772949
1683119077177802500,10.507802490234376,-0.020285606384277344,0.8626093864440918,0.2221522033214569
1683119077195642400,10.525642333984376,-0.2134532928466797,0.16941332817077637,-0.132060706615448
1683119077213480700,10.543480712890625,0.22132110595703125,0.0426255464553833,0.375021368265152
1683119077231306000,10.561305908203124,-0.15320587158203125,0.5201109647750854,-0.31901443004608154
1683119077249159400,10.579159423828125,-0.045795440673828125,0.1613297462463379,0.3975684344768524
1683119077266997000,10.5969970703125,-0.08279609680175781,0.5274681448936462,-0.28059279918670654
1683119077284837400,10.61483740234375,0.010847091674804688,0.25828778743743896,0.38636669516563416
1683119077302676500,10.632676513671875,0.14276123046875,0.6755958199501038,0.05407917499542236
1683119077320511500,10.650511474609376,-0.17173004150390625,0.2391909956932068,0.11649054288864136
1683119077338357000,10.66835693359375,0.2635784149169922,0.44502758979797363,0.32216858863830566
1683119077356192300,10.686192138671874,-0.1702737808227539,0.16367554664611816,-0.18790042400360107
1683119077374027500,10.704027587890625,0.051789283752441406,0.3588773012161255,0.4421081244945526
1683119077391870200,10.7218701171875,0.19803714752197266,0.6446614861488342,-0.25587159395217896
1683119077409710000,10.7397099609375,0.010910987854003906,-0.09625709056854248,0.4996423125267029
1683119077427548200,10.757548095703125,-0.0768270492553711,0.7816439867019653,-0.15686893463134766
1683119077445383400,10.775383544921874,-0.10148143768310547,0.057111382484436035,0.17798352241516113
1683119077463225900,10.793225830078125,0.21164703369140625,0.09683358669281006,0.18172499537467957
1683119077481066000,10.81106591796875,-0.2609825134277344,0.2912190556526184,-0.23374342918395996
1683119077498891300,10.828891357421876,0.2834482192993164,0.2470536231994629,0.2824741005897522
1683119077516745500,10.846745361328125,0.03283977508544922,0.34712421894073486,-0.25850170850753784
1683119077534582300,10.864582275390624,-0.18686199188232422,0.4105859398841858,0.4840018153190613
1683119077552422100,10.882422119140625,0.13964366912841797,0.6674573421478271,-0.1724444031715393
1683119077570247200,10.9002470703125,0.050705909729003906,0.07431304454803467,0.385600745677948
1683119077588089600,10.918089599609376,0.12624740600585938,0.5730264782905579,0.058412134647369385
1683119077605926700,10.9359267578125,-0.19190692901611328,-0.041927218437194824,0.011507987976074219
1683119077623766800,10.953766845703125,0.3035154342651367,0.4641295075416565,0.3215309679508209
1683119077641615600,10.97161572265625,-0.008358955383300781,0.45549845695495605,-0.21060878038406372
1683119077659457800,10.989457763671876,-0.07022285461425781,0.11222416162490845,0.5301535129547119
1683119077677294300,11.00729443359375,0.0843362808227539,0.7968834042549133,-0.25296664237976074
1683119077695122700,11.025122802734375,0.035709381103515625,-0.025500059127807617,0.3985711932182312
1683119077712971800,11.0429716796875,-0.034667015075683594,0.1347978115081787,-0.08858060836791992
1683119077730812200,11.060812255859375,-0.21898365020751953,0.23698633909225464,0.06489139795303345
1683119077748649000,11.07864892578125,0.32081031799316406,0.42285335063934326,0.16449064016342163
1683119077766486800,11.09648681640625,-0.14977550506591797,0.20640796422958374,-0.15301209688186646
1683119077784316200,11.114316162109375,-0.06473159790039062,0.5915968418121338,0.4693375825881958
1683119077802168300,11.132168212890624,0.24818038940429688,0.5257973670959473,-0.2180139422416687
1683119077820003000,11.150003173828125,-0.1187887191772461,0.026415467262268066,0.5336418747901917
1683119077837849000,11.16784912109375,-0.09011268615722656,0.6775825023651123,-0.10498708486557007
1683119077855683800,11.185683837890625,0.058028221130371094,-0.029567837715148926,0.28697776794433594
1683119077873524200,11.203524169921875,0.2865743637084961,0.5414376258850098,0.1334020495414734
1683119077891358700,11.221358642578124,-0.13810443878173828,0.35601866245269775,-0.0411219596862793
1683119077909205000,11.239205078125,0.17437171936035156,0.2500905394554138,0.4934576451778412
1683119077927039700,11.257039794921875,0.06296062469482422,0.6336305141448975,-0.2470913529396057
1683119077944879600,11.274879638671875,-0.06076526641845703,0.0019603967666625977,0.48520657420158386
1683119077962718500,11.292718505859375,0.0249176025390625,0.22367453575134277,-0.19212645292282104
1683119077980552700,11.310552734375,-0.03242778778076172,0.10158336162567139,0.2510364055633545
1683119077998400300,11.328400146484375,0.17770099639892578,0.3585570454597473,-0.08285665512084961
1683119078016231400,11.3462314453125,-0.1586456298828125,0.13664984703063965,0.07684886455535889
1683119078034074000,11.36407421875,0.11783218383789062,0.7763628959655762,0.34820854663848877
1683119078051913700,11.381913818359376,0.05752849578857422,0.39418667554855347,-0.14257073402404785
1683119078069751800,11.399751708984375,-0.03145122528076172,0.09856319427490234,0.520715594291687
1683119078087582000,11.41758203125,0.012479782104492188,0.7089126110076904,-0.16183292865753174
1683119078105430300,11.43543017578125,0.1527090072631836,-0.12654781341552734,0.37845003604888916
1683119078123258400,11.45325830078125,0.07774162292480469,0.39317119121551514,-0.12314552068710327
1683119078141106400,11.4711064453125,-0.02107715606689453,0.34273064136505127,0.19705426692962646
1683119078158948900,11.488948974609375,0.2984457015991211,0.492492139339447,0.2967506945133209
1683119078176786000,11.506785888671875,-0.07507896423339844,0.4474003314971924,-0.10574287176132202
1683119078194626300,11.524626220703125,0.08843517303466797,0.1901463270187378,0.47920116782188416
1683119078212462300,11.54246240234375,-0.059784889221191406,0.19447565078735352,-0.22315669059753418
1683119078230303200,11.56030322265625,-0.05754375457763672,0.09008324146270752,0.34611114859580994
1683119078248141000,11.57814111328125,0.027688026428222656,0.33894187211990356,-0.23521435260772705
1683119078265984800,11.59598486328125,-0.0695943832397461,0.14089787006378174,0.3333183526992798
1683119078283819500,11.613819580078125,0.15133380889892578,0.8583736419677734,0.02131432294845581
1683119078301660000,11.631659912109376,-0.08180522918701172,0.1843549609184265,-0.02735525369644165
1683119078319495200,11.6494951171875,0.14693927764892578,0.26776862144470215,0.5249382257461548
1683119078337338000,11.667338134765625,-0.012514114379882812,0.5890606641769409,-0.23145335912704468
1683119078355175400,11.685175537109375,0.1061716079711914,-0.034282684326171875,0.4154895842075348
1683119078373015600,11.703015625,0.004204750061035156,0.42738211154937744,-0.2174353003501892
1683119078390853600,11.720853515625,0.028842926025390625,0.2741648554801941,0.408885657787323
1683119078408693800,11.73869384765625,0.23708248138427734,0.38024914264678955,-0.07735514640808105
1683119078426531800,11.75653173828125,-0.10535240173339844,0.30800437927246094,0.11124646663665771
1683119078444371500,11.774371337890624,0.10758781433105469,0.5612657070159912,0.470089316368103
1683119078462208300,11.792208251953125,-0.15555286407470703,0.09669959545135498,-0.21927869319915771
1683119078480051000,11.810051025390624,-0.0780935287475586,0.1665940284729004,0.36787092685699463
1683119078497887700,11.8278876953125,0.006794929504394531,0.3780584931373596,-0.3377379775047302
1683119078515724300,11.845724365234375,-0.05336570739746094,0.014078617095947266,0.4359340965747833
1683119078533561000,11.86356103515625,0.03473377227783203,0.7267165184020996,-0.2594592571258545
1683119078551389400,11.881389404296876,0.0880270004272461,0.01787590980529785,0.21495074033737183
1683119078569246200,11.89924609375,0.14659595489501953,0.6129285097122192,0.39486783742904663
1683119078587083500,11.91708349609375,-0.20760822296142578,0.3913692235946655,-0.19022142887115479
1683119078604907800,11.93490771484375,0.24938488006591797,0.01484072208404541,0.3973065912723541
1683119078622754300,11.95275439453125,-0.03869819641113281,0.4473974108695984,-0.2106553316116333
1683119078640596700,11.9705966796875,-0.06962966918945312,0.28120940923690796,0.4561021327972412
1683119078658441000,11.98844091796875,0.11176109313964844,0.35098278522491455,-0.23192620277404785
1683119078676277500,12.006277587890626,-0.057272911071777344,0.22983849048614502,0.38533732295036316
1683119078694117400,12.024117431640626,0.022600173950195312,0.80495685338974,0.18643906712532043
1683119078711955500,12.04195556640625,-0.1441516876220703,-0.0939640998840332,-0.12976586818695068
1683119078729795600,12.059795654296876,0.1710042953491211,0.1886957287788391,0.2920682430267334
1683119078747633700,12.077633544921875,-0.10394001007080078,0.29885852336883545,-0.29337209463119507
1683119078765473800,12.095473876953125,-0.12044525146484375,-0.09765625,0.36752843856811523
1683119078783303400,12.113303466796875,-0.0021076202392578125,0.7019546031951904,-0.4069363474845886
1683119078801155000,12.131155029296876,0.007348060607910156,0.016430020332336426,0.4259960353374481
1683119078818987500,12.148987548828124,0.0299072265625,0.5638916492462158,0.047051310539245605
1683119078836832000,12.16683203125,-0.18408489227294922,0.20345425605773926,-0.04208308458328247
1683119078854656800,12.18465673828125,0.34523868560791016,0.14480137825012207,0.3899760842323303
1683119078872510500,12.202510498046875,-0.2262401580810547,0.4260218143463135,-0.18514162302017212
1683119078890344700,12.2203447265625,0.055609703063964844,0.271475613117218,0.3497084379196167
1683119078908185900,12.238185791015624,0.22256755828857422,0.21923255920410156,-0.285395085811615
1683119078926023400,12.2560234375,-0.06232166290283203,0.15412461757659912,0.46212995052337646
1683119078943863300,12.27386328125,0.017484664916992188,0.7137589454650879,-0.10353630781173706
1683119078961701400,12.291701416015625,-0.037886619567871094,-0.14390873908996582,0.12091201543807983
1683119078979541000,12.309541015625,0.11475276947021484,0.4102543592453003,0.25069499015808105
1683119078997379300,12.32737939453125,-0.2547950744628906,0.13017308712005615,-0.22399044036865234
1683119079015219500,12.345219482421875,0.13114547729492188,-0.08381485939025879,0.2685137987136841
1683119079033053700,12.3630537109375,0.15210914611816406,0.5760922431945801,-0.32730865478515625
1683119079050897000,12.38089697265625,-0.10359764099121094,0.07507479190826416,0.4851754903793335
1683119079068735200,12.3987353515625,-0.012866973876953125,0.5687544345855713,-0.18202757835388184
1683119079086574800,12.416574951171874,-0.02028179168701172,0.12321341037750244,0.23006987571716309
1683119079104408800,12.434408935546875,0.2054910659790039,0.2652890086174011,0.18576651811599731
1683119079122252800,12.452252685546876,-0.2661247253417969,0.2557249069213867,-0.062283873558044434
1683119079140076800,12.470076904296874,0.25754642486572266,0.28320759534835815,0.2666272222995758
1683119079157931500,12.487931640625,0.1374225616455078,0.012604832649230957,-0.23182183504104614
1683119079175757300,12.50575732421875,-0.17250728607177734,0.3029007315635681,0.5021884441375732
1683119079193609200,12.523609130859375,0.1436929702758789,0.6830161809921265,-0.2521257996559143
1683119079211444500,12.541444580078124,0.08575725555419922,-0.2460860013961792,0.34896761178970337
1683119079229288700,12.559288818359375,-0.039642333984375,0.4452053904533386,-0.04394882917404175
1683119079247126500,12.57712646484375,-0.23219013214111328,-0.0017483234405517578,0.002792179584503174
1683119079264962300,12.59496240234375,0.23094940185546875,0.06884759664535522,0.19045567512512207
1683119079282787000,12.612787109375,-0.12927627563476562,0.441861629486084,-0.251941442489624
1683119079300644400,12.630644287109375,-0.0489044189453125,0.2463754415512085,0.4485441744327545
1683119079318480100,12.648480224609376,0.15419673919677734,0.5278301239013672,-0.24771016836166382
1683119079336324900,12.666324951171875,-0.06890487670898438,0.13899517059326172,0.47396227717399597
1683119079354157800,12.68415771484375,-0.02451610565185547,0.33063918352127075,-0.08986681699752808
1683119079372000300,12.702000244140624,-0.1562519073486328,0.2108224630355835,0.2298499345779419
1683119079389837000,12.719837158203125,0.30586814880371094,0.4720156192779541,0.13854533433914185
1683119079407676700,12.7376767578125,-0.11211967468261719,-0.08873498439788818,-0.14431458711624146
1683119079425510100,12.75551025390625,0.03608417510986328,0.4458056092262268,0.4804137647151947
1683119079443354600,12.773354736328125,0.21229171752929688,0.5373553037643433,-0.25455641746520996
1683119079461192400,12.7911923828125,-0.09235477447509766,-0.2350984811782837,0.45389503240585327
1683119079479032600,12.809032470703125,-0.12240982055664062,0.5776146054267883,-0.20259904861450195
1683119079496866300,12.8268662109375,0.009469985961914062,-0.03931629657745361,0.24888992309570312
1683119079514710800,12.844710693359374,0.1699819564819336,0.13707447052001953,0.030056774616241455
1683119079532548400,12.86254833984375,-0.19525146484375,0.28911590576171875,-0.11615079641342163
1683119079550387200,12.88038720703125,0.17453956604003906,0.44982659816741943,0.4141930639743805
1683119079568227800,12.898227783203126,0.049427032470703125,0.36358898878097534,-0.24509811401367188
1683119079586066700,12.916066650390626,-0.2122478485107422,0.2547765374183655,0.5400345325469971
1683119079603905000,12.933905029296875,0.03973197937011719,0.48227518796920776,-0.1680315136909485
1683119079621735200,12.951735107421875,0.054286956787109375,-0.007812678813934326,0.38928043842315674
1683119079639574000,12.969573974609375,0.09039306640625,0.4124486446380615,-0.09421885013580322
1683119079657422300,12.98742236328125,0.023003578186035156,-0.12942200899124146,0.09486716985702515
1683119079675261000,13.005260986328125,0.23000240325927734,0.563812255859375,0.31488099694252014
1683119079693096000,13.023095947265626,-0.021142005920410156,0.40467798709869385,-0.17855125665664673
1683119079710938600,13.040938720703124,-0.0262908935546875,-0.03454369306564331,0.5505886077880859
1683119079728778200,13.0587783203125,-0.028280258178710938,0.5906745791435242,-0.23504728078842163
1683119079746611700,13.07661181640625,0.03892230987548828,-0.20784372091293335,0.38597384095191956
1683119079764456200,13.094456298828124,-0.05850410461425781,0.15370750427246094,-0.17898517847061157
1683119079782294500,13.11229443359375,-0.04092597961425781,0.22253191471099854,0.16986507177352905
1683119079800134400,13.130134521484376,0.2548551559448242,0.6182408928871155,0.2205488383769989
1683119079817970000,13.147969970703125,-0.18700218200683594,0.19282448291778564,-0.10706210136413574
1683119079835811600,13.1658115234375,0.0027818679809570312,0.3711198568344116,0.5174185633659363
1683119079853650400,13.183650390625,0.02519989013671875,0.42551130056381226,-0.21287816762924194
1683119079871479300,13.201479248046875,-0.022962570190429688,-0.03647226095199585,0.48272183537483215
1683119079889320000,13.21931982421875,-0.049592018127441406,0.4490480422973633,-0.22876179218292236
1683119079907165400,13.23716552734375,0.13109111785888672,-0.12674766778945923,0.3278581202030182
1683119079924998400,13.254998291015625,0.18718814849853516,0.6295827627182007,0.027043282985687256
1683119079942846000,13.272845947265624,-0.1352987289428711,0.2893696427345276,-0.026428639888763428
1683119079960669700,13.290669677734375,0.09124946594238281,0.11371523141860962,0.5329751372337341
1683119079978526200,13.308526123046875,-0.10638904571533203,0.4908619523048401,-0.29924505949020386
1683119079996363000,13.326363037109376,0.006415367126464844,-0.0499764084815979,0.42968565225601196
1683119080014201600,13.34420166015625,-0.017324447631835938,0.07097172737121582,-0.3222723603248596
1683119080032028700,13.362028564453125,-0.009968757629394531,0.23409253358840942,0.32905256748199463
1683119080049879800,13.3798798828125,0.19504070281982422,0.4615011215209961,-0.1460842490196228
1683119080067718400,13.397718505859375,-0.17056846618652344,0.0779653787612915,0.10878801345825195
1683119080085558000,13.41555810546875,0.05265998840332031,0.7517980933189392,0.3990592956542969
1683119080103395600,13.4333955078125,-0.07147979736328125,0.19617414474487305,-0.19016051292419434
1683119080121236000,13.451236083984375,0.002716064453125,0.06998032331466675,0.4599778652191162
1683119080139074000,13.469073974609374,0.028638839721679688,0.48898935317993164,-0.29200172424316406
1683119080156896800,13.486896728515624,0.03144073486328125,-0.0687410831451416,0.39890748262405396
1683119080174756900,13.5047568359375,0.0955667495727539,0.4906967878341675,-0.19913095235824585
1683119080192590600,13.522590576171876,-0.07520103454589844,0.21133238077163696,0.27203691005706787
1683119080210430500,13.540430419921876,0.04838085174560547,0.47780805826187134,0.3226076364517212
1683119080228269800,13.558269775390626,-0.2408151626586914,0.21798759698867798,-0.21759676933288574
1683119080246107600,13.576107666015625,0.19172096252441406,0.030058622360229492,0.3779335618019104
1683119080263947300,13.593947265625,-0.09049129486083984,0.05315583944320679,-0.3310049772262573
1683119080281785300,13.611785400390625,-0.08270263671875,0.1765141487121582,0.3444540202617645
1683119080299625500,13.62962548828125,-0.0033941268920898438,0.5203860998153687,-0.2868465185165405
1683119080317463000,13.647463134765625,-0.10356998443603516,0.007564365863800049,0.3693541884422302
1683119080335303400,13.665303466796875,-0.014723777770996094,0.8514899015426636,0.06735461950302124
1683119080353141500,13.6831416015625,-0.1100912094116211,0.023276031017303467,-0.07165813446044922
1683119080370981000,13.700981201171874,0.1638660430908203,0.21135205030441284,0.4527340233325958
1683119080388819000,13.71881884765625,-0.16313457489013672,0.40671515464782715,-0.2732134461402893
1683119080406659300,13.736659423828126,-0.030200958251953125,-0.1079140305519104,0.35505446791648865
1683119080424496600,13.75449658203125,0.08375740051269531,0.48532500863075256,-0.282718300819397
1683119080442337300,13.772337158203126,-0.07816123962402344,0.13837343454360962,0.43908679485321045
1683119080460170200,13.790170166015624,0.026246070861816406,0.4221346974372864,-0.010215461254119873
1683119080478015200,13.80801513671875,-0.21107769012451172,0.08866524696350098,-0.03492748737335205
1683119080495841300,13.82584130859375,0.2167825698852539,0.264720618724823,0.39354208111763
1683119080513688300,13.843688232421876,-0.2149372100830078,-0.0038300156593322754,-0.30322372913360596
1683119080531530800,13.86153076171875,0.027413368225097656,0.14646124839782715,0.2580312490463257
1683119080549371100,13.87937109375,0.10410213470458984,0.31034719944000244,-0.31779617071151733
1683119080567209000,13.897208984375,-0.11626720428466797,-0.009031057357788086,0.44843706488609314
1683119080585043500,13.91504345703125,-0.041146278381347656,0.8043696284294128,-0.18814235925674438
1683119080602886700,13.93288671875,0.015512466430664062,-0.07597017288208008,0.18594342470169067
1683119080620727000,13.95072705078125,0.06876564025878906,0.38399165868759155,0.3266392648220062
1683119080638563800,13.968563720703125,-0.2605133056640625,0.24768829345703125,-0.19996976852416992
1683119080656405800,13.98640576171875,0.26380443572998047,-0.05273371934890747,0.2888890206813812
1683119080674242600,14.00424267578125,0.1287841796875,0.4359426498413086,-0.205238938331604
1683119080692082400,14.02208251953125,-0.18459510803222656,0.14090943336486816,0.45792117714881897
1683119080709920500,14.03992041015625,0.048676490783691406,0.28401893377304077,-0.24454563856124878
1683119080727760600,14.0577607421875,-0.06923770904541016,0.03827929496765137,0.22525542974472046
1683119080745598700,14.0755986328125,0.028860092163085938,0.3770011067390442,0.1217947006225586
1683119080763438300,14.093438232421875,-0.2732963562011719,-0.19530260562896729,-0.10714578628540039
1683119080781273300,14.1112734375,0.19521331787109375,0.21241068840026855,0.18726715445518494
1683119080799119600,14.12911962890625,-0.11125946044921875,0.20424896478652954,-0.22691363096237183
1683119080816954400,14.146954345703126,-0.1801586151123047,0.01874333620071411,0.39252838492393494
1683119080834792000,14.1647919921875,0.1491546630859375,0.7469749450683594,-0.2857460379600525
1683119080852632000,14.182632080078125,0.11262989044189453,-0.10342824459075928,0.3985569477081299
1683119080870470100,14.20047021484375,-0.09454917907714844,0.5010348558425903,0.04299962520599365
1683119080888311800,14.218311767578125,-0.2613258361816406,0.11975336074829102,0.04145079851150513
1683119080906150000,14.23614990234375,0.3625755310058594,0.1461530327796936,0.193037748336792
1683119080923985700,14.253985595703124,-0.12666797637939453,0.32214272022247314,-0.12711822986602783
1683119080941827800,14.271827880859375,0.023163795471191406,0.2751944661140442,0.3680034875869751
1683119080959656000,14.289656005859374,0.2272348403930664,0.19993293285369873,-0.249406635761261
1683119080977500700,14.307500732421875,-0.17421722412109375,0.07481878995895386,0.41979897022247314
1683119080995344000,14.32534375,-0.07671833038330078,0.45781487226486206,-0.13069045543670654
1683119081013183700,14.343183837890624,-0.12176513671875,-0.255973756313324,0.171474426984787
1683119081031021600,14.361021484375,0.16013336181640625,0.3373885750770569,0.002496778964996338
1683119081048861700,14.37886181640625,-0.16576004028320312,0.006988883018493652,-0.13950669765472412
1683119081066699500,14.396699462890625,0.09471321105957031,0.1162639856338501,0.3116587698459625
1683119081084539600,14.41453955078125,0.1464376449584961,0.542968213558197,-0.2879610061645508
1683119081102377500,14.43237744140625,-0.15395450592041016,0.06240546703338623,0.47333067655563354
1683119081120217600,14.450217529296875,-0.031322479248046875,0.5780858397483826,-0.08921921253204346
1683119081138055700,14.4680556640625,0.030989646911621094,0.024870753288269043,0.29009026288986206
1683119081155884000,14.485884033203124,0.18123149871826172,0.12742024660110474,0.004436790943145752
1683119081173733000,14.503733154296874,-0.15306949615478516,0.20823240280151367,0.06815516948699951
1683119081191557600,14.5215576171875,0.2709932327270508,0.5353526473045349,0.31767016649246216
1683119081209410000,14.53941015625,0.1196584701538086,-0.02778083086013794,-0.19678235054016113
1683119081227252700,14.557252685546874,-0.324249267578125,0.2351536750793457,0.5022103786468506
1683119081245077500,14.575077392578125,0.057547569274902344,0.5317186713218689,-0.2090936303138733
1683119081262917400,14.59291748046875,0.0787200927734375,-0.43033385276794434,0.29651087522506714
1683119081280766200,14.61076611328125,-0.07037734985351562,0.3436774015426636,-0.20943641662597656
1683119081298607600,14.628607666015625,-0.13561439514160156,-0.0016989707946777344,0.11057639122009277
1683119081316446000,14.646446044921875,0.20433998107910156,0.34054166078567505,0.21408218145370483
1683119081334278100,14.664278076171875,-0.03164100646972656,0.41902679204940796,-0.17513298988342285
1683119081352123100,14.682123046875,-0.08992481231689453,0.18275105953216553,0.5477191209793091
1683119081369951700,14.69995166015625,0.04083442687988281,0.5220484733581543,-0.1974084973335266
1683119081387788800,14.717788818359375,-0.025549888610839844,-0.11372017860412598,0.4001496136188507
1683119081405631200,14.73563134765625,-0.012587547302246094,0.19791024923324585,-0.15144580602645874
1683119081423460600,14.753460693359376,-0.022768020629882812,0.13766121864318848,0.3124665319919586
1683119081441315800,14.77131591796875,0.31381797790527344,0.5960265398025513,0.06210428476333618
1683119081459159600,14.78915966796875,0.01836109161376953,-0.12882107496261597,-0.05146998167037964
1683119081476992300,14.8069921875,-0.10103416442871094,0.3666377067565918,0.4996761977672577
1683119081494834200,14.824834228515625,-0.052318572998046875,0.4816255569458008,-0.2293987274169922
1683119081512674800,14.8426748046875,0.06561088562011719,-0.37639111280441284,0.39095374941825867
1683119081530509800,14.860509765625,-0.04379749298095703,0.4017646908760071,-0.33376556634902954
1683119081548354800,14.878354736328125,-0.012822151184082031,-0.00499039888381958,0.31931865215301514
1683119081566190300,14.8961904296875,0.0909433364868164,0.22502797842025757,-0.09316200017929077
1683119081584029000,14.91402880859375,-0.08135128021240234,0.32256531715393066,-0.037863314151763916
1683119081601868300,14.931868408203124,0.12101173400878906,0.3548852801322937,0.48257243633270264
1683119081619693800,14.94969384765625,-0.059807777404785156,0.31552624702453613,-0.1946774125099182
1683119081637549000,14.967549072265625,0.034542083740234375,0.027257144451141357,0.40671199560165405
1683119081655383600,14.985383544921875,0.106048583984375,0.2332850694656372,-0.2379000186920166
1683119081673226800,15.003226806640624,0.054744720458984375,0.09203672409057617,0.40724313259124756
1683119081691063800,15.021063720703125,0.1056833267211914,0.4465688467025757,-0.2107716202735901
1683119081708902000,15.03890185546875,0.05812549591064453,-0.1066814661026001,0.1669418215751648
1683119081726742000,15.056741943359375,-0.026082992553710938,0.6522343158721924,0.3614157438278198
1683119081744579300,15.074579345703125,-0.15285968780517578,0.2648744583129883,-0.19061708450317383
1683119081762416400,15.09241650390625,0.14229965209960938,-0.2734377980232239,0.386275053024292
1683119081780257800,15.1102578125,0.0061855316162109375,0.41068702936172485,-0.3828853964805603
1683119081798098000,15.128097900390625,-0.05076885223388672,-0.05861145257949829,0.3710053861141205
1683119081815924000,15.145924072265625,-0.04027843475341797,0.1647217869758606,-0.2895817756652832
1683119081833775400,15.163775390625,-0.04316139221191406,0.28809499740600586,0.23855552077293396
1683119081851612200,15.181612060546875,0.08748149871826172,0.6426270604133606,0.228582501411438
1683119081869454800,15.199454833984374,-0.21483516693115234,0.053444743156433105,-0.131686270236969
1683119081887284500,15.217284423828126,0.2023773193359375,0.1751800775527954,0.40920302271842957
1683119081905119500,15.235119384765625,0.061885833740234375,0.17264127731323242,-0.2585357427597046
1683119081922956000,15.2529560546875,0.004000663757324219,0.06044274568557739,0.4374386966228485
1683119081940811800,15.270811767578126,0.05462646484375,0.49882781505584717,-0.2833528518676758
1683119081958645500,15.2886455078125,0.1130218505859375,-0.15622764825820923,0.38866743445396423
1683119081976488200,15.30648828125,-0.018401145935058594,0.7504091262817383,0.06533664464950562
1683119081994325000,15.324324951171874,-0.20488357543945312,0.050506651401519775,-0.06283348798751831
1683119082012165000,15.3421650390625,0.22939395904541016,-0.022966861724853516,0.4571206569671631
1683119082030002400,15.36000244140625,-0.19313907623291016,0.3310028910636902,-0.36591529846191406
1683119082047842600,15.377842529296874,-0.028830528259277344,-0.04998427629470825,0.35916346311569214
1683119082065681000,15.395680908203126,-0.02591228485107422,0.14810490608215332,-0.38624244928359985
1683119082083521000,15.41352099609375,-0.10072612762451172,0.21149873733520508,0.3987753987312317
1683119082101356300,15.431356201171875,0.09958934783935547,0.5766503810882568,-0.08599674701690674
1683119082119198500,15.449198486328125,-0.06445980072021484,-0.04599398374557495,0.04707688093185425
1683119082137038800,15.467038818359375,0.1497211456298828,0.4912663996219635,0.428469181060791
1683119082154875100,15.484875244140625,-0.11975288391113281,0.00780099630355835,-0.256133496761322
1683119082172713700,15.502713623046875,0.06471443176269531,0.04755532741546631,0.3638782501220703
1683119082190551600,15.520551513671874,0.04088306427001953,0.4583934545516968,-0.30809229612350464
1683119082208395300,15.538395263671875,0.056446075439453125,-0.2115873098373413,0.4978716969490051
1683119082226232300,15.556232421875,0.016429901123046875,0.6799004673957825,-0.18133270740509033
1683119082244065000,15.57406494140625,-0.08540630340576172,-0.019431769847869873,0.16998982429504395
1683119082261910000,15.591909912109376,0.0816946029663086,0.2389587163925171,0.3586949110031128
1683119082279747800,15.609747802734375,-0.263519287109375,0.1163068413734436,-0.29477423429489136
1683119082297588000,15.627587890625,0.13657855987548828,-0.03339165449142456,0.26935887336730957
1683119082315425800,15.64542578125,0.031617164611816406,0.05785095691680908,-0.3282333016395569
1683119082333266000,15.663265869140625,-0.18277263641357422,0.1721210479736328,0.39264464378356934
1683119082351103500,15.681103515625,0.011574745178222656,0.5031596422195435,-0.27084386348724365
1683119082368942300,15.6989423828125,0.0231170654296875,-0.0816413164138794,0.30771172046661377
1683119082386779400,15.716779296875,0.0069942474365234375,0.619153618812561,0.17883577942848206
1683119082404621600,15.73462158203125,-0.1999521255493164,-0.1447107195854187,-0.1465843915939331
1683119082422447400,15.752447265625,0.17732906341552734,0.13735133409500122,0.34889844059944153
1683119082440298500,15.770298583984374,-0.055461883544921875,0.31431448459625244,-0.28192657232284546
1683119082458137300,15.788137451171876,0.045851707458496094,-0.22233706712722778,0.397807776927948
1683119082475977000,15.80597705078125,0.09073257446289062,0.5534138083457947,-0.31346607208251953
1683119082493810400,15.823810546875,0.016699790954589844,-0.07549524307250977,0.3380415439605713
1683119082511660800,15.841660888671875,0.00002765655517578125,0.17287588119506836,0.006061911582946777
1683119082529492700,15.85949267578125,-0.28638267517089844,0.050171613693237305,-0.05269581079483032
1683119082547332900,15.877332763671875,0.2545814514160156,0.10982465744018555,0.20840808749198914
1683119082565163500,15.89516357421875,-0.20798969268798828,-0.03431355953216553,-0.24037235975265503
1683119082583007000,15.913007080078126,-0.03096294403076172,0.19377493858337402,0.2711484432220459
1683119082600851500,15.9308515625,0.15736961364746094,0.3370591402053833,-0.27272993326187134
1683119082618686000,15.94868603515625,-0.12957191467285156,-0.09693139791488647,0.4268220365047455
1683119082636529000,15.96652880859375,-0.07915878295898438,0.64427649974823,-0.12024098634719849
1683119082654363400,15.98436328125,-0.07314205169677734,-0.16380959749221802,0.13180327415466309
1683119082672207600,16.00220751953125,0.19211196899414062,0.26578277349472046,0.2293706238269806
1683119082690043000,16.02004296875,-0.2235240936279297,0.18083977699279785,-0.22229373455047607
1683119082707883300,16.03788330078125,0.30419349670410156,-0.1743314266204834,0.2839965224266052
1683119082725722000,16.05572216796875,0.16353797912597656,0.3768848180770874,-0.26828116178512573
1683119082743560000,16.073559814453127,-0.20901012420654297,0.07966351509094238,0.4723691940307617
1683119082761397000,16.09139697265625,0.009785652160644531,0.27956247329711914,-0.15799939632415771
1683119082779241000,16.109240966796875,-0.0135040283203125,-0.041840553283691406,0.16672474145889282
1683119082797077800,16.127077880859375,0.17456531524658203,0.16223549842834473,0.020046234130859375
1683119082814907000,16.144906982421876,-0.24079418182373047,-0.19650143384933472,-0.12189304828643799
1683119082832744000,16.162743896484375,0.21706104278564453,0.3688317537307739,0.19184225797653198
1683119082850593300,16.18059326171875,0.029580116271972656,0.17952531576156616,-0.21253043413162231
1683119082868436500,16.1984365234375,-0.2955484390258789,0.09725642204284668,0.4710828959941864
1683119082886252500,16.21625244140625,0.09078311920166016,0.7210906147956848,-0.19013243913650513
1683119082904111000,16.234111083984374,0.13228893280029297,-0.2546544671058655,0.3502378463745117
1683119082921949400,16.251949462890625,-0.03679656982421875,0.265026330947876,-0.017968475818634033
1683119082939788000,16.2697880859375,-0.21918869018554688,0.07537603378295898,0.0462765097618103
1683119082957628200,16.287628173828125,0.3195648193359375,0.19981181621551514,0.19228485226631165
1683119082975467000,16.305467041015625,-0.04980754852294922,0.25020140409469604,-0.1537003517150879
1683119082993304600,16.3233046875,-0.1974649429321289,0.26408636569976807,0.4870295524597168
1683119083011143700,16.341143798828124,0.08847236633300781,0.19744980335235596,-0.19962257146835327
1683119083028983600,16.358983642578124,-0.05328941345214844,-0.15573495626449585,0.2995871305465698
1683119083046823000,16.376822998046876,-0.07466506958007812,0.26387012004852295,-0.17423087358474731
1683119083064660200,16.39466015625,-0.10894966125488281,-0.26188361644744873,0.19443440437316895
1683119083082496300,16.412496337890627,0.27626514434814453,0.50544273853302,0.014596223831176758
1683119083100343800,16.43034375,-0.09547901153564453,0.018889307975769043,-0.06469780206680298
1683119083118177300,16.44817724609375,-0.1693744659423828,0.22729700803756714,0.4563557803630829
1683119083136010200,16.46601025390625,0.07213401794433594,0.5811843872070312,-0.22558444738388062
1683119083153858000,16.483858154296875,0.021627426147460938,-0.23511213064193726,0.4256340563297272
1683119083171693300,16.501693359375,-0.09939002990722656,0.37069839239120483,-0.17246806621551514
1683119083189534000,16.519533935546875,-0.027184486389160156,-0.027179837226867676,0.2571853995323181
1683119083207371500,16.53737158203125,0.2545204162597656,-0.007676839828491211,-0.09166067838668823
1683119083225212000,16.5552119140625,-0.04033088684082031,0.1343146562576294,0.06879019737243652
1683119083243046100,16.573046142578125,0.0022516250610351562,0.47457554936408997,0.37965208292007446
1683119083260888600,16.590888671875,0.0036306381225585938,0.01526409387588501,-0.1823030710220337
1683119083278728400,16.608728515625,-0.08179759979248047,-0.07895165681838989,0.357748806476593
1683119083296567600,16.626567626953126,0.02520275115966797,0.3367518186569214,-0.2354089617729187
1683119083314405600,16.644405517578125,0.031124114990234375,-0.41237443685531616,0.2817557454109192
1683119083332244000,16.662243896484377,0.0026922225952148438,0.33440887928009033,-0.2829139232635498
1683119083350084400,16.68008447265625,-0.05903148651123047,0.04503864049911499,0.15449565649032593
1683119083367923000,16.6979228515625,-0.02364826202392578,0.5015379786491394,0.31665942072868347
1683119083385754000,16.715754150390627,-0.061219215393066406,0.37971147894859314,-0.18009275197982788
1683119083403601000,16.733600830078124,0.16169071197509766,-0.09425336122512817,0.41521093249320984
1683119083421436200,16.751436279296875,0.0026264190673828125,0.3345634341239929,-0.1801471710205078
1683119083439281700,16.76928173828125,-0.04541969299316406,-0.04072833061218262,0.3596968650817871
1683119083457112300,16.7871123046875,0.09220600128173828,0.09640944004058838,-0.26582372188568115
1683119083474944300,16.8049443359375,0.02398204803466797,0.17254287004470825,0.355033278465271
1683119083492794400,16.82279443359375,0.10553550720214844,0.6694086790084839,0.10621660947799683
1683119083510631400,16.84063134765625,-0.17992782592773438,-0.14666593074798584,-0.09117066860198975
1683119083528475400,16.858475341796876,0.1124725341796875,0.11718517541885376,0.35650378465652466
1683119083546312200,16.876312255859375,-0.024991989135742188,0.24747180938720703,-0.2952643036842346
1683119083564145700,16.894145751953126,-0.04566669464111328,-0.3404569625854492,0.33053919672966003
1683119083581993200,16.9119931640625,-0.03333282470703125,0.3739144504070282,-0.4030977487564087
1683119083599829000,16.9298291015625,-0.0016946792602539062,0.005721330642700195,0.37863385677337646
1683119083617668000,16.947668212890626,-0.07863712310791016,0.5067086815834045,0.001979053020477295
1683119083635505700,16.965505615234374,-0.13356304168701172,0.20583146810531616,-0.02568870782852173
1683119083653341200,16.983341064453125,0.19341468811035156,0.2080543041229248,0.47387516498565674
1683119083671183400,17.001183349609374,-0.2162332534790039,0.27147120237350464,-0.20399093627929688
1683119083689023500,17.0190234375,-0.011823654174804688,0.04880380630493164,0.33426594734191895
1683119083706858500,17.0368583984375,0.07766914367675781,0.05940133333206177,-0.3519386649131775
1683119083724704000,17.0547041015625,-0.06490230560302734,0.08761036396026611,0.4627262055873871
1683119083742539000,17.0725390625,0.049881935119628906,0.5421856045722961,-0.22170639038085938
1683119083760370000,17.090369873046875,0.06924152374267578,-0.27300816774368286,0.14408838748931885
1683119083778217200,17.10821728515625,0.11106204986572266,0.4603957235813141,0.36618104577064514
1683119083796057300,17.126057373046876,-0.20068073272705078,0.012550413608551025,-0.26165056228637695
1683119083813894700,17.143894775390624,0.07678604125976562,-0.2820531129837036,0.31403210759162903
1683119083831722800,17.16172265625,-0.015560150146484375,0.3526933789253235,-0.3982791304588318
1683119083849572600,17.179572509765624,-0.0850830078125,-0.0232696533203125,0.4511851370334625
1683119083867413000,17.1974130859375,-0.12285614013671875,0.3768051564693451,-0.29132556915283203
1683119083885250800,17.215250732421875,-0.040737152099609375,0.0857696533203125,0.22191303968429565
1683119083903088400,17.23308837890625,0.05751228332519531,0.5172919631004333,0.2587941288948059
1683119083920928500,17.250928466796875,-0.2766904830932617,0.04279512166976929,-0.13004034757614136
1683119083938768400,17.268768310546875,0.16749095916748047,0.1033700704574585,0.30771538615226746
1683119083956606200,17.286606201171875,0.008971214294433594,-0.08331930637359619,-0.2938280701637268
1683119083974434300,17.304434326171876,-0.15424442291259766,0.055648207664489746,0.41384464502334595
1683119083992284000,17.322283935546874,0.00012874603271484375,0.5007995367050171,-0.3302149176597595
1683119084010124000,17.3401240234375,0.07430553436279297,-0.35778558254241943,0.3618851602077484
1683119084027961300,17.35796142578125,-0.0327911376953125,0.5868154764175415,0.021358251571655273
1683119084045789700,17.375789794921875,-0.20960140228271484,-0.15214121341705322,-0.07421833276748657
1683119084063639300,17.393639404296874,0.22582340240478516,-0.15241646766662598,0.2625609338283539
1683119084081476900,17.411476806640625,-0.23813343048095703,0.2291131615638733,-0.3315587043762207
1683119084099320000,17.429320068359374,0.0075359344482421875,-0.03337204456329346,0.2724609375
1683119084117157400,17.447157470703125,-0.05290412902832031,0.2800585627555847,-0.3287844657897949
1683119084134979300,17.464979248046873,0.0023870468139648438,0.04058480262756348,0.3453283905982971
1683119084152835300,17.48283544921875,0.03683948516845703,0.48284921050071716,-0.02922821044921875
1683119084170669800,17.500669921875,-0.15365123748779297,-0.06255149841308594,0.09148365259170532
1683119084188500700,17.518500732421874,0.24969959259033203,0.28197211027145386,0.20422694087028503
1683119084206351600,17.5363515625,-0.17340373992919922,-0.08326518535614014,-0.24726533889770508
1683119084224186000,17.55418603515625,0.08345985412597656,0.09793102741241455,0.3336913585662842
1683119084242029300,17.572029296875,0.1495809555053711,0.37242522835731506,-0.2834596037864685
1683119084259858700,17.589858642578125,0.005206108093261719,-0.3361685276031494,0.42483845353126526
1683119084277706200,17.607706298828123,-0.0717926025390625,0.6152940392494202,-0.16550177335739136
1683119084295541800,17.625541748046874,-0.0668325424194336,-0.18027907609939575,0.14381557703018188
1683119084313384200,17.64338427734375,0.17819786071777344,-0.10439634323120117,0.08257538080215454
1683119084331223800,17.661223876953127,-0.28203487396240234,0.04360324144363403,-0.2672429084777832
1683119084349060900,17.679060791015626,0.26369667053222656,0.00839686393737793,0.2040509581565857
1683119084366903300,17.6969033203125,-0.014110565185546875,0.1039089560508728,-0.3042064905166626
1683119084384724500,17.714724365234375,-0.1790609359741211,0.1984589695930481,0.4283163249492645
1683119084402575600,17.73257568359375,0.12437248229980469,0.4516843259334564,-0.22115600109100342
1683119084420405500,17.750405517578123,0.036556243896484375,-0.15799272060394287,0.32151955366134644
1683119084438258000,17.7682578125,0.08951377868652344,0.391567587852478,0.006629467010498047
1683119084456092400,17.786092529296877,-0.16451454162597656,-0.18806767463684082,-0.05993330478668213
1683119084473938400,17.8039384765625,0.28929996490478516,0.23407375812530518,0.26159384846687317
1683119084491773000,17.82177294921875,-0.04846954345703125,0.26572948694229126,-0.22419357299804688
1683119084509613300,17.83961328125,-0.060334205627441406,-0.13222724199295044,0.4692571759223938
1683119084527439000,17.857439208984374,0.10576820373535156,0.5757996439933777,-0.2637684941291809
1683119084545286400,17.875286376953124,-0.0011119842529296875,-0.20571249723434448,0.3374164402484894
1683119084563130600,17.893130615234377,-0.06643009185791016,-0.048019468784332275,-0.14724469184875488
1683119084580969000,17.910968994140624,-0.20890045166015625,-0.0008290410041809082,-0.014952898025512695
1683119084598806000,17.928805908203124,0.27091407775878906,0.18777912855148315,0.10407918691635132
1683119084616641800,17.946641845703127,-0.20084095001220703,-0.006417393684387207,-0.20534837245941162
1683119084634484500,17.964484375,-0.10126018524169922,0.3753528892993927,0.4056432843208313
1683119084652324600,17.98232470703125,0.2195749282836914,0.3225250244140625,-0.2427707314491272
1683119084670160600,18.00016064453125,-0.1006631851196289,-0.15488070249557495,0.4485650062561035
1683119084687991300,18.0179912109375,-0.12371444702148438,0.49781984090805054,-0.1425786018371582
1683119084705828000,18.035828125,0.029381752014160156,-0.25372523069381714,0.21516180038452148
1683119084723664000,18.053663818359375,0.2517213821411133,0.2787092924118042,0.09423035383224487
1683119084741523200,18.071523193359376,-0.14303302764892578,0.10345089435577393,-0.10620665550231934
1683119084759346000,18.089345947265624,0.15270328521728516,0.015500843524932861,0.42365118861198425
1683119084777195500,18.107195556640626,0.08208370208740234,0.4088703989982605,-0.26311516761779785
1683119084795023600,18.125023681640624,-0.13286399841308594,-0.1297789216041565,0.4270380437374115
1683119084812873000,18.142873046875,-0.034522056579589844,0.07119959592819214,-0.21495431661605835
1683119084830709000,18.160708984375,-0.024682998657226562,-0.12366986274719238,0.17071449756622314
1683119084848550100,18.178550048828125,0.1362018585205078,0.14497774839401245,-0.12058019638061523
1683119084866387500,18.196387451171876,-0.20209407806396484,-0.10173285007476807,0.016187667846679688
1683119084884228600,18.214228515625,0.11659049987792969,0.5716900825500488,0.2943633198738098
1683119084902069000,18.232069091796873,0.036927223205566406,0.2054460644721985,-0.16752499341964722
1683119084919906600,18.249906494140625,-0.12729740142822266,-0.0985451340675354,0.44752952456474304
1683119084937747000,18.267746826171877,-0.02091693878173828,0.5453987121582031,-0.18844729661941528
1683119084955581200,18.285581298828124,0.11976432800292969,-0.3648224472999573,0.30284827947616577
1683119084973418500,18.30341845703125,0.05361747741699219,0.2003263235092163,-0.12611234188079834
1683119084991251000,18.3212509765625,-0.019275665283203125,0.06940257549285889,0.0938490629196167
1683119085009103000,18.33910302734375,0.26279544830322266,0.2617880702018738,0.2734684348106384
1683119085026938000,18.356938232421875,-0.05157184600830078,0.22012847661972046,-0.17956149578094482
1683119085044769500,18.37476953125,0.04742908477783203,0.005635559558868408,0.43469130992889404
1683119085062617300,18.392617431640623,-0.03943920135498047,0.036827266216278076,-0.23437738418579102
1683119085080455400,18.410455322265626,-0.0606231689453125,-0.17201238870620728,0.2842225432395935
1683119085098297900,18.4282978515625,-0.017472267150878906,0.1602737307548523,-0.2694801688194275
1683119085116135400,18.446135498046875,-0.02708148956298828,-0.10935819149017334,0.24854391813278198
1683119085133973200,18.46397314453125,0.1675710678100586,0.6379786729812622,-0.0022873282432556152
1683119085151813400,18.4818134765625,-0.07726669311523438,-0.0014312267303466797,-0.0912962555885315
1683119085169650700,18.499650634765626,0.010794639587402344,0.12389969825744629,0.4744666814804077
1683119085187490800,18.51749072265625,0.023810386657714844,0.4092683792114258,-0.2519558072090149
1683119085205329000,18.535328857421874,0.07806873321533203,-0.2618604898452759,0.3580433428287506
1683119085223152000,18.553152099609374,-0.01678943634033203,0.24379944801330566,-0.2196495532989502
1683119085241006300,18.57100634765625,0.025267601013183594,0.02530968189239502,0.32687684893608093
1683119085258845200,18.58884521484375,0.22953033447265625,0.17216038703918457,-0.06924569606781006
1683119085276684300,18.606684326171877,-0.1421060562133789,0.16771948337554932,0.03747838735580444
1683119085294524400,18.6245244140625,0.037344932556152344,0.3529691994190216,0.45096510648727417
1683119085312360700,18.642360595703124,-0.14465808868408203,-0.11260217428207397,-0.2706867456436157
1683119085330194400,18.6601943359375,-0.04012584686279297,-0.08825349807739258,0.29284214973449707
1683119085348039700,18.678039794921876,0.0260162353515625,0.20521336793899536,-0.35844361782073975
1683119085365867800,18.69586767578125,-0.02888202667236328,-0.1831231713294983,0.37274229526519775
1683119085383717600,18.713717529296876,0.10175800323486328,0.4630829691886902,-0.29115229845046997
1683119085401557800,18.731557861328124,0.004031181335449219,-0.10471975803375244,0.14392530918121338
1683119085419395300,18.749395263671875,0.026113510131835938,0.4667387306690216,0.396644651889801
1683119085437232400,18.767232421875,-0.18839454650878906,0.21863776445388794,-0.2403712272644043
1683119085455061200,18.785061279296876,0.1349029541015625,-0.17520534992218018,0.3213233947753906
1683119085472920600,18.802920654296877,-0.09833908081054688,0.25143909454345703,-0.2631298899650574
1683119085490750700,18.820750732421875,-0.041812896728515625,0.020293056964874268,0.36866575479507446
1683119085508590000,18.838590087890626,0.14017391204833984,0.0971364974975586,-0.2844828963279724
1683119085526429400,18.856429443359374,-0.0841207504272461,0.04642891883850098,0.29205322265625
1683119085544268300,18.874268310546874,0.0075702667236328125,0.614371657371521,0.22983652353286743
1683119085562106000,18.892106201171874,-0.22977066040039062,-0.2695944309234619,-0.18658030033111572
1683119085579946500,18.909946533203126,0.10612297058105469,-0.006351292133331299,0.2809513509273529
1683119085597784000,18.9277841796875,-0.0883188247680664,0.13331729173660278,-0.3130221962928772
1683119085615624000,18.9456240234375,-0.10154151916503906,-0.24306607246398926,0.33539503812789917
1683119085633457000,18.963456787109376,0.009013175964355469,0.511246383190155,-0.38165080547332764
1683119085651300000,18.981300048828125,-0.05351066589355469,-0.13896417617797852,0.3479827046394348
1683119085669141000,18.99914111328125,-0.005999565124511719,0.4968705475330353,0.08630043268203735
1683119085686967600,19.016967529296874,-0.15585899353027344,0.058002352714538574,-0.1013680100440979
1683119085704817200,19.034817138671876,0.31390857696533203,-0.02492910623550415,0.3228375315666199
1683119085722647800,19.052647705078126,-0.19760894775390625,0.20557492971420288,-0.2237524390220642
1683119085740491800,19.07049169921875,-0.031158447265625,-0.010069072246551514,0.27470362186431885
1683119085758326000,19.088325927734374,0.06324577331542969,0.09830039739608765,-0.33613741397857666
1683119085776172800,19.1061728515625,-0.05289745330810547,-0.023399949073791504,0.42732927203178406
1683119085794013000,19.124012939453124,0.047679901123046875,0.5640887022018433,-0.09459829330444336
1683119085811850800,19.141850830078123,-0.11381053924560547,-0.36056751012802124,0.05429232120513916
1683119085829691000,19.15969091796875,0.10760116577148438,0.24197149276733398,0.2702525854110718
1683119085847528200,19.177528076171875,-0.2333993911743164,0.0008243918418884277,-0.2734086513519287
1683119085865368600,19.19536865234375,0.0714426040649414,-0.3244423270225525,0.20254430174827576
1683119085883206100,19.2132060546875,0.1250438690185547,0.3608509302139282,-0.3782132863998413
1683119085901043700,19.231043701171874,-0.06873703002929688,-0.10887116193771362,0.42306557297706604
1683119085918883800,19.2488837890625,-0.010935783386230469,0.3926007151603699,-0.19191765785217285
1683119085936726800,19.266726806640627,-0.04108715057373047,-0.023012101650238037,0.15075278282165527
1683119085954556400,19.284556396484376,0.24945735931396484,0.15397357940673828,0.1605931520462036
1683119085972398600,19.302398681640625,-0.2652139663696289,0.0882798433303833,-0.11671358346939087
1683119085990239200,19.3202392578125,0.20397567749023438,0.07579398155212402,0.21805620193481445
1683119086008065000,19.33806494140625,0.1707172393798828,-0.16445297002792358,-0.2849411368370056
1683119086025905400,19.355905517578126,-0.19837570190429688,0.061295390129089355,0.44067904353141785
1683119086043759600,19.373759521484374,0.01859283447265625,0.50715172290802,-0.2691153287887573
1683119086061594400,19.391594482421876,0.04076671600341797,-0.3893035650253296,0.24893242120742798
1683119086079433700,19.409433837890624,-0.01850605010986328,0.2924586534500122,-0.026790261268615723
1683119086097273900,19.42727392578125,-0.2281656265258789,-0.18918758630752563,-0.08891332149505615
1683119086115101000,19.445100830078125,0.19542884826660156,-0.1796947717666626,0.13892430067062378
1683119086132946700,19.46294677734375,-0.1328573226928711,0.2758154273033142,-0.2816072702407837
1683119086150790700,19.480790771484376,-0.11902427673339844,0.06454014778137207,0.39021551609039307
1683119086168627000,19.498626953125,0.14405536651611328,0.37153559923171997,-0.24267184734344482
1683119086186468400,19.51646826171875,-0.0072307586669921875,-0.061772823333740234,0.35839277505874634
1683119086204306000,19.534305908203127,-0.035762786865234375,0.22149658203125,-0.07360684871673584
1683119086222132500,19.552132568359376,-0.20819759368896484,-0.02711421251296997,0.10075485706329346
1683119086239983000,19.569983154296875,0.2693643569946289,0.2740802764892578,0.10653191804885864
1683119086257811500,19.5878115234375,-0.043949127197265625,-0.2759075164794922,-0.22264540195465088
1683119086275656400,19.605656494140625,-0.0189208984375,0.19122391939163208,0.3533029556274414
1683119086293501200,19.623501220703126,0.1760425567626953,0.35602709650993347,-0.27989816665649414
1683119086311335700,19.641335693359373,-0.1027841567993164,-0.3125499486923218,0.4042131304740906
1683119086329169700,19.659169677734376,-0.13161849975585938,0.41261303424835205,-0.21093279123306274
1683119086347016000,19.677015869140625,-0.056502342224121094,-0.2114717960357666,0.17675143480300903
1683119086364858400,19.6948583984375,0.19213390350341797,-0.036621809005737305,0.012989580631256104
1683119086382692900,19.71269287109375,-0.21048355102539062,0.06291216611862183,-0.19346433877944946
1683119086400520000,19.73052001953125,0.15955448150634766,0.2295539379119873,0.3394496738910675
1683119086418375000,19.748375,0.045739173889160156,0.20531785488128662,-0.2664985656738281
1683119086436213000,19.766212890625,-0.22172164916992188,0.1285303235054016,0.47381821274757385
1683119086454049500,19.784049560546876,0.008008956909179688,0.36521247029304504,-0.16671890020370483
1683119086471889700,19.8018896484375,0.05424022674560547,-0.12345016002655029,0.32965463399887085
1683119086489727500,19.8197275390625,0.09522533416748047,0.2870047688484192,-0.09595829248428345
1683119086507567600,19.837567626953124,-0.014992713928222656,-0.35070234537124634,0.009512126445770264
1683119086525405400,19.855405517578124,0.2372579574584961,0.35766154527664185,0.2694753408432007
1683119086543245000,19.8732451171875,0.02082347869873047,0.2227434515953064,-0.21143066883087158
1683119086561083000,19.891082763671875,-0.12694931030273438,-0.1737866997718811,0.48297354578971863
1683119086578923000,19.908923095703123,-0.014644622802734375,0.45972076058387756,-0.2337685227394104
1683119086596756000,19.926755859375,0.00896453857421875,-0.34155529737472534,0.27269870042800903
1683119086614601000,19.94460107421875,-0.08037567138671875,-0.07449334859848022,-0.18161851167678833
1683119086632438300,19.962438232421874,-0.0943899154663086,0.06197655200958252,0.06006556749343872
1683119086650274000,19.980274169921874,0.2793722152709961,0.40768182277679443,0.22219917178153992
1683119086668120300,19.998120361328127,-0.1580219268798828,0.05572915077209473,-0.11837601661682129
1683119086685945600,20.015945556640624,-0.025865554809570312,0.24291837215423584,0.46894019842147827
1683119086703794000,20.0337939453125,0.07242393493652344,0.3015066683292389,-0.20360398292541504
1683119086721632800,20.0516328125,-0.04034423828125,-0.21980684995651245,0.3794904947280884
1683119086739472600,20.06947265625,-0.06168079376220703,0.28558486700057983,-0.22665244340896606
1683119086757312500,20.0873125,0.08903980255126953,-0.293776273727417,0.21771454811096191
1683119086775137800,20.1051376953125,0.21317481994628906,0.39758914709091187,0.01969045400619507
1683119086792985300,20.1229853515625,-0.14232826232910156,0.0903053879737854,-0.06703752279281616
1683119086810827000,20.140826904296876,0.05146312713623047,-0.03896915912628174,0.4585561454296112
1683119086828668200,20.158668212890625,-0.05249214172363281,0.32622188329696655,-0.2611590027809143
1683119086846503200,20.176503173828124,-0.019036293029785156,-0.21627038717269897,0.36595454812049866
1683119086864344600,20.194344482421876,-0.051192283630371094,-0.042551398277282715,-0.2819950580596924
1683119086882182100,20.21218212890625,0.02346515655517578,-0.006475508213043213,0.21192997694015503
1683119086900022300,20.230022216796876,0.15019989013671875,0.25685685873031616,-0.1461116075515747
1683119086917860600,20.247860595703123,-0.19694995880126953,-0.029879629611968994,0.0452045202255249
1683119086935700500,20.265700439453123,0.01507568359375,0.5970606207847595,0.4142906367778778
1683119086953538300,20.283538330078127,-0.04587078094482422,0.11514347791671753,-0.1902492642402649
1683119086971374600,20.30137451171875,-0.016620635986328125,-0.11872255802154541,0.4018407166004181
1683119086989218800,20.31921875,0.024725914001464844,0.31948792934417725,-0.2862221598625183
1683119087007055600,20.3370556640625,0.03230476379394531,-0.26443618535995483,0.33427244424819946
1683119087024889300,20.354889404296873,0.13262939453125,0.27934181690216064,-0.22051680088043213
1683119087042733300,20.3727333984375,-0.10878181457519531,0.04613548517227173,0.1920701265335083
1683119087060567300,20.3905673828125,0.039844512939453125,0.2931891679763794,0.308870792388916
1683119087078414600,20.40841455078125,-0.2154827117919922,0.09520828723907471,-0.24961638450622559
1683119087096248800,20.426248779296873,0.1081380844116211,-0.10225182771682739,0.29455047845840454
1683119087114088200,20.444088134765625,-0.09327125549316406,-0.09071022272109985,-0.3392065167427063
1683119087131926500,20.461926513671877,-0.04264640808105469,-0.010585486888885498,0.26087960600852966
1683119087149766100,20.47976611328125,0.053969383239746094,0.28033447265625,-0.2898019552230835
1683119087167604000,20.49760400390625,-0.12306785583496094,-0.12610948085784912,0.26915472745895386
1683119087185444400,20.5154443359375,-0.011156082153320312,0.7361478805541992,0.11574053764343262
1683119087203277000,20.533277099609375,-0.1329936981201172,-0.11930769681930542,-0.10289716720581055
1683119087221121800,20.551121826171876,0.12106132507324219,0.05604755878448486,0.4302181601524353
1683119087238959600,20.568959716796876,-0.0805959701538086,0.28009432554244995,-0.24452173709869385
1683119087256799500,20.586799560546876,-0.0026311874389648438,-0.27172213792800903,0.33112359046936035
1683119087274628000,20.604628173828125,0.08395862579345703,0.3144840598106384,-0.2867138385772705
1683119087292476000,20.622475830078123,-0.08270072937011719,-0.018261194229125977,0.35811206698417664
1683119087310313200,20.640313232421875,0.046776771545410156,0.24526900053024292,-0.04261881113052368
1683119087328157700,20.65815771484375,-0.12015247344970703,-0.02980351448059082,-0.07295501232147217
1683119087345993000,20.675992919921875,0.21789169311523438,0.14499813318252563,0.3392610549926758
1683119087363827500,20.693827392578125,-0.2188558578491211,-0.1898874044418335,-0.29216378927230835
1683119087381670700,20.711670654296874,-0.040032386779785156,-0.04193472862243652,0.19745594263076782
1683119087399508000,20.729508056640626,-0.022950172424316406,0.2534443140029907,-0.318978488445282
1683119087417350100,20.74735009765625,-0.08264923095703125,-0.1423012614250183,0.415519654750824
1683119087435188200,20.765188232421874,0.03953742980957031,0.6021562814712524,-0.20325475931167603
1683119087453022200,20.783022216796876,-0.042181968688964844,-0.23852473497390747,0.0859212875366211
1683119087470865400,20.800865478515625,0.06614971160888672,0.29991865158081055,0.3751135468482971
1683119087488702200,20.8187021484375,-0.19334030151367188,0.12184667587280273,-0.24579066038131714
1683119087506544600,20.836544677734373,0.21224498748779297,-0.21023285388946533,0.23071303963661194
1683119087524381000,20.854380859375,0.08763408660888672,0.26100918650627136,-0.2386985421180725
1683119087542221000,20.872220947265625,-0.1492443084716797,-0.04178673028945923,0.409332811832428
1683119087560058400,20.890058349609376,-0.02695465087890625,0.19184845685958862,-0.2257722020149231
1683119087577898800,20.907898681640624,-0.05621528625488281,-0.1004210114479065,0.17237520217895508
1683119087595724300,20.925724365234377,0.042389869689941406,0.29542315006256104,0.17077583074569702
1683119087613571600,20.943571533203126,-0.28038597106933594,-0.30184781551361084,-0.18715214729309082
1683119087631418600,20.961418701171876,0.1328744888305664,0.01984769105911255,0.16333752870559692
1683119087649256700,20.979256591796876,-0.07910346984863281,0.07056355476379395,-0.2709615230560303
1683119087667089200,20.997089111328126,-0.1620159149169922,-0.13371193408966064,0.33549344539642334
1683119087684931600,21.014931640625,0.06119251251220703,0.5557162761688232,-0.3385143280029297
1683119087702769400,21.032769287109375,0.0633554458618164,-0.24890363216400146,0.27942776679992676
1683119087720606700,21.050606689453126,-0.12219047546386719,0.32031476497650146,0.07805490493774414
1683119087738448400,21.068448486328126,-0.21523189544677734,-0.02072364091873169,-0.04319107532501221
1683119087756289300,21.086289306640627,0.3478565216064453,-0.04756498336791992,0.18526577949523926
1683119087774124800,21.104124755859374,-0.13547897338867188,0.18956047296524048,-0.1637076735496521
1683119087791965000,21.12196484375,-0.06635093688964844,0.09950459003448486,0.3553706109523773
1683119087809801200,21.13980126953125,0.14740467071533203,0.051611900329589844,-0.2662627100944519
1683119087827644000,21.157643798828126,-0.06557559967041016,-0.06612950563430786,0.32374730706214905
1683119087845480200,21.175480224609377,-0.09522819519042969,0.32642459869384766,-0.10949492454528809
1683119087863320000,21.193320068359377,-0.22391414642333984,-0.4097405672073364,0.028605282306671143
1683119087881159700,21.21115966796875,0.17507076263427734,0.15722161531448364,0.02829188108444214
1683119087898997000,21.2289970703125,-0.19012165069580078,-0.10705524682998657,-0.2027972936630249
1683119087916835300,21.24683544921875,0.065338134765625,-0.08988326787948608,0.22271686792373657
1683119087934670800,21.2646708984375,0.1656637191772461,0.4341110587120056,-0.29884397983551025
1683119087952513300,21.28251318359375,-0.1252298355102539,-0.07505297660827637,0.43979892134666443
1683119087970353000,21.300352783203124,-0.12099266052246094,0.4451332688331604,-0.09634143114089966
1683119087988180200,21.31818017578125,-0.0018453598022460938,-0.10198408365249634,0.21100127696990967
1683119088006026200,21.336026123046874,0.2603292465209961,0.04485255479812622,0.02386605739593506
1683119088023868700,21.35386865234375,-0.1941061019897461,0.04816174507141113,-0.07405084371566772
1683119088041708300,21.371708251953127,0.22362709045410156,0.2765916585922241,0.282850444316864
1683119088059533300,21.389533203125,0.11059284210205078,-0.12315893173217773,-0.2477816939353943
1683119088077387500,21.407387451171875,-0.2644157409667969,0.0704227089881897,0.4121948778629303
1683119088095224300,21.425224365234374,0.05243873596191406,0.4349959194660187,-0.20527619123458862
1683119088113060400,21.443060302734374,0.03465080261230469,-0.502697765827179,0.25409629940986633
1683119088130900500,21.460900390625,-0.058012962341308594,0.19477540254592896,-0.18213403224945068
1683119088148743000,21.478742919921874,-0.1556386947631836,-0.16482120752334595,0.013029217720031738
1683119088166579500,21.496579345703125,0.17707443237304688,0.15125447511672974,0.1881943941116333
1683119088184419300,21.51441943359375,-0.04609394073486328,0.24669381976127625,-0.233628511428833
1683119088202257000,21.5322568359375,-0.15567302703857422,0.13262337446212769,0.4868679940700531
1683119088220097000,21.550096923828125,0.0027379989624023438,0.39174771308898926,-0.1953667402267456
1683119088237934800,21.567934814453125,0.014136314392089844,-0.23079687356948853,0.3244244456291199
1683119088255761200,21.58576123046875,-0.009798049926757812,0.07830774784088135,-0.1742132306098938
1683119088273614800,21.60361474609375,-0.07410526275634766,-0.009419560432434082,0.2168874740600586
1683119088291449600,21.62144970703125,0.3476219177246094,0.4264559745788574,0.10377651453018188
1683119088309292800,21.639292724609376,-0.04310035705566406,-0.22099769115447998,-0.10556316375732422
1683119088327125800,21.657125732421875,-0.15888404846191406,0.2120441198348999,0.46221789717674255
1683119088344961800,21.6749619140625,0.04681682586669922,0.3772696852684021,-0.2574096918106079
1683119088362803500,21.692803466796875,0.012477874755859375,-0.5320910215377808,0.3342330753803253
1683119088380646700,21.710646728515623,-0.13158607482910156,0.280158132314682,-0.321627140045166
1683119088398489000,21.728489013671876,-0.023405075073242188,-0.19805097579956055,0.23313134908676147
1683119088416322000,21.746322021484374,0.15416717529296875,0.10701024532318115,-0.07555240392684937
1683119088434163000,21.764162841796875,-0.10191726684570312,0.12609195709228516,-0.08317756652832031
1683119088452000000,21.782,0.03472137451171875,0.28051507472991943,0.4523961544036865
1683119088469841700,21.799841552734375,-0.061585426330566406,0.24133995175361633,-0.20214396715164185
1683119088487682800,21.817682861328127,0.0385589599609375,-0.11147856712341309,0.3912147283554077
1683119088505506300,21.83550634765625,0.009119033813476562,0.17684483528137207,-0.25060373544692993
1683119088523356000,21.85335595703125,0.07234859466552734,-0.08780574798583984,0.3358510136604309
1683119088541195800,21.87119580078125,0.09363842010498047,0.2734543979167938,-0.1960660219192505
1683119088559019500,21.88901953125,0.018471717834472656,-0.22834402322769165,0.06842738389968872
1683119088576869000,21.906869140625,0.006336212158203125,0.44286736845970154,0.3420010209083557
1683119088594711600,21.924711669921876,-0.07663345336914062,0.17012369632720947,-0.22712820768356323
1683119088612551200,21.94255126953125,0.11129474639892578,-0.3700173497200012,0.35349488258361816
1683119088630389000,21.960388916015624,-0.04795265197753906,0.25528842210769653,-0.3625865578651428
1683119088648228900,21.978228759765624,-0.008319854736328125,-0.21926742792129517,0.33774787187576294
1683119088666067000,21.99606689453125,0.029242515563964844,-0.024384140968322754,-0.3066468834877014
1683119088683900700,22.013900634765626,-0.059973716735839844,0.1009300947189331,0.16984117031097412
1683119088701742800,22.031742919921875,0.08440685272216797,0.5017441511154175,0.1973591446876526
1683119088719585800,22.049585693359376,-0.22278594970703125,-0.0038314461708068848,-0.1815287470817566
1683119088737422000,22.067422119140623,0.19550514221191406,0.05471181869506836,0.3696560263633728
