time,seconds_elapsed,z,y,x
1683128591571808500,0.16080859375,0.6268796920776367,-0.2514350414276123,-0.5696307420730591
1683128591589661700,0.17866162109375,0.03585243225097656,-0.7832663059234619,0.17848478257656097
1683128591607497700,0.196497802734375,0.4512462615966797,-0.8315796852111816,-0.2685483992099762
1683128591625332000,0.21433203125,-0.06722831726074219,-0.7873377799987793,0.27830973267555237
1683128591643163600,0.23216357421875,0.26633453369140625,-0.7472598552703857,-0.14411430060863495
1683128591661013800,0.250013671875,-0.04229450225830078,-0.8733162879943848,0.24998325109481812
1683128591678849800,0.267849853515625,0.18774795532226562,-0.6683831214904785,-0.08257751911878586
1683128591696694300,0.2856943359375,-0.013156890869140625,-1.0633786916732788,0.17633002996444702
1683128591714529800,0.30352978515625,0.06386470794677734,-0.43645668029785156,-0.046566758304834366
1683128591732368000,0.321367919921875,0.09056949615478516,-1.2479478120803833,0.12164999544620514
1683128591750196200,0.3391962890625,-0.040496826171875,-0.318509578704834,0.06835059821605682
1683128591768045300,0.35704541015625,0.21582412719726562,-1.0376697778701782,-0.007391776889562607
1683128591785884200,0.37488427734375,-0.011320114135742188,-0.5671408176422119,0.18313288688659668
1683128591803721000,0.392720947265625,0.3666839599609375,-0.843677282333374,-0.23822283744812012
1683128591821563100,0.410563232421875,0.0808553695678711,-0.8869211673736572,0.18280306458473206
1683128591839399700,0.428399658203125,0.4062376022338867,-0.6975679397583008,-0.3038247227668762
1683128591857227000,0.44622705078125,0.029587745666503906,-0.9359145164489746,0.21693985164165497
1683128591875072500,0.464072509765625,0.3021707534790039,-0.8167853355407715,-0.23214522004127502
1683128591892916000,0.481916015625,-0.02395343780517578,-0.7954869270324707,0.25801563262939453
1683128591910754300,0.49975439453125,0.16903209686279297,-0.6271665096282959,-0.08737201243638992
1683128591928592000,0.517591796875,-0.0029850006103515625,-1.0698366165161133,0.20910421013832092
1683128591946427600,0.535427734375,0.09323310852050781,-0.5174022912979126,-0.056474506855010986
1683128591964269800,0.553269775390625,0.09227275848388672,-1.2055563926696777,0.12449773401021957
1683128591982108700,0.571108642578125,-0.026108741760253906,-0.4149261713027954,0.05120430141687393
1683128591999947500,0.588947509765625,0.22711658477783203,-1.0712590217590332,-0.011071190237998962
1683128592017780000,0.606780029296875,-0.07933235168457031,-0.48814988136291504,0.19809220731258392
1683128592035624700,0.624624755859375,0.4225034713745117,-0.8161633014678955,-0.22660282254219055
1683128592053461800,0.642461669921875,-0.019667625427246094,-0.8253464698791504,0.2179771065711975
1683128592071303700,0.6603037109375,0.3170442581176758,-0.7572779655456543,-0.28390780091285706
1683128592089140000,0.678139892578125,0.08459758758544922,-0.9651696681976318,0.20616355538368225
1683128592106979000,0.69597900390625,0.14648914337158203,-0.7171372175216675,-0.2244722694158554
1683128592124808000,0.713807861328125,0.05872344970703125,-0.9738961458206177,0.18628375232219696
1683128592142656300,0.73165625,0.08998775482177734,-0.5787982940673828,-0.06706942617893219
1683128592160491800,0.74949169921875,0.07767486572265625,-1.0562702417373657,0.1632569283246994
1683128592178336300,0.767336181640625,0.07009220123291016,-0.5138287544250488,-0.002165433019399643
1683128592196161800,0.785161865234375,0.24346256256103516,-1.1913955211639404,0.0860024243593216
1683128592214011000,0.803010986328125,0.034981727600097656,-0.5574796199798584,0.06544922292232513
1683128592231849000,0.820848876953125,0.23812294006347656,-0.9944378137588501,-0.06351076066493988
1683128592249687600,0.8386875,-0.10441970825195312,-0.5576701164245605,0.19694849848747253
1683128592267522000,0.85652197265625,0.36191463470458984,-0.8526293039321899,-0.2123904526233673
1683128592285365800,0.87436572265625,-0.032299041748046875,-0.7580994367599487,0.27692675590515137
1683128592303203300,0.892203369140625,0.2501096725463867,-0.7400543689727783,-0.24306809902191162
1683128592321038300,0.910038330078125,0.01137542724609375,-0.9268734455108643,0.21661920845508575
1683128592338882000,0.927882080078125,0.1361827850341797,-0.7309904098510742,-0.15497830510139465
1683128592356719900,0.945719970703125,0.03436565399169922,-0.9763989448547363,0.15196192264556885
1683128592374557700,0.9635576171875,0.0375518798828125,-0.4976297616958618,-0.08675894886255264
1683128592392397000,0.98139697265625,0.19268131256103516,-1.134074330329895,0.10063201934099197
1683128592410235600,0.999235595703125,0.05274391174316406,-0.3958003520965576,0.0016093067824840546
1683128592428074200,1.01707421875,0.2461700439453125,-1.11738121509552,0.029030993580818176
1683128592445912600,1.03491259765625,0.07571697235107422,-0.6006447076797485,0.06539328396320343
1683128592463751200,1.052751220703125,0.31271934509277344,-0.9554049968719482,-0.11838662624359131
1683128592481589800,1.07058984375,0.001331329345703125,-0.690392017364502,0.20034588873386383
1683128592499428600,1.0884287109375,0.23686885833740234,-0.8222966194152832,-0.20706278085708618
1683128592517262000,1.106261962890625,-0.04138946533203125,-0.7167322635650635,0.29840683937072754
1683128592535105800,1.124105712890625,0.19107341766357422,-0.7922015190124512,-0.15289491415023804
1683128592552944000,1.141944091796875,-0.013641357421875,-0.8243027925491333,0.254352331161499
1683128592570783000,1.159782958984375,0.13924026489257812,-0.7105422019958496,-0.12560947239398956
1683128592588616400,1.177616455078125,0.06415653228759766,-1.0031381845474243,0.14856001734733582
1683128592606460000,1.1954599609375,0.02162647247314453,-0.5073809623718262,-0.10259068012237549
1683128592624298800,1.213298828125,0.17219161987304688,-1.1569297313690186,0.11939403414726257
1683128592642136300,1.23113623046875,0.032378196716308594,-0.32051682472229004,-0.00040948018431663513
1683128592659976700,1.248976806640625,0.20145511627197266,-1.1676744222640991,0.04692443460226059
1683128592677814500,1.266814453125,0.06151580810546875,-0.4902637004852295,0.10559388995170593
1683128592695650300,1.284650390625,0.31799983978271484,-0.9220428466796875,-0.12194669246673584
1683128592713494800,1.302494873046875,0.05279827117919922,-0.7590373754501343,0.2062225192785263
1683128592731329800,1.320329833984375,0.24736976623535156,-0.8079311847686768,-0.26445552706718445
1683128592749169000,1.3381689453125,0.07077503204345703,-0.7484588623046875,0.28775930404663086
1683128592767007700,1.3560078125,0.1871652603149414,-0.805243730545044,-0.22889237105846405
1683128592784846300,1.373846435546875,-0.035877227783203125,-0.7756975889205933,0.2559884488582611
1683128592802684400,1.391684326171875,0.11962318420410156,-0.7130856513977051,-0.11266928911209106
1683128592820520400,1.4095205078125,0.040528297424316406,-0.944530725479126,0.18938112258911133
1683128592838360000,1.427360107421875,0.10484600067138672,-0.5625820159912109,-0.08650562167167664
1683128592856200400,1.445200439453125,0.09302616119384766,-1.1547704935073853,0.12314232438802719
1683128592874038500,1.46303857421875,-0.0121307373046875,-0.3334568738937378,-0.06292356550693512
1683128592891877600,1.480877685546875,0.1983203887939453,-1.1642874479293823,0.050402116030454636
1683128592909716200,1.49871630859375,-0.021495819091796875,-0.3672008514404297,0.11778078973293304
1683128592927552300,1.51655224609375,0.29572391510009766,-0.928719162940979,-0.09421057999134064
1683128592945396200,1.534396240234375,0.042835235595703125,-0.6812887191772461,0.1895928680896759
1683128592963231000,1.55223095703125,0.28652381896972656,-0.7453179359436035,-0.28898096084594727
1683128592981071600,1.570071533203125,0.06419658660888672,-0.8746734857559204,0.19731979072093964
1683128592998897700,1.587897705078125,0.2560558319091797,-0.7847763299942017,-0.2712339460849762
1683128593016747300,1.605747314453125,0.04318714141845703,-0.8427274227142334,0.2549673020839691
1683128593034586600,1.623586669921875,0.12462902069091797,-0.7393524646759033,-0.14173421263694763
1683128593052422400,1.64142236328125,0.016135215759277344,-0.8646848201751709,0.24152153730392456
1683128593070266600,1.6592666015625,0.10110664367675781,-0.5582888126373291,-0.06857960671186447
1683128593088102000,1.677101806640625,0.048026084899902344,-1.1379387378692627,0.18858923017978668
1683128593105940500,1.6949404296875,0.01293182373046875,-0.4261927604675293,-0.05669233202934265
1683128593123762700,1.7127626953125,0.15391063690185547,-1.1746156215667725,0.09732221066951752
1683128593141618200,1.7306181640625,-0.03400421142578125,-0.35910987854003906,0.09083631634712219
1683128593159456000,1.7484560546875,0.3225584030151367,-0.9360964298248291,-0.07398052513599396
1683128593177295000,1.766295166015625,-0.024704933166503906,-0.6095564365386963,0.2287864089012146
1683128593195130000,1.784130126953125,0.35529232025146484,-0.7286550998687744,-0.2856183350086212
1683128593212960800,1.801960693359375,0.06983089447021484,-0.9164738655090332,0.1881636381149292
1683128593230810600,1.819810546875,0.13265609741210938,-0.7428371906280518,-0.2961658835411072
1683128593248637700,1.8376376953125,0.05119800567626953,-0.9215037822723389,0.19948917627334595
1683128593266488000,1.855488037109375,0.09400653839111328,-0.6732481718063354,-0.1581970602273941
1683128593284326000,1.873325927734375,0.07223129272460938,-0.9275891780853271,0.19403059780597687
1683128593302166000,1.891166015625,0.0852346420288086,-0.49006152153015137,-0.031996868550777435
1683128593320003800,1.90900390625,0.16382789611816406,-1.1231541633605957,0.12814442813396454
1683128593337842400,1.926842529296875,0.047321319580078125,-0.513275146484375,-0.0016182251274585724
1683128593355681300,1.944681396484375,0.2579193115234375,-1.0914950370788574,0.053840477019548416
1683128593373519400,1.962519287109375,-0.06470584869384766,-0.4856867790222168,0.11675159633159637
1683128593391358500,1.9803583984375,0.24389076232910156,-0.9256994724273682,-0.1236295998096466
1683128593409196800,1.99819677734375,-0.032402992248535156,-0.565413236618042,0.24143701791763306
1683128593427035600,2.01603564453125,0.3233966827392578,-0.7718760967254639,-0.23071995377540588
1683128593444876300,2.033876220703125,0.024400711059570312,-0.8111062049865723,0.25750887393951416
1683128593462712300,2.05171240234375,0.15792274475097656,-0.693641185760498,-0.2118433117866516
1683128593480550700,2.069550537109375,0.028287887573242188,-0.9213030338287354,0.18131023645401
1683128593498391000,2.08739111328125,0.04905223846435547,-0.6248922348022461,-0.12282982468605042
1683128593516228000,2.10522802734375,0.13491153717041016,-0.9947202205657959,0.14147603511810303
1683128593534066700,2.123066650390625,0.03912162780761719,-0.44496607780456543,-0.03266928344964981
1683128593551905500,2.140905517578125,0.1970043182373047,-1.1147913932800293,0.11033068597316742
1683128593569744600,2.15874462890625,0.05784320831298828,-0.42959046363830566,0.014305848628282547
1683128593587579400,2.176579345703125,0.32777976989746094,-1.0491478443145752,-0.0011773593723773956
1683128593605419300,2.194419189453125,0.01671123504638672,-0.6090984344482422,0.075246661901474
1683128593623260000,2.212260009765625,0.2685813903808594,-0.87339186668396,-0.1304951310157776
1683128593641100000,2.23010009765625,-0.07807350158691406,-0.6252968311309814,0.23666633665561676
1683128593658937000,2.24793701171875,0.21718215942382812,-0.7970918416976929,-0.18120180070400238
1683128593676772900,2.26577294921875,-0.05656147003173828,-0.7191715240478516,0.301691472530365
1683128593694614500,2.283614501953125,0.15517902374267578,-0.6818537712097168,-0.12884140014648438
1683128593712456000,2.3014560546875,0.05897712707519531,-0.8801369667053223,0.2147808074951172
1683128593730291200,2.319291259765625,0.019805908203125,-0.645545482635498,-0.14968562126159668
1683128593748130000,2.337130126953125,0.09059524536132812,-1.0060336589813232,0.11329367756843567
1683128593765968600,2.35496875,0.051792144775390625,-0.3970661163330078,-0.11061535775661469
1683128593783807200,2.37280712890625,0.2129068374633789,-1.1602401733398438,0.07248888164758682
1683128593801645600,2.3906455078125,0.08902549743652344,-0.3340740203857422,0.01994285359978676
1683128593819484200,2.408484130859375,0.23910045623779297,-1.0508118867874146,0.008955128490924835
1683128593837323000,2.426322998046875,0.05568885803222656,-0.5738749504089355,0.09599322825670242
1683128593855161600,2.44416162109375,0.31185436248779297,-0.8823167085647583,-0.1400124728679657
1683128593873001000,2.4620009765625,0.032935142517089844,-0.6867973804473877,0.20129764080047607
1683128593890835500,2.47983544921875,0.18204116821289062,-0.7804069519042969,-0.21969401836395264
1683128593908680000,2.497679931640625,-0.015330314636230469,-0.677139401435852,0.2964618504047394
1683128593926511600,2.51551171875,0.1634044647216797,-0.7744021415710449,-0.1565370410680771
1683128593944354000,2.53335400390625,-0.04110145568847656,-0.7854089736938477,0.23311372101306915
1683128593962193200,2.551193115234375,0.1069498062133789,-0.6650820970535278,-0.13207311928272247
1683128593980028000,2.56902783203125,0.09272384643554688,-0.9696192741394043,0.11358825117349625
1683128593997874400,2.58687451171875,0.03522014617919922,-0.496082067489624,-0.12117236852645874
1683128594015708700,2.604708740234375,0.10125160217285156,-1.1143028736114502,0.11429403722286224
1683128594033547800,2.6225478515625,-0.0017461776733398438,-0.2884056568145752,-0.03443417698144913
1683128594051385000,2.640385009765625,0.25595760345458984,-1.1113733053207397,0.03925763815641403
1683128594069226200,2.658226318359375,0.05832958221435547,-0.4253026247024536,0.10028698295354843
1683128594087062800,2.676062744140625,0.2839841842651367,-0.9085651636123657,-0.07911698520183563
1683128594104894000,2.69389404296875,0.07615184783935547,-0.689588189125061,0.1849951446056366
1683128594122744800,2.711744873046875,0.2729940414428711,-0.7404130697250366,-0.2380814105272293
1683128594140578300,2.729578369140625,0.03972148895263672,-0.7095566987991333,0.2634953260421753
1683128594158418400,2.74741845703125,0.1322784423828125,-0.7903683185577393,-0.22885632514953613
1683128594176253200,2.765253173828125,-0.017297744750976562,-0.7384703159332275,0.260934978723526
1683128594194095000,2.78309521484375,0.15223026275634766,-0.6751526594161987,-0.1212662011384964
1683128594211932400,2.800932373046875,0.021221160888671875,-0.8922967910766602,0.17260700464248657
1683128594229772800,2.818772705078125,0.06353473663330078,-0.5698548555374146,-0.10754160583019257
1683128594247606000,2.83660595703125,0.07976818084716797,-1.097555160522461,0.13149502873420715
1683128594265449000,2.854448974609375,-0.024529457092285156,-0.3308190107345581,-0.09369559586048126
1683128594283288300,2.872288330078125,0.21161174774169922,-1.157414436340332,0.06711284816265106
1683128594301122800,2.890122802734375,-0.041103363037109375,-0.30287158489227295,0.07269623875617981
1683128594318968300,2.90796826171875,0.27393627166748047,-0.9496040344238281,-0.06156506389379501
1683128594336803300,2.92580322265625,0.04059028625488281,-0.5851877927780151,0.16876867413520813
1683128594354643000,2.943642822265625,0.3449258804321289,-0.7407428026199341,-0.2582782804965973
1683128594372479200,2.961479248046875,0.07030868530273438,-0.806889533996582,0.19313965737819672
1683128594390320400,2.9793203125,0.17918682098388672,-0.7061004638671875,-0.2931266725063324
1683128594408158000,2.997157958984375,0.05446434020996094,-0.7754141092300415,0.25820058584213257
1683128594425997600,3.01499755859375,0.08531379699707031,-0.729337215423584,-0.15502484142780304
1683128594443834600,3.032834716796875,0.008432388305664062,-0.7692170143127441,0.24441775679588318
1683128594461672200,3.050672119140625,0.07785606384277344,-0.5084044933319092,-0.06579317152500153
1683128594479513900,3.068513916015625,0.05718231201171875,-1.0297340154647827,0.18397477269172668
1683128594497351000,3.086350830078125,0.032324790954589844,-0.4181452989578247,-0.07923293858766556
1683128594515189200,3.104189208984375,0.13933277130126953,-1.1254738569259644,0.09644709527492523
1683128594533033200,3.122033203125,-0.09671878814697266,-0.27611029148101807,0.056287024170160294
1683128594550866700,3.13986669921875,0.28797245025634766,-0.9807752370834351,-0.019909899681806564
1683128594568701200,3.157701171875,0.0004062652587890625,-0.4446895122528076,0.20595654845237732
1683128594586543400,3.17554345703125,0.27902698516845703,-0.7174583673477173,-0.23479944467544556
1683128594604382700,3.1933828125,0.02377033233642578,-0.8378870487213135,0.17624559998512268
1683128594622219500,3.211219482421875,0.27500057220458984,-0.6803315877914429,-0.3269725739955902
1683128594640061000,3.22906103515625,0.07957839965820312,-0.8914302587509155,0.18623024225234985
1683128594657886200,3.24688623046875,0.09888362884521484,-0.6440045833587646,-0.21950113773345947
1683128594675737000,3.264737060546875,0.07255840301513672,-0.8163696527481079,0.21923275291919708
1683128594693574400,3.282574462890625,0.056244850158691406,-0.4942498207092285,-0.07290376722812653
1683128594711415600,3.30041552734375,0.11703777313232422,-0.9834741353988647,0.20434483885765076
1683128594729252400,3.31825244140625,0.03275489807128906,-0.444577693939209,-0.03176282346248627
1683128594747088400,3.33608837890625,0.17765140533447266,-1.086491346359253,0.11154258251190186
1683128594764926200,3.35392626953125,-0.07112503051757812,-0.41127026081085205,0.04602355509996414
1683128594782758700,3.371758544921875,0.22577667236328125,-0.9261783361434937,-0.05394205078482628
1683128594800609500,3.389609619140625,-0.07283687591552734,-0.4255281686782837,0.23070816695690155
1683128594818433800,3.407433837890625,0.31609439849853516,-0.7391791343688965,-0.2313431203365326
1683128594836284200,3.4252841796875,0.007033348083496094,-0.7058615684509277,0.257305771112442
1683128594854123000,3.443123046875,0.1767873764038086,-0.6105051040649414,-0.24494266510009766
1683128594871961300,3.46096142578125,0.07808494567871094,-0.8579124212265015,0.2002839595079422
1683128594889800200,3.47880029296875,0.05475807189941406,-0.6066654920578003,-0.15645731985569
1683128594907638300,3.49663818359375,0.0885171890258789,-0.8807840347290039,0.14932923018932343
1683128594925477000,3.51447705078125,0.005990028381347656,-0.4222177267074585,-0.03583746775984764
1683128594943298800,3.532298828125,0.17265892028808594,-1.027606725692749,0.1223512589931488
1683128594961152300,3.55015234375,0.06899166107177734,-0.3437262773513794,-0.0035035163164138794
1683128594978990000,3.567989990234375,0.24130630493164062,-1.0456748008728027,0.05819663032889366
1683128594996831700,3.585831787109375,-0.012067794799804688,-0.5045264959335327,0.030729390680789948
1683128595014673200,3.603673095703125,0.3023557662963867,-0.8606603145599365,-0.09241262078285217
1683128595032508400,3.62150830078125,-0.10429954528808594,-0.5114214420318604,0.19509625434875488
1683128595050347300,3.63934716796875,0.2084341049194336,-0.7422330379486084,-0.19602160155773163
1683128595068185900,3.657185791015625,-0.06766986846923828,-0.6325100660324097,0.30729588866233826
1683128595086024000,3.67502392578125,0.16713237762451172,-0.6471356153488159,-0.1594257652759552
1683128595103863300,3.69286328125,0.010973930358886719,-0.773196816444397,0.2207057625055313
1683128595121702100,3.7107021484375,0.016244888305664062,-0.5889037847518921,-0.15742623805999756
1683128595139540500,3.72854052734375,0.07827472686767578,-0.917343258857727,0.13618600368499756
1683128595157366800,3.74636669921875,0.0011377334594726562,-0.3997182846069336,-0.11315853148698807
1683128595175209700,3.764209716796875,0.1490030288696289,-1.0623713731765747,0.08355493098497391
1683128595193056000,3.782055908203125,0.03266620635986328,-0.24437010288238525,-0.016044694930315018
1683128595210894800,3.799894775390625,0.27252197265625,-1.028624415397644,0.02703729085624218
1683128595228733000,3.81773291015625,0.0857248306274414,-0.45956945419311523,0.06269896030426025
1683128595246572000,3.835572021484375,0.24718475341796875,-0.8466038703918457,-0.10410246253013611
1683128595264406800,3.85340673828125,0.03379344940185547,-0.6268987655639648,0.17884278297424316
1683128595282253300,3.87125341796875,0.17620182037353516,-0.7219923734664917,-0.22857971489429474
1683128595300087300,3.88908740234375,-0.037017822265625,-0.6095842123031616,0.3010796308517456
1683128595317921800,3.906921875,0.13997840881347656,-0.7186466455459595,-0.17490483820438385
1683128595335760400,3.924760498046875,-0.04487800598144531,-0.678375244140625,0.24652555584907532
1683128595353603800,3.942603759765625,0.077972412109375,-0.5932121276855469,-0.13641268014907837
1683128595371441700,3.960441650390625,0.056980133056640625,-0.8904798030853271,0.12524545192718506
1683128595389280800,3.97828076171875,0.017940521240234375,-0.4447338581085205,-0.12100313603878021
1683128595407119000,3.996119140625,0.11594390869140625,-1.0521589517593384,0.10356496274471283
1683128595424954600,4.01395458984375,-0.031007766723632812,-0.21517419815063477,-0.0506654791533947
1683128595442796300,4.03179638671875,0.19885826110839844,-1.067470669746399,0.04793500900268555
1683128595460633900,4.0496337890625,0.011737823486328125,-0.33122169971466064,0.09260473400354385
1683128595478475000,4.06747509765625,0.2908029556274414,-0.8433189392089844,-0.07437869906425476
1683128595496311600,4.0853115234375,0.044013023376464844,-0.6189602613449097,0.17732088267803192
1683128595514150400,4.103150390625,0.19757461547851562,-0.7050342559814453,-0.24118252098560333
1683128595531989500,4.120989501953125,0.036968231201171875,-0.6688132286071777,0.25588542222976685
1683128595549827800,4.138827880859375,0.14275360107421875,-0.6947357654571533,-0.23607516288757324
1683128595567667200,4.156667236328125,-0.015268325805664062,-0.6630520820617676,0.2856069505214691
1683128595585500200,4.174500244140625,0.10054492950439453,-0.6213018894195557,-0.11024990677833557
1683128595603344000,4.19234375,0.006625175476074219,-0.8023496866226196,0.1989060938358307
1683128595621182500,4.210182373046875,0.03682231903076172,-0.4785844087600708,-0.10892796516418457
1683128595639021000,4.22802099609375,0.086761474609375,-1.0391099452972412,0.1332027018070221
1683128595656855000,4.24585498046875,0.004097938537597656,-0.27080392837524414,-0.07653431594371796
1683128595674698500,4.263698486328125,0.10624217987060547,-1.093625783920288,0.07649026066064835
1683128595692537000,4.281537109375,-0.09043407440185547,-0.1784200668334961,0.07058829814195633
1683128595710375400,4.29937548828125,0.3292360305786133,-0.8807129859924316,-0.05483091250061989
1683128595728213800,4.3172138671875,0.017438888549804688,-0.48915553092956543,0.18217173218727112
1683128595746053000,4.33505322265625,0.2785511016845703,-0.6266517639160156,-0.23720654845237732
1683128595763891200,4.35289111328125,0.06111717224121094,-0.7715911865234375,0.17801450192928314
1683128595781729000,4.37072900390625,0.21582794189453125,-0.6421763896942139,-0.3161720037460327
1683128595799569400,4.3885693359375,0.031968116760253906,-0.7335087060928345,0.24050705134868622
1683128595817409300,4.4064091796875,0.09180068969726562,-0.6804453134536743,-0.20449712872505188
1683128595835245600,4.42424560546875,0.026441574096679688,-0.6927374601364136,0.25848665833473206
1683128595853085000,4.4420849609375,0.049866676330566406,-0.4719564914703369,-0.08920256048440933
1683128595870922500,4.459922607421875,0.06150245666503906,-0.9471848011016846,0.18612711131572723
1683128595888761300,4.47776123046875,0.02816486358642578,-0.33660244941711426,-0.09933250397443771
1683128595906595300,4.49559521484375,0.11402702331542969,-1.0659977197647095,0.13553643226623535
1683128595924439000,4.51343896484375,-0.08953571319580078,-0.22767746448516846,0.027304496616125107
1683128595942265000,4.53126513671875,0.2306528091430664,-0.8928302526473999,0.0047528184950351715
1683128595960116200,4.5491162109375,-0.024565696716308594,-0.3387099504470825,0.18883062899112701
1683128595977949700,4.56694970703125,0.311981201171875,-0.6573868989944458,-0.2091810405254364
1683128595995794000,4.5847939453125,0.00208282470703125,-0.7158273458480835,0.19860732555389404
1683128596013631700,4.6026318359375,0.1925048828125,-0.5987058877944946,-0.31656551361083984
1683128596031467300,4.62046728515625,0.08356666564941406,-0.8165662288665771,0.18875493109226227
1683128596049312500,4.6383125,0.09729862213134766,-0.605311393737793,-0.2449028342962265
1683128596067148000,4.65614794921875,0.046074867248535156,-0.7579113245010376,0.21347640454769135
1683128596084982300,4.673982177734375,0.02375316619873047,-0.41550159454345703,-0.06911967694759369
1683128596102823700,4.69182373046875,0.088226318359375,-0.8988139629364014,0.18514961004257202
1683128596120664600,4.70966455078125,0.035025596618652344,-0.37070178985595703,-0.04479192942380905
1683128596138502400,4.72750244140625,0.17220020294189453,-1.0434131622314453,0.11178157478570938
1683128596156337200,4.745337158203125,-0.06015968322753906,-0.3653191328048706,0.01214858889579773
1683128596174182100,4.76318212890625,0.1629505157470703,-0.8714872598648071,-0.027282800525426865
1683128596192014800,4.781014892578125,-0.110748291015625,-0.3135753870010376,0.20624220371246338
1683128596209859800,4.79885986328125,0.29427528381347656,-0.6777375936508179,-0.1929892897605896
1683128596227682000,4.81668212890625,-0.035719871520996094,-0.5689986944198608,0.24613060057163239
1683128596245534200,4.8345341796875,0.18880939483642578,-0.5739363431930542,-0.27481818199157715
1683128596263369500,4.852369384765625,0.08877086639404297,-0.7541886568069458,0.21140527725219727
1683128596281207000,4.87020703125,0.04977226257324219,-0.5267754793167114,-0.2017258107662201
1683128596299057000,4.888056884765625,0.012386322021484375,-0.8152621984481812,0.14542138576507568
1683128596316887300,4.90588720703125,0.03169059753417969,-0.40203535556793213,-0.0758790671825409
1683128596334727400,4.9237275390625,0.14291000366210938,-0.9179003834724426,0.11149659752845764
1683128596352558000,4.94155810546875,-0.03115367889404297,-0.29302799701690674,-0.02374294027686119
1683128596370404600,4.959404541015625,0.20989322662353516,-1.0152559280395508,0.07113076746463776
1683128596388239600,4.977239501953125,0.011190414428710938,-0.4047520160675049,-0.007709819823503494
1683128596406084600,4.995084716796875,0.2639141082763672,-0.8371263742446899,-0.05040419101715088
1683128596423918800,5.0129189453125,-0.13104820251464844,-0.45626354217529297,0.1376742124557495
1683128596441759200,5.03075927734375,0.21386432647705078,-0.7071934938430786,-0.1947484165430069
1683128596459585000,5.0485849609375,-0.0882577896118164,-0.5155514478683472,0.27949580550193787
1683128596477435400,5.066435302734375,0.20730113983154297,-0.5881210565567017,-0.20484471321105957
1683128596495270100,5.084270263671875,-0.056964874267578125,-0.6912045478820801,0.2582286298274994
1683128596513112600,5.102112548828125,0.03802299499511719,-0.5507495403289795,-0.1513608992099762
1683128596530951400,5.119951416015625,0.024382591247558594,-0.7837421894073486,0.14543890953063965
1683128596548785200,5.13778515625,0.023286819458007812,-0.4032701253890991,-0.1311197131872177
1683128596566628900,5.15562890625,0.10442829132080078,-0.9490926265716553,0.09273289889097214
1683128596584467000,5.173467041015625,-0.036945343017578125,-0.17493784427642822,-0.03303786367177963
1683128596602306000,5.19130615234375,0.23823261260986328,-0.9836627244949341,0.07315558195114136
1683128596620144600,5.20914453125,0.017726898193359375,-0.3254591226577759,0.04548913612961769
1683128596637983700,5.226983642578125,0.27020263671875,-0.7912344932556152,-0.050575487315654755
1683128596655821300,5.2448212890625,0.03235626220703125,-0.5116211175918579,0.13646143674850464
1683128596673659100,5.2626591796875,0.20639324188232422,-0.6854420900344849,-0.20197777450084686
1683128596691500000,5.2805,-0.06357288360595703,-0.4908013343811035,0.2679268419742584
1683128596709340700,5.298340576171875,0.12728309631347656,-0.6094764471054077,-0.18665842711925507
1683128596727176200,5.31617626953125,-0.061405181884765625,-0.5760107040405273,0.2833278775215149
1683128596745011200,5.33401123046875,0.05978584289550781,-0.5390360355377197,-0.13313253223896027
1683128596762853600,5.351853515625,0.043880462646484375,-0.7451133728027344,0.15566517412662506
1683128596780692700,5.369692626953125,-0.014316558837890625,-0.43313300609588623,-0.1591903269290924
1683128596798530300,5.3875302734375,0.09102249145507812,-0.9469521045684814,0.10775429010391235
1683128596816369400,5.405369384765625,-0.02291107177734375,-0.17902541160583496,-0.08051232993602753
1683128596834207700,5.423207763671875,0.1542654037475586,-1.0113900899887085,0.07382427901029587
1683128596852047000,5.441047119140625,-0.005650520324707031,-0.18306589126586914,0.03409503400325775
1683128596869870300,5.458870361328125,0.24627399444580078,-0.8668849468231201,-0.027950435876846313
1683128596887724000,5.47672412109375,0.01576995849609375,-0.4728732109069824,0.13758811354637146
1683128596905563000,5.49456298828125,0.28028392791748047,-0.6564241647720337,-0.19354625046253204
1683128596923401200,5.512401123046875,0.036690711975097656,-0.547741174697876,0.24284705519676208
1683128596941239600,5.530239501953125,0.15140151977539062,-0.6208318471908569,-0.24730515480041504
1683128596959078100,5.548078125,-0.06988716125488281,-0.5563228130340576,0.28906577825546265
1683128596976917200,5.565917236328125,0.11863231658935547,-0.5896759033203125,-0.1430012285709381
1683128596994755800,5.583755859375,-0.0241851806640625,-0.6492034196853638,0.2026943564414978
1683128597012590800,5.6015908203125,0.023406028747558594,-0.4647393226623535,-0.12011342495679855
1683128597030433800,5.619433837890625,0.05906963348388672,-0.8905789256095886,0.12484625726938248
1683128597048273400,5.6372734375,-0.019097328186035156,-0.25702738761901855,-0.12165883928537369
1683128597066105900,5.65510595703125,0.12220287322998047,-0.9861652851104736,0.08986052125692368
1683128597083948300,5.6729482421875,-0.14219379425048828,-0.09531664848327637,-0.011841479688882828
1683128597101787400,5.690787353515625,0.21870899200439453,-0.9078357219696045,0.0008752308785915375
1683128597119626000,5.7086259765625,-0.02191638946533203,-0.3036482334136963,0.1570838987827301
1683128597137464800,5.72646484375,0.3113584518432617,-0.6222196817398071,-0.18368887901306152
1683128597155303000,5.744302978515625,-0.001140594482421875,-0.6276105642318726,0.15985414385795593
1683128597173142000,5.76214208984375,0.19748497009277344,-0.5714967250823975,-0.31548142433166504
1683128597190977800,5.779977783203125,0.050621986389160156,-0.6491817235946655,0.23679785430431366
1683128597208822300,5.797822265625,0.07846927642822266,-0.582992434501648,-0.2008095681667328
1683128597226657300,5.8156572265625,0.003952980041503906,-0.6020668745040894,0.27508699893951416
1683128597244496000,5.833495849609375,0.027808189392089844,-0.4519622325897217,-0.0906214565038681
1683128597262335200,5.851335205078125,-0.004437446594238281,-0.7829257249832153,0.1991804838180542
1683128597280174000,5.869174072265625,0.02957439422607422,-0.3108159303665161,-0.08814488351345062
1683128597298012000,5.887011962890625,0.11278915405273438,-1.0009440183639526,0.14187373220920563
1683128597315846100,5.90484619140625,-0.1118927001953125,-0.15737497806549072,-0.029703356325626373
1683128597333689300,5.922689453125,0.21394824981689453,-0.9072797298431396,0.03820304200053215
1683128597351532500,5.940532470703125,-0.051133155822753906,-0.18945538997650146,0.14550766348838806
1683128597369366500,5.958366455078125,0.24485492706298828,-0.6276345252990723,-0.17666450142860413
1683128597387200800,5.97620068359375,-0.03981304168701172,-0.5834966897964478,0.19435887038707733
1683128597405039900,5.994039794921875,0.238067626953125,-0.4917210340499878,-0.3152315318584442
1683128597422883000,6.011883056640625,0.029306411743164062,-0.7408363819122314,0.18374833464622498
1683128597440719000,6.029718994140625,0.08314800262451172,-0.5311044454574585,-0.2399359792470932
1683128597458561500,6.0475615234375,0.052933692932128906,-0.6762180328369141,0.20447960495948792
1683128597476398000,6.065398193359375,0.018790245056152344,-0.3663555383682251,-0.109071746468544
1683128597494237700,6.08323779296875,0.049445152282714844,-0.8048946857452393,0.20105716586112976
1683128597512075500,6.101075439453125,0.0014505386352539062,-0.24849307537078857,-0.05522048845887184
1683128597529914600,6.11891455078125,0.15204715728759766,-0.9677493572235107,0.13674147427082062
1683128597547753200,6.136753173828125,-0.06579875946044922,-0.29424917697906494,-0.005776099860668182
1683128597565589200,6.15458935546875,0.2067584991455078,-0.7953815460205078,-0.02884470671415329
1683128597583432700,6.1724326171875,-0.11046123504638672,-0.24619686603546143,0.1796553134918213
1683128597601270300,6.190270263671875,0.27481555938720703,-0.6159275770187378,-0.18593864142894745
1683128597619107600,6.208107666015625,-0.0852508544921875,-0.47539782524108887,0.27837294340133667
1683128597636939000,6.22593896484375,0.20716190338134766,-0.49838531017303467,-0.2601386308670044
1683128597654787300,6.243787353515625,0.0021381378173828125,-0.6756947040557861,0.2156541794538498
1683128597672623400,6.261623291015625,0.023550033569335938,-0.4550384283065796,-0.1788410246372223
1683128597690459100,6.279459228515625,0.03871631622314453,-0.7201638221740723,0.148851677775383
1683128597708299300,6.29729931640625,-0.017660140991210938,-0.2768782377243042,-0.08225067704916
1683128597726139000,6.315138916015625,0.13099288940429688,-0.8738861083984375,0.09992697834968567
1683128597743977700,6.332977783203125,-0.008936882019042969,-0.15722393989562988,-0.02838543802499771
1683128597761815300,6.350815185546875,0.22557735443115234,-0.9114819169044495,0.06139111518859863
1683128597779656400,6.368656494140625,-0.011637687683105469,-0.3173980712890625,0.013121813535690308
1683128597797493800,6.38649365234375,0.28169727325439453,-0.7352570295333862,-0.08446858823299408
1683128597815332400,6.404332275390625,-0.08608531951904297,-0.42433202266693115,0.15079759061336517
1683128597833171000,6.4221708984375,0.20107078552246094,-0.5919206142425537,-0.2007596790790558
1683128597851010000,6.440010009765625,-0.11960697174072266,-0.44716107845306396,0.3052000105381012
1683128597868847900,6.457847900390625,0.13671302795410156,-0.5145758390426636,-0.16999420523643494
1683128597886681900,6.475681884765625,-0.07559585571289062,-0.5659806728363037,0.2408398687839508
1683128597904526000,6.493526123046875,0.019463539123535156,-0.4486050605773926,-0.1395217478275299
1683128597922364700,6.51136474609375,0.07811355590820312,-0.7282140254974365,0.12653115391731262
1683128597940202500,6.529202392578125,-0.054556846618652344,-0.2602865695953369,-0.15814706683158875
1683128597958036700,6.54703662109375,0.13271045684814453,-0.9242697954177856,0.09334991872310638
1683128597975866400,6.564866455078125,-0.0631875991821289,-0.04812979698181152,-0.023933615535497665
1683128597993710000,6.5827099609375,0.21062755584716797,-0.8800846338272095,0.06404772400856018
1683128598011557400,6.600557373046875,0.0121612548828125,-0.2456207275390625,0.10229958593845367
1683128598029384400,6.618384521484375,0.24841690063476562,-0.678052544593811,-0.10817541182041168
1683128598047234800,6.63623486328125,0.034698486328125,-0.4736281633377075,0.18725910782814026
1683128598065074000,6.654073974609375,0.16001510620117188,-0.5372824668884277,-0.2438567578792572
1683128598082911200,6.6719111328125,-0.04156970977783203,-0.48290693759918213,0.27952706813812256
1683128598100751400,6.68975146484375,0.10909843444824219,-0.5635035037994385,-0.20374608039855957
1683128598118589400,6.70758935546875,-0.07258796691894531,-0.4955974817276001,0.2309807687997818
1683128598136412700,6.72541259765625,0.061901092529296875,-0.4312872886657715,-0.11400537192821503
1683128598154269000,6.74326904296875,-0.015623092651367188,-0.7270269393920898,0.17080435156822205
1683128598172105700,6.761105712890625,0.02088165283203125,-0.2656412124633789,-0.1220039650797844
1683128598189943800,6.77894384765625,0.058162689208984375,-0.9157853722572327,0.12532779574394226
1683128598207780000,6.796780029296875,-0.09923076629638672,-0.06486499309539795,-0.07160428166389465
1683128598225623800,6.814623779296875,0.1570911407470703,-0.9103772044181824,0.04248542711138725
1683128598243448600,6.832448486328125,-0.08116817474365234,-0.09153628349304199,0.0915173888206482
1683128598261298400,6.85029833984375,0.2616119384765625,-0.6610491275787354,-0.11972198635339737
1683128598279137300,6.86813720703125,-0.0353851318359375,-0.45595741271972656,0.17562712728977203
1683128598296975600,6.8859755859375,0.2239971160888672,-0.46928632259368896,-0.2893839180469513
1683128598314812700,6.903812744140625,0.046998023986816406,-0.6226184368133545,0.17101535201072693
1683128598332654600,6.921654541015625,0.146820068359375,-0.5238754749298096,-0.29363343119621277
1683128598350491100,6.9394912109375,0.015348434448242188,-0.5880557298660278,0.23940865695476532
1683128598368331000,6.9573310546875,0.030809402465820312,-0.439345121383667,-0.14447766542434692
1683128598386169300,6.97516943359375,-0.010060310363769531,-0.6060450077056885,0.24230974912643433
1683128598404006400,6.99300634765625,-0.02632427215576172,-0.25771427154541016,-0.0927133560180664
1683128598421847800,7.010847900390625,0.04113960266113281,-0.8926741480827332,0.16113921999931335
1683128598439684900,7.028684814453125,-0.04179954528808594,-0.1597144603729248,-0.10552752017974854
1683128598457523500,7.0465234375,0.08777427673339844,-0.946236789226532,0.10293934494256973
1683128598475362300,7.0643623046875,-0.11309432983398438,-0.11450910568237305,0.09027732908725739
1683128598493201000,7.082200927734375,0.2565879821777344,-0.6129651069641113,-0.08147342503070831
1683128598511039500,7.10003955078125,-0.07498359680175781,-0.3301759958267212,0.22876834869384766
1683128598528878000,7.117878173828125,0.20766258239746094,-0.4753192663192749,-0.289146363735199
1683128598546717000,7.135717041015625,0.011841773986816406,-0.6180465221405029,0.19833172857761383
1683128598564554800,7.1535546875,0.09484291076660156,-0.44044041633605957,-0.28472214937210083
1683128598582395000,7.171394775390625,0.036561012268066406,-0.6672006845474243,0.16814766824245453
1683128598600233200,7.189233154296875,-0.0038003921508789062,-0.35713350772857666,-0.14697396755218506
1683128598618071800,7.20707177734375,0.04090309143066406,-0.6771012544631958,0.16927164793014526
1683128598635910400,7.224910400390625,-0.018411636352539062,-0.1832592487335205,-0.02703501656651497
1683128598653743400,7.242743408203125,0.13715171813964844,-0.8717547655105591,0.12719614803791046
1683128598671587800,7.260587890625,-0.031095504760742188,-0.23219645023345947,-0.01867644116282463
1683128598689426200,7.27842626953125,0.2068490982055664,-0.7870818972587585,0.018067482858896255
1683128598707265000,7.29626513671875,-0.11783790588378906,-0.24248814582824707,0.08678565174341202
1683128598725091300,7.31409130859375,0.1788492202758789,-0.6157785654067993,-0.150310218334198
1683128598742941700,7.331941650390625,-0.12121772766113281,-0.31534719467163086,0.2517545223236084
1683128598760780800,7.34978076171875,0.22298908233642578,-0.4656869173049927,-0.2387557327747345
1683128598778619600,7.36761962890625,-0.06584835052490234,-0.5305664539337158,0.26249703764915466
1683128598796457700,7.385457763671875,0.1025094985961914,-0.42438793182373047,-0.1809396892786026
1683128598814297000,7.403297119140625,0.007229804992675781,-0.625688910484314,0.15898022055625916
1683128598832138200,7.42113818359375,-0.019758224487304688,-0.2985299825668335,-0.12956315279006958
1683128598849971700,7.4389716796875,0.08338165283203125,-0.7821926474571228,0.11920616030693054
1683128598867812400,7.456812255859375,-0.056527137756347656,-0.08664882183074951,-0.041660062968730927
1683128598885651200,7.474651123046875,0.18515300750732422,-0.8402234315872192,0.0710376501083374
1683128598903490000,7.492489990234375,-0.00307464599609375,-0.1631861925125122,0.010297775268554688
1683128598921315000,7.510315185546875,0.27313232421875,-0.7528196573257446,-0.04285165295004845
1683128598939167000,7.5281669921875,-0.024184226989746094,-0.35715270042419434,0.11885029077529907
1683128598957006000,7.546006103515625,0.1953420639038086,-0.5408278703689575,-0.18753960728645325
1683128598974844700,7.5638447265625,-0.09011077880859375,-0.3588132858276367,0.2604401409626007
1683128598992672000,7.581672119140625,0.10355186462402344,-0.480549693107605,-0.19539959728717804
1683128599010514400,7.599514404296875,-0.08596611022949219,-0.41226625442504883,0.3039247989654541
1683128599028361700,7.61736181640625,0.052886009216308594,-0.42793524265289307,-0.12655463814735413
1683128599046194700,7.635194580078125,0.002048492431640625,-0.5865974426269531,0.15173566341400146
1683128599064038000,7.653037841796875,0.000934600830078125,-0.2921057939529419,-0.15810276567935944
1683128599081876700,7.670876708984375,0.0922403335571289,-0.788733959197998,0.08620907366275787
1683128599099715000,7.688715087890625,-0.10330009460449219,-0.06521236896514893,-0.09475202858448029
1683128599117554000,7.706553955078125,0.11577415466308594,-0.8667237162590027,0.0790061503648758
1683128599135391200,7.72439111328125,-0.056713104248046875,-0.03406083583831787,0.029643382877111435
1683128599153231000,7.742231201171875,0.24445438385009766,-0.7493170499801636,-0.04640530049800873
1683128599171068700,7.760068603515625,-0.008788108825683594,-0.3233344554901123,0.1428566873073578
1683128599188910000,7.77791015625,0.22504329681396484,-0.4922384023666382,-0.19302605092525482
1683128599206747600,7.79574755859375,0.018886566162109375,-0.46480274200439453,0.23135055601596832
1683128599224581600,7.81358154296875,0.12059497833251953,-0.5061948299407959,-0.2602384090423584
1683128599242428700,7.8314287109375,-0.06793403625488281,-0.4504389762878418,0.2611533999443054
1683128599260263200,7.84926318359375,0.061188697814941406,-0.4113798141479492,-0.14329034090042114
1683128599278102300,7.867102294921875,-0.0654134750366211,-0.5224170684814453,0.22378310561180115
1683128599295940400,7.8849404296875,0.0011882781982421875,-0.30459845066070557,-0.09647506475448608
1683128599313779500,7.902779541015625,0.03669166564941406,-0.7540018558502197,0.1398436427116394
1683128599331617800,7.92061767578125,-0.057971954345703125,-0.12064683437347412,-0.12882515788078308
1683128599349456600,7.93845654296875,0.05559730529785156,-0.8912229537963867,0.08766239881515503
1683128599367290000,7.9562900390625,-0.12335014343261719,0.05412161350250244,0.031248413026332855
1683128599385133800,7.9741337890625,0.24576759338378906,-0.7014167308807373,-0.015608448535203934
1683128599402973000,7.991972900390625,-0.07802391052246094,-0.19319510459899902,0.16846448183059692
1683128599420810200,8.009810302734374,0.22863101959228516,-0.45189952850341797,-0.2240891456604004
1683128599438651000,8.02765087890625,0.024129867553710938,-0.5510623455047607,0.17182771861553192
1683128599456488400,8.045488525390626,0.2142486572265625,-0.40184760093688965,-0.31033700704574585
1683128599474323500,8.063323486328125,0.043849945068359375,-0.5710572004318237,0.19921614229679108
1683128599492168700,8.081168701171874,-0.008182525634765625,-0.4381054639816284,-0.2188992202281952
1683128599510005000,8.0990048828125,0.038390159606933594,-0.4899507761001587,0.26134857535362244
1683128599527843600,8.116843505859375,0.0070037841796875,-0.25435924530029297,-0.1083371639251709
1683128599545675300,8.13467529296875,0.0032243728637695312,-0.7118128538131714,0.20122992992401123
1683128599563520800,8.152520751953125,-0.008570671081542969,-0.14161944389343262,-0.09386924654245377
1683128599581347600,8.17034765625,0.09308052062988281,-0.8630838394165039,0.13516783714294434
1683128599599198200,8.1881982421875,-0.12143993377685547,-0.09451663494110107,0.004229269921779633
1683128599617037000,8.206037109375,0.1772327423095703,-0.659110426902771,-0.025423403829336166
1683128599634878500,8.22387841796875,-0.13620376586914062,-0.1390531063079834,0.18650344014167786
1683128599652709400,8.24170947265625,0.24195575714111328,-0.473008394241333,-0.22598299384117126
1683128599670555600,8.2595556640625,-0.03797626495361328,-0.43295609951019287,0.23835065960884094
1683128599688387600,8.2773876953125,0.14023494720458984,-0.32570064067840576,-0.2968291938304901
1683128599706229200,8.295229248046875,0.026048660278320312,-0.628575325012207,0.16408318281173706
1683128599724069000,8.313069091796875,-0.013186454772949219,-0.34449756145477295,-0.19871309399604797
1683128599741906000,8.330906005859376,0.02833843231201172,-0.5989195108413696,0.1319740116596222
1683128599759746800,8.348746826171874,-0.05747795104980469,-0.16249477863311768,-0.05882911756634712
1683128599777585000,8.3665849609375,0.11968421936035156,-0.7638923525810242,0.12266550958156586
1683128599795411200,8.3844111328125,-0.0015573501586914062,-0.08734762668609619,-0.019124988466501236
1683128599813261000,8.402260986328125,0.18583106994628906,-0.7859547138214111,0.07851134985685349
1683128599831102000,8.42010205078125,-0.0826559066772461,-0.22488927841186523,0.01652495190501213
1683128599848938800,8.437938720703125,0.1983203887939453,-0.6086561679840088,-0.10777377337217331
1683128599866778400,8.4557783203125,-0.1925373077392578,-0.2374424934387207,0.17049375176429749
1683128599884616200,8.4736162109375,0.2171955108642578,-0.4706106185913086,-0.2288963347673416
1683128599902455600,8.49145556640625,-0.10870742797851562,-0.3635387420654297,0.2897723317146301
1683128599920294100,8.509294189453126,0.14058494567871094,-0.3867330551147461,-0.18586716055870056
1683128599938132500,8.527132568359375,-0.05237007141113281,-0.5161383152008057,0.2094397097826004
1683128599955971300,8.544971435546875,-0.018983840942382812,-0.27495276927948,-0.172050341963768
1683128599973810200,8.56281005859375,0.02927875518798828,-0.6460833549499512,0.106502003967762
1683128599991647200,8.580647216796875,-0.08127880096435547,-0.10902702808380127,-0.1322985291481018
1683128600009488600,8.598488525390625,0.14675235748291016,-0.8064172267913818,0.07174400240182877
1683128600027328500,8.61632861328125,-0.03966522216796875,0.02755427360534668,-0.008133143186569214
1683128600045158400,8.634158447265625,0.20770645141601562,-0.7596023082733154,0.0069639720022678375
1683128600063002600,8.652002685546876,-0.0061588287353515625,-0.22952497005462646,0.07307450473308563
1683128600080838100,8.669838134765625,0.23502540588378906,-0.519849419593811,-0.13772627711296082
1683128600098685200,8.687685302734375,-0.07477092742919922,-0.37220287322998047,0.18487751483917236
1683128600116519200,8.705519287109375,0.11106395721435547,-0.46101558208465576,-0.23668846487998962
1683128600134357200,8.723357177734375,-0.0523834228515625,-0.3216456174850464,0.2964670956134796
1683128600152197600,8.74119775390625,0.0865163803100586,-0.3908323049545288,-0.1622677445411682
1683128600170035200,8.75903515625,-0.09924697875976562,-0.44091928005218506,0.19810011982917786
1683128600187874300,8.776874267578124,-0.027991294860839844,-0.2971186637878418,-0.14429230988025665
1683128600205710300,8.79471044921875,0.05642414093017578,-0.6424657106399536,0.10423731803894043
1683128600223554300,8.81255419921875,-0.04129219055175781,-0.13515210151672363,-0.15055052936077118
1683128600241378600,8.830378662109375,0.09739112854003906,-0.8333183526992798,0.07900072634220123
1683128600259228700,8.848228759765625,-0.11213970184326172,0.09978437423706055,-0.04683714732527733
1683128600277055700,8.8660556640625,0.231689453125,-0.7525230646133423,0.03896382451057434
1683128600294901800,8.88390185546875,-0.07018089294433594,-0.10351085662841797,0.11372320353984833
1683128600312745000,8.901744873046875,0.21246910095214844,-0.5129299163818359,-0.12060845643281937
1683128600330582800,8.919582763671874,0.0023975372314453125,-0.38850677013397217,0.16918136179447174
1683128600348423400,8.93742333984375,0.16607379913330078,-0.3921470642089844,-0.2842491865158081
1683128600366260700,8.9552607421875,-0.015752792358398438,-0.4290241003036499,0.24414455890655518
1683128600384098300,8.973098388671875,0.08060836791992188,-0.4383629560470581,-0.21777454018592834
1683128600401939200,8.990939208984376,-0.037451744079589844,-0.4067493677139282,0.2749609649181366
1683128600419777000,9.008777099609375,0.0153656005859375,-0.28847599029541016,-0.10876567661762238
1683128600437615000,9.026614990234375,-0.01870250701904297,-0.550678014755249,0.2006685733795166
1683128600455449600,9.04444970703125,-0.03753185272216797,-0.16881978511810303,-0.09598629176616669
1683128600473292300,9.062292236328124,0.06775379180908203,-0.7972726821899414,0.1356090009212494
1683128600491132200,9.080132080078124,-0.10467815399169922,0.022185921669006348,-0.06112877279520035
1683128600508969700,9.0979697265625,0.15133190155029297,-0.7923551797866821,0.03959657624363899
1683128600526807800,9.115807861328125,-0.1509847640991211,0.02169656753540039,0.09918729960918427
1683128600544649200,9.133649169921876,0.26181888580322266,-0.49203217029571533,-0.14521466195583344
1683128600562486800,9.15148681640625,-0.03087615966796875,-0.31707441806793213,0.19132031500339508
1683128600580324600,9.16932470703125,0.2045125961303711,-0.3217027187347412,-0.2911439538002014
1683128600598164000,9.1871640625,0.028100013732910156,-0.5179669857025146,0.17581313848495483
1683128600616002000,9.205001953125,0.0648050308227539,-0.35474205017089844,-0.2802227735519409
1683128600633841200,9.222841064453124,-0.016126632690429688,-0.4776989221572876,0.22779008746147156
1683128600651679200,9.24067919921875,0.030254364013671875,-0.26076626777648926,-0.13983407616615295
1683128600669518000,9.25851806640625,-0.00020503997802734375,-0.5149674415588379,0.2271738052368164
1683128600687357000,9.27635693359375,-0.02177715301513672,-0.07900261878967285,-0.06847870349884033
1683128600705193700,9.29419384765625,0.07539844512939453,-0.7813575863838196,0.15151123702526093
1683128600723034400,9.312034423828125,-0.045815467834472656,-0.07890486717224121,-0.06340538710355759
1683128600740873200,9.329873291015625,0.150726318359375,-0.6982418298721313,0.036757513880729675
1683128600758712000,9.347712158203125,-0.15500926971435547,-0.03836047649383545,0.11285699903964996
1683128600776546300,9.36554638671875,0.22472381591796875,-0.4595944881439209,-0.14853373169898987
1683128600794388700,9.383388671875,-0.08616352081298828,-0.2065572738647461,0.24029144644737244
1683128600812227800,9.401227783203124,0.18967151641845703,-0.32864809036254883,-0.27342504262924194
1683128600830066700,9.419066650390626,-0.009804725646972656,-0.4691200256347656,0.2123759537935257
1683128600847905500,9.436905517578126,0.03891468048095703,-0.29312753677368164,-0.23626680672168732
1683128600865743400,9.454743408203125,-0.0008935928344726562,-0.5486701726913452,0.14280609786510468
1683128600883582700,9.472582763671875,-0.015794754028320312,-0.18914783000946045,-0.10139559209346771
1683128600901420000,9.490419921875,0.0806417465209961,-0.6223219633102417,0.12640602886676788
1683128600919261400,9.508261474609375,-0.11323070526123047,-0.004707217216491699,-0.02538612112402916
1683128600937095400,9.526095458984376,0.16503238677978516,-0.7408825755119324,0.08712732791900635
1683128600954933800,9.543933837890625,-0.024323463439941406,-0.0859522819519043,-0.027386430650949478
1683128600972776200,9.561776123046876,0.22753047943115234,-0.6268554925918579,-0.003127310425043106
1683128600990616000,9.579615966796876,-0.15112590789794922,-0.21228837966918945,0.08389918506145477
1683128601008451000,9.597451171875,0.20779132843017578,-0.43938982486724854,-0.18746674060821533
1683128601026287400,9.615287353515624,-0.14466190338134766,-0.23835062980651855,0.2522553503513336
1683128601044130800,9.633130859375,0.1676177978515625,-0.3557415008544922,-0.2228546291589737
1683128601061969700,9.6509697265625,-0.10392475128173828,-0.37144744396209717,0.2671660780906677
1683128601079807500,9.668807373046874,0.019659042358398438,-0.2974604368209839,-0.15322020649909973
1683128601097642000,9.68664208984375,0.007289886474609375,-0.5085070133209229,0.1459580659866333
1683128601115485200,9.704485107421876,-0.06456184387207031,-0.16469740867614746,-0.15536198019981384
1683128601133324300,9.72232421875,0.061013221740722656,-0.6923545598983765,0.08592066168785095
1683128601151161000,9.7401611328125,-0.09695625305175781,0.09111535549163818,-0.07989546656608582
1683128601168999400,9.75799951171875,0.20619964599609375,-0.7670775651931763,0.06138083338737488
1683128601186828500,9.77582861328125,-0.010224342346191406,-0.008232474327087402,0.03993606194853783
1683128601204670000,9.793669921875,0.23545551300048828,-0.5754145383834839,-0.07003143429756165
1683128601222516200,9.81151611328125,-0.012370109558105469,-0.28884148597717285,0.13311049342155457
1683128601240357000,9.829357177734375,0.13850784301757812,-0.4043862819671631,-0.20727887749671936
1683128601258194700,9.847194580078124,-0.04179668426513672,-0.30830490589141846,0.2595290243625641
1683128601276033800,9.86503369140625,0.09186267852783203,-0.3667560815811157,-0.22899475693702698
1683128601293871900,9.882871826171876,-0.10752296447753906,-0.3132439851760864,0.2536899745464325
1683128601311710500,9.90071044921875,0.05118370056152344,-0.3007664680480957,-0.13777901232242584
1683128601329549300,9.91854931640625,-0.03563117980957031,-0.45629870891571045,0.14353632926940918
1683128601347383800,9.9363837890625,-0.04697704315185547,-0.16701745986938477,-0.1465519517660141
1683128601365226800,9.954226806640625,0.08523845672607422,-0.6943145990371704,0.08734534680843353
1683128601383065300,9.9720654296875,-0.10737228393554688,0.08540999889373779,-0.11464883387088776
1683128601400904200,9.989904296875,0.12497520446777344,-0.7754054665565491,0.05070183426141739
1683128601418738400,10.007738525390625,-0.14922332763671875,0.10109198093414307,0.0245356447994709
1683128601436578600,10.02557861328125,0.2376260757446289,-0.5967686176300049,-0.03792211413383484
1683128601454422800,10.0434228515625,-0.04667949676513672,-0.17750227451324463,0.15333186089992523
1683128601472257500,10.061257568359375,0.2548837661743164,-0.3560945987701416,-0.23938319087028503
1683128601490099000,10.079098876953125,-0.0019845962524414062,-0.43984735012054443,0.15690062940120697
1683128601507935700,10.096935791015625,0.1121816635131836,-0.33488547801971436,-0.30249738693237305
1683128601525775400,10.114775390625,0.010439872741699219,-0.4069753885269165,0.26009902358055115
1683128601543612200,10.132612060546874,0.03149604797363281,-0.3198661804199219,-0.1742272526025772
1683128601561441800,10.15044189453125,-0.047043800354003906,-0.38222503662109375,0.2455977201461792
1683128601579290600,10.16829052734375,-0.013803482055664062,-0.1664355993270874,-0.08977989852428436
1683128601597129700,10.186129638671876,-0.014644622802734375,-0.6050411462783813,0.17752239108085632
1683128601614964700,10.20396484375,-0.10087013244628906,-0.008237600326538086,-0.10833606123924255
1683128601632796000,10.2217958984375,0.11170291900634766,-0.7732330560684204,0.10912834852933884
1683128601650633500,10.239633544921874,-0.16489601135253906,0.11065053939819336,0.008553065359592438
1683128601668476400,10.257476318359375,0.16136741638183594,-0.5705748796463013,-0.02636302262544632
1683128601686314800,10.275314697265625,-0.06464767456054688,-0.055294036865234375,0.18932178616523743
1683128601704150500,10.293150634765626,0.2450714111328125,-0.32781994342803955,-0.22065865993499756
1683128601722000400,10.31100048828125,-0.020895957946777344,-0.4242093563079834,0.17190420627593994
1683128601739839000,10.3288388671875,0.14437294006347656,-0.2585563659667969,-0.3206593990325928
1683128601757677600,10.346677490234375,0.0291748046875,-0.5147436857223511,0.1575729250907898
1683128601775516400,10.364516357421875,0.028405189514160156,-0.25363147258758545,-0.20909692347049713
1683128601793353700,10.382353759765625,-0.015967369079589844,-0.44832730293273926,0.21433040499687195
1683128601811195100,10.400195068359375,-0.031116485595703125,-0.06323063373565674,-0.06130445748567581
1683128601829032700,10.41803271484375,0.057689666748046875,-0.6420098543167114,0.1706429123878479
1683128601846871300,10.435871337890624,-0.0328369140625,-0.033721208572387695,-0.0618927925825119
1683128601864707000,10.45370703125,0.1479167938232422,-0.6840330958366394,0.09885592758655548
1683128601882551600,10.471551513671875,-0.12936782836914062,-0.04104304313659668,0.03752433881163597
1683128601900386800,10.48938671875,0.1515359878540039,-0.507495641708374,-0.07449180632829666
1683128601918226200,10.50722607421875,-0.1593179702758789,-0.07128250598907471,0.21291057765483856
1683128601936061000,10.52506103515625,0.2680654525756836,-0.32835185527801514,-0.2513856887817383
1683128601953903000,10.542903076171875,-0.06516170501708984,-0.3198533058166504,0.26612985134124756
1683128601971741700,10.56074169921875,0.10188484191894531,-0.23225414752960205,-0.25734710693359375
1683128601989580800,10.578580810546875,-0.03262805938720703,-0.4725687503814697,0.1765044927597046
1683128602007418600,10.596418701171874,-0.02852344512939453,-0.19099867343902588,-0.15862718224525452
1683128602025258200,10.61425830078125,0.06783008575439453,-0.5458931922912598,0.11448107659816742
1683128602043096800,10.632096923828126,-0.07523250579833984,0.020299434661865234,-0.05923568457365036
1683128602060935400,10.649935302734375,0.14261436462402344,-0.680071234703064,0.11047311127185822
1683128602078773500,10.6677734375,-0.02307605743408203,0.07532894611358643,-0.015997789800167084
1683128602096612600,10.685612548828125,0.20137691497802734,-0.6389313340187073,0.008859038352966309
1683128602114450000,10.703449951171875,-0.07216644287109375,-0.15761101245880127,0.03675511106848717
1683128602132291300,10.721291259765625,0.2025432586669922,-0.4375014305114746,-0.13114053010940552
1683128602150128000,10.739128173828124,-0.13979625701904297,-0.20497000217437744,0.19874688982963562
1683128602167964000,10.7569638671875,0.14261817932128906,-0.33649933338165283,-0.21191704273223877
1683128602185801500,10.774801513671875,-0.11004924774169922,-0.2349010705947876,0.28355735540390015
1683128602203643100,10.79264306640625,0.06937599182128906,-0.2851700782775879,-0.15073469281196594
1683128602221483300,10.810483154296875,-0.03452587127685547,-0.3977264165878296,0.20694297552108765
1683128602239322000,10.828322021484375,-0.034999847412109375,-0.1565539836883545,-0.13990701735019684
1683128602257157000,10.8461572265625,0.04895973205566406,-0.5823467373847961,0.08728036284446716
1683128602274996000,10.863995849609376,-0.10776233673095703,0.04954934120178223,-0.13613399863243103
1683128602292837400,10.88183740234375,0.09943389892578125,-0.7112575769424438,0.08516623079776764
1683128602310676700,10.8996767578125,-0.09581661224365234,0.16475272178649902,-0.005932249128818512
1683128602328512300,10.91751220703125,0.20949745178222656,-0.6409658789634705,0.014516744762659073
1683128602346357200,10.935357177734375,-0.03558826446533203,-0.0904684066772461,0.11649492383003235
1683128602364189400,10.953189453125,0.1841411590576172,-0.3672769069671631,-0.1582484245300293
1683128602382034400,10.971034423828126,0.01549530029296875,-0.29275357723236084,0.19300755858421326
1683128602399867400,10.988867431640625,0.09202384948730469,-0.33506059646606445,-0.2780405879020691
1683128602417711600,11.006711669921875,-0.08272552490234375,-0.27378249168395996,0.2675198018550873
1683128602435542500,11.02454248046875,0.06087684631347656,-0.3042774200439453,-0.19415044784545898
1683128602453385700,11.0423857421875,-0.056853294372558594,-0.3355093002319336,0.23602977395057678
1683128602471224600,11.060224609375,-0.03301429748535156,-0.162245512008667,-0.11707605421543121
1683128602489063400,11.0780634765625,0.015398025512695312,-0.574034571647644,0.1380620300769806
1683128602506897000,11.09589697265625,-0.04450798034667969,-0.012045621871948242,-0.1430853009223938
1683128602524740900,11.113740966796875,0.05452251434326172,-0.721219539642334,0.0876915231347084
1683128602542579500,11.131579345703125,-0.1805868148803711,0.177384614944458,-0.022926371544599533
1683128602560419300,11.14941943359375,0.20360374450683594,-0.6354026794433594,0.018923696130514145
1683128602578255600,11.167255615234374,-0.07351207733154297,0.03165125846862793,0.13749712705612183
1683128602596103700,11.185103759765624,0.22023296356201172,-0.36383676528930664,-0.18517640233039856
1683128602613934000,11.20293408203125,-0.032077789306640625,-0.3251446485519409,0.1595889776945114
1683128602631773000,11.22077294921875,0.19075489044189453,-0.25156307220458984,-0.29309895634651184
1683128602649599200,11.23859912109375,-0.030404090881347656,-0.4110410213470459,0.1922033578157425
1683128602667450000,11.2564501953125,0.056496620178222656,-0.28805088996887207,-0.23941291868686676
1683128602685288700,11.274288818359375,-0.03810596466064453,-0.35984981060028076,0.23833802342414856
1683128602703127600,11.29212744140625,-0.037848472595214844,-0.15116405487060547,-0.11844825744628906
1683128602720954000,11.3099541015625,-0.029547691345214844,-0.4663201570510864,0.21195140480995178
1683128602738805000,11.327804931640625,-0.037123680114746094,-0.018620729446411133,-0.10016472637653351
1683128602756637700,11.3456376953125,0.03318977355957031,-0.7068110108375549,0.14734797179698944
1683128602774483500,11.3634833984375,-0.130279541015625,0.06620943546295166,-0.060090817511081696
1683128602792320500,11.381320556640626,0.1472797393798828,-0.6092416048049927,0.03532550856471062
1683128602810159600,11.39915966796875,-0.1776905059814453,0.07468509674072266,0.1371219903230667
1683128602827993600,11.41699365234375,0.2364654541015625,-0.34655582904815674,-0.181031733751297
1683128602845837300,11.43483740234375,-0.05544281005859375,-0.21476662158966064,0.23614680767059326
1683128602863675100,11.452675048828125,0.16255950927734375,-0.1980140209197998,-0.30846720933914185
1683128602881513200,11.47051318359375,0.01829242706298828,-0.4236142635345459,0.17544713616371155
1683128602899354000,11.48835400390625,-0.04437541961669922,-0.21750342845916748,-0.2358224242925644
1683128602917190000,11.50618994140625,0.011959075927734375,-0.4582482576370239,0.1537235975265503
1683128602935028000,11.524028076171875,-0.06981658935546875,-0.04133045673370361,-0.09680196642875671
1683128602952868900,11.541868896484376,0.09017086029052734,-0.5532716512680054,0.13939133286476135
1683128602970707500,11.55970751953125,-0.05655384063720703,0.0648568868637085,-0.035886604338884354
1683128602988546300,11.57754638671875,0.14501667022705078,-0.6780805587768555,0.10511170327663422
1683128603006384400,11.59538427734375,-0.09283161163330078,-0.04937565326690674,-0.03434333950281143
1683128603024223500,11.613223388671875,0.19393444061279297,-0.5106263160705566,-0.04434334486722946
1683128603042062300,11.631062255859375,-0.20628070831298828,-0.09192144870758057,0.13100168108940125
1683128603059901200,11.648901123046874,0.17590904235839844,-0.3297557830810547,-0.20606312155723572
1683128603077734400,11.666734375,-0.12707996368408203,-0.1778852939605713,0.2706567049026489
1683128603095578600,11.68457861328125,0.07865715026855469,-0.24380004405975342,-0.2418653964996338
1683128603113417000,11.7024169921875,-0.0454254150390625,-0.36150920391082764,0.23617121577262878
1683128603131244800,11.720244873046875,0.06881999969482422,-0.15612924098968506,-0.17684073746204376
1683128603149094000,11.738093994140625,-0.03518962860107422,-0.48416614532470703,0.12357550859451294
1683128603166923300,11.75592333984375,-0.11575031280517578,-0.030603528022766113,-0.14397971332073212
1683128603184759600,11.773759521484376,0.13956737518310547,-0.6258617639541626,0.08553748577833176
1683128603202609400,11.791609375,-0.07439041137695312,0.15667033195495605,-0.04054613038897514
1683128603220448500,11.809448486328124,0.18993663787841797,-0.6566706895828247,0.05151887238025665
1683128603238288600,11.82728857421875,-0.06135368347167969,-0.030181050300598145,0.03440166637301445
1683128603256126000,11.8451259765625,0.22353172302246094,-0.4358311891555786,-0.0933331623673439
1683128603273965300,11.86296533203125,-0.025597572326660156,-0.20515501499176025,0.15115973353385925
1683128603291800000,11.880800048828124,0.11251258850097656,-0.31670820713043213,-0.2254992127418518
1683128603309645000,11.89864501953125,-0.11107158660888672,-0.19264960289001465,0.28488457202911377
1683128603327480800,11.916480712890625,0.07708358764648438,-0.2909080982208252,-0.17335501313209534
1683128603345315600,11.934315673828126,-0.10368919372558594,-0.26072216033935547,0.23348721861839294
1683128603363162600,11.95216259765625,-0.035888671875,-0.20420312881469727,-0.13670393824577332
1683128603380996900,11.969996826171876,-0.028072357177734375,-0.4651648998260498,0.1340028941631317
1683128603398831000,11.9878310546875,-0.04405403137207031,-0.015046238899230957,-0.1813344806432724
1683128603416672000,12.005672119140625,0.06537151336669922,-0.662749171257019,0.07114697992801666
1683128603434515000,12.023514892578126,-0.16509246826171875,0.20118963718414307,-0.08040519803762436
1683128603452351500,12.0413515625,0.1631031036376953,-0.6472887992858887,0.07103653252124786
1683128603470190300,12.0591904296875,-0.09542465209960938,0.08486270904541016,0.08728078752756119
1683128603488029000,12.07702880859375,0.20048046112060547,-0.42511940002441406,-0.1021708995103836
1683128603505867000,12.094866943359374,-0.049775123596191406,-0.2052772045135498,0.15327127277851105
1683128603523705000,12.112705078125,0.1867971420288086,-0.2530096769332886,-0.24786368012428284
1683128603541546000,12.1305458984375,0.0182037353515625,-0.30779731273651123,0.23430007696151733
1683128603559383800,12.1483837890625,0.10114479064941406,-0.2611175775527954,-0.25224408507347107
1683128603577210400,12.16621044921875,-0.055129051208496094,-0.30000877380371094,0.25898289680480957
1683128603595051000,12.184051025390625,-0.009960174560546875,-0.17654824256896973,-0.11636891961097717
1683128603612899600,12.201899658203125,-0.0701904296875,-0.3728889226913452,0.22486162185668945
1683128603630738700,12.21973876953125,-0.0357818603515625,-0.05109250545501709,-0.10556171834468842
1683128603648576000,12.237575927734374,0.046909332275390625,-0.6107420325279236,0.13977479934692383
1683128603666415600,12.25541552734375,-0.13829517364501953,0.11738812923431396,-0.1104322150349617
1683128603684242200,12.2732421875,0.080291748046875,-0.6757914423942566,0.06636301428079605
1683128603702093300,12.29109326171875,-0.1769237518310547,0.18301701545715332,0.07559506595134735
1683128603719930400,12.308930419921875,0.2503623962402344,-0.4117739200592041,-0.08482680469751358
1683128603737770200,12.326770263671875,-0.03188133239746094,-0.11763358116149902,0.1731673926115036
1683128603755608800,12.34460888671875,0.20698261260986328,-0.19602525234222412,-0.2834472060203552
1683128603773448000,12.362447998046875,-0.014646530151367188,-0.3993567228317261,0.17026065289974213
1683128603791285800,12.38028564453125,0.05874347686767578,-0.2213677167892456,-0.294761061668396
1683128603809124900,12.398124755859374,-0.008734703063964844,-0.3825317621231079,0.1947600245475769
1683128603826963500,12.41596337890625,-0.01656627655029297,-0.15513205528259277,-0.16900022327899933
1683128603844800000,12.433800048828125,-0.014637947082519531,-0.36743688583374023,0.21794570982456207
1683128603862643000,12.451642822265624,0.004199981689453125,0.027262330055236816,-0.08558933436870575
1683128603880476700,12.4694765625,0.05775928497314453,-0.6052145957946777,0.17446239292621613
1683128603898321000,12.48732080078125,-0.09483718872070312,0.03498554229736328,-0.06311425566673279
1683128603916155400,12.5051552734375,0.13877296447753906,-0.5839457511901855,0.07672810554504395
1683128603933996800,12.522996826171875,-0.2079753875732422,0.08492815494537354,0.07639992237091064
1683128603951834000,12.540834228515624,0.2265481948852539,-0.3665117025375366,-0.13833896815776825
1683128603969672400,12.55867236328125,-0.11737537384033203,-0.050449252128601074,0.2413317710161209
1683128603987511800,12.57651171875,0.1859130859375,-0.21031033992767334,-0.2781273424625397
1683128604005349600,12.594349609375,-0.027330398559570312,-0.3093777894973755,0.23626379668712616
1683128604023188500,12.6121884765625,0.04584312438964844,-0.13571667671203613,-0.24711419641971588
1683128604041011700,12.63001171875,-0.015710830688476562,-0.39722156524658203,0.1592441350221634
1683128604058866400,12.647866455078125,-0.07978153228759766,-0.06449759006500244,-0.131851926445961
1683128604076701000,12.665700927734376,0.07926177978515625,-0.48488378524780273,0.12577928602695465
1683128604094546400,12.68354638671875,-0.11050605773925781,0.12089812755584717,-0.02898510918021202
1683128604112382000,12.7013818359375,0.16358375549316406,-0.6077052354812622,0.10977227985858917
1683128604130221000,12.719220947265624,-0.06939888000488281,0.06820595264434814,-0.01766984537243843
1683128604148057300,12.737057373046875,0.21535587310791016,-0.5287529230117798,-0.0036216825246810913
1683128604165893400,12.754893310546874,-0.0730743408203125,-0.0801546573638916,0.05739312246441841
1683128604183724800,12.772724853515625,0.16557979583740234,-0.34022200107574463,-0.18252763152122498
1683128604201576000,12.790575927734375,-0.19655323028564453,-0.1149904727935791,0.2294870913028717
1683128604219413500,12.80841357421875,0.1483755111694336,-0.2281193733215332,-0.19664664566516876
1683128604237252900,12.8262529296875,-0.1226663589477539,-0.2157803773880005,0.2753358781337738
1683128604255091200,12.84409130859375,-0.010713577270507812,-0.1580204963684082,-0.14725442230701447
1683128604272930600,12.8619306640625,-0.005146980285644531,-0.37197375297546387,0.15699483454227448
1683128604290763800,12.879763671875,-0.11267566680908203,-0.052276015281677246,-0.1784992814064026
1683128604308611600,12.897611572265625,0.04349231719970703,-0.5555552244186401,0.08415943384170532
1683128604326445600,12.915445556640625,-0.1054391860961914,0.19755566120147705,-0.10100269317626953
1683128604344281600,12.933281494140624,0.1485748291015625,-0.6381351351737976,0.06939998269081116
1683128604362126300,12.951126220703125,-0.06296157836914062,0.16105437278747559,0.044323839247226715
1683128604379948000,12.968947998046875,0.22626113891601562,-0.49272578954696655,-0.03319944068789482
1683128604397792000,12.9867919921875,-0.0032901763916015625,-0.12812387943267822,0.11397412419319153
1683128604415639300,13.004639404296874,0.15070819854736328,-0.25300776958465576,-0.20609314739704132
1683128604433477400,13.022477294921876,-0.07570934295654297,-0.21311473846435547,0.24051305651664734
1683128604451316200,13.040316162109375,0.10084724426269531,-0.2546210289001465,-0.23937229812145233
1683128604469155000,13.058155029296875,-0.12463760375976562,-0.17617595195770264,0.2637900710105896
1683128604486989600,13.075989501953124,0.03309917449951172,-0.1815105676651001,-0.142836794257164
1683128604504832000,13.09383203125,-0.047926902770996094,-0.32741236686706543,0.17226816713809967
1683128604522671400,13.11167138671875,-0.03259563446044922,-0.02304065227508545,-0.11944615840911865
1683128604540509000,13.129509033203124,0.02042388916015625,-0.580683708190918,0.11385416984558105
1683128604558349600,13.147349609375,-0.14420127868652344,0.14664041996002197,-0.14391399919986725
1683128604576186600,13.1651865234375,0.11655426025390625,-0.6579657793045044,0.05621684715151787
1683128604594025700,13.183025634765626,-0.14092350006103516,0.2488342523574829,0.007878068834543228
1683128604611863300,13.20086328125,0.2117147445678711,-0.4852612018585205,-0.045389268547296524
1683128604629704200,13.2187041015625,-0.09520339965820312,-0.012570977210998535,0.15202918648719788
1683128604647541500,13.23654150390625,0.2578592300415039,-0.21067452430725098,-0.23667657375335693
1683128604665380600,13.254380615234375,0.006035804748535156,-0.3311774730682373,0.15083178877830505
1683128604683219200,13.27221923828125,0.10466575622558594,-0.20627963542938232,-0.2877520024776459
1683128604701057800,13.290057861328124,-0.0035247802734375,-0.30451536178588867,0.22296297550201416
1683128604718896000,13.307896240234374,-0.0006046295166015625,-0.19417500495910645,-0.1888582557439804
1683128604736735200,13.3257353515625,-0.050644874572753906,-0.2720247507095337,0.25429612398147583
1683128604754573800,13.34357373046875,-0.04210948944091797,-0.0039920806884765625,-0.08686739206314087
1683128604772412700,13.36141259765625,-0.0333099365234375,-0.5329594612121582,0.18086981773376465
1683128604790250500,13.37925048828125,-0.060172080993652344,0.09987938404083252,-0.12756814062595367
1683128604808085000,13.3970849609375,0.07372188568115234,-0.6482549905776978,0.12347844243049622
1683128604825928200,13.41492822265625,-0.2079010009765625,0.18008804321289062,0.0014742650091648102
1683128604843767300,13.432767333984375,0.21767902374267578,-0.41807734966278076,-0.006260473281145096
1683128604861604000,13.45060400390625,-0.11517143249511719,0.05709517002105713,0.20843854546546936
1683128604879445500,13.468445556640624,0.23282909393310547,-0.2139800786972046,-0.2576555907726288
1683128604897282800,13.48628271484375,-0.05102729797363281,-0.2838171720504761,0.19988375902175903
1683128604915121700,13.50412158203125,0.07597160339355469,-0.1452198028564453,-0.30051103234291077
1683128604932958200,13.521958251953125,0.016998291015625,-0.38944292068481445,0.16865676641464233
1683128604950800000,13.5397998046875,-0.054030418395996094,-0.09524214267730713,-0.19695940613746643
1683128604968637200,13.55763720703125,0.0053386688232421875,-0.409462571144104,0.1504916399717331
1683128604986476300,13.575476318359375,-0.051140785217285156,0.08161842823028564,-0.05763571709394455
1683128605004314400,13.593314453125,0.11322498321533203,-0.5356584191322327,0.13964170217514038
1683128605022151000,13.61115087890625,-0.12251567840576172,0.0758746862411499,-0.040086518973112106
1683128605039992300,13.628992431640626,0.15589141845703125,-0.5736299753189087,0.07395060360431671
1683128605057831200,13.6468310546875,-0.12254047393798828,0.026230812072753906,0.025908097624778748
1683128605075669000,13.6646689453125,0.17177963256835938,-0.37122392654418945,-0.12473820149898529
1683128605093508000,13.682508056640625,-0.22613143920898438,-0.03143656253814697,0.18657439947128296
1683128605111346700,13.7003466796875,0.2029104232788086,-0.1843397617340088,-0.2269943654537201
1683128605129181200,13.71818115234375,-0.12853527069091797,-0.18835580348968506,0.28026312589645386
1683128605147024000,13.73602392578125,0.060196876525878906,-0.14636194705963135,-0.1960439682006836
1683128605164863000,13.753863037109374,-0.06656074523925781,-0.3349153995513916,0.1904512643814087
1683128605182700000,13.771699951171875,-0.009362220764160156,-0.047559380531311035,-0.1781993806362152
1683128605200540700,13.789540771484376,0.00005817413330078125,-0.4832956790924072,0.09745700657367706
1683128605218379300,13.807379150390625,-0.10965728759765625,0.13946115970611572,-0.11056415736675262
1683128605236217600,13.825217529296875,0.18959808349609375,-0.601211667060852,0.08474806696176529
1683128605254054700,13.8430546875,-0.07965564727783203,0.21931695938110352,-0.009027108550071716
1683128605271895800,13.860895751953125,0.21633148193359375,-0.5248041152954102,-0.012219320982694626
1683128605289732900,13.87873291015625,-0.03808784484863281,-0.0763556957244873,0.06778010725975037
1683128605307571700,13.89657177734375,0.17404937744140625,-0.28473031520843506,-0.15801841020584106
1683128605325410300,13.914410400390626,-0.04900074005126953,-0.15098845958709717,0.2157054841518402
1683128605343246600,13.93224658203125,0.05293083190917969,-0.22188806533813477,-0.2360287308692932
1683128605361078800,13.950078857421875,-0.11980915069580078,-0.12007021903991699,0.2894589304924011
1683128605378926300,13.96792626953125,0.015336036682128906,-0.20416998863220215,-0.14498773217201233
1683128605396762400,13.985762451171874,-0.08553886413574219,-0.27178680896759033,0.1921745389699936
1683128605414606800,14.00360693359375,-0.003833770751953125,-0.04201841354370117,-0.14841459691524506
1683128605432442000,14.021442138671874,0.018555641174316406,-0.49639344215393066,0.08565956354141235
1683128605450280700,14.03928076171875,-0.1265401840209961,0.1474548578262329,-0.15377585589885712
1683128605468120600,14.05712060546875,0.09031295776367188,-0.626552939414978,0.0780029147863388
1683128605485958400,14.07495849609375,-0.17709922790527344,0.27428746223449707,-0.01500331237912178
1683128605503795500,14.09279541015625,0.20033836364746094,-0.5152910947799683,0.011096220463514328
1683128605521624800,14.110624755859375,-0.07661151885986328,0.028909683227539062,0.12308964133262634
1683128605539474200,14.12847412109375,0.2195911407470703,-0.26509130001068115,-0.1798844188451767
1683128605557320000,14.14631982421875,-0.04157829284667969,-0.23111951351165771,0.16164295375347137
1683128605575146500,14.164146484375,0.1598367691040039,-0.18896234035491943,-0.29915472865104675
1683128605592990500,14.181990478515624,-0.010943412780761719,-0.2329806089401245,0.24595516920089722
1683128605610828500,14.19982861328125,-0.0011653900146484375,-0.18931210041046143,-0.2045842707157135
1683128605628655900,14.21765576171875,-0.0715169906616211,-0.22812461853027344,0.24978649616241455
1683128605646506000,14.235506103515625,-0.045683860778808594,-0.054251909255981445,-0.10529471933841705
1683128605664344800,14.2533447265625,-0.048358917236328125,-0.42919301986694336,0.18632709980010986
1683128605682183400,14.271183349609375,-0.06639289855957031,0.09078848361968994,-0.13371872901916504
1683128605700010500,14.289010498046874,0.04603004455566406,-0.6535001993179321,0.12168547511100769
1683128605717857800,14.30685791015625,-0.17902851104736328,0.26092660427093506,-0.05785927176475525
1683128605735702500,14.32470263671875,0.15004253387451172,-0.5239931344985962,0.0256887748837471
1683128605753537800,14.342537841796876,-0.10243606567382812,0.19207215309143066,0.143992617726326
1683128605771376600,14.360376708984376,0.22218704223632812,-0.2310577630996704,-0.15822042524814606
1683128605789215000,14.378215087890625,-0.09087371826171875,-0.22625470161437988,0.1747560203075409
1683128605807053600,14.396053466796875,0.15162372589111328,-0.09186124801635742,-0.31664788722991943
1683128605824889300,14.413889404296874,0.0039215087890625,-0.3522813320159912,0.16131576895713806
1683128605842731000,14.43173095703125,0.012403488159179688,-0.14691519737243652,-0.2483537346124649
1683128605860568300,14.449568359375,-0.06606769561767578,-0.2699676752090454,0.22280418872833252
1683128605878409500,14.467409423828125,-0.015539169311523438,0.02018284797668457,-0.11044493317604065
1683128605896235800,14.48523583984375,0.0031805038452148438,-0.42719805240631104,0.2138870358467102
1683128605914086000,14.5030859375,-0.03840065002441406,0.12737178802490234,-0.0716346949338913
1683128605931924000,14.520924072265625,0.08285808563232422,-0.5934669971466064,0.138153538107872
1683128605949748000,14.538748046875,-0.13600635528564453,0.09148383140563965,-0.032640766352415085
1683128605967601400,14.556601318359375,0.16875839233398438,-0.4403442144393921,-0.01529722660779953
1683128605985440300,14.574440185546875,-0.20995521545410156,0.1359502077102661,0.16671514511108398
1683128606003278600,14.592278564453125,0.200836181640625,-0.24579644203186035,-0.20728711783885956
1683128606021111300,14.610111328125,-0.08134937286376953,-0.11290717124938965,0.25325316190719604
1683128606038957300,14.627957275390624,0.13066959381103516,-0.08916449546813965,-0.2913440465927124
1683128606056794600,14.645794677734376,-0.02180767059326172,-0.2922348976135254,0.20075470209121704
1683128606074637600,14.663637451171875,-0.04528522491455078,-0.08565866947174072,-0.18609799444675446
1683128606092472300,14.681472412109375,0.01123046875,-0.37151646614074707,0.13779547810554504
1683128606110310700,14.699310546875,-0.0952301025390625,0.11776566505432129,-0.08914617449045181
1683128606128149200,14.717149169921875,0.10896968841552734,-0.5214194655418396,0.12640786170959473
1683128606145979400,14.7349794921875,-0.0713338851928711,0.21273434162139893,-0.02430497109889984
1683128606163826400,14.752826416015624,0.2237701416015625,-0.5046341419219971,0.06012933701276779
1683128606181665300,14.770665283203124,-0.11136817932128906,0.027587056159973145,-0.0025209933519363403
1683128606199504100,14.788504150390626,0.2484140396118164,-0.39136219024658203,-0.10218924283981323
1683128606217327600,14.80632763671875,-0.15154647827148438,-0.03937232494354248,0.13524293899536133
1683128606235184000,14.82418408203125,0.136749267578125,-0.2163388729095459,-0.21293091773986816
1683128606253019600,14.84201953125,-0.1546640396118164,-0.08768045902252197,0.290017694234848
1683128606270857200,14.859857177734375,0.02557849884033203,-0.15563499927520752,-0.16433638334274292
1683128606288697900,14.87769775390625,-0.11687850952148438,-0.19297397136688232,0.23678895831108093
1683128606306535400,14.895535400390624,-0.026816368103027344,-0.07382583618164062,-0.1539488285779953
1683128606324371200,14.91337109375,0.06576824188232422,-0.39871060848236084,0.10082006454467773
1683128606342215000,14.93121484375,-0.1425790786743164,0.11412429809570312,-0.1804513931274414
1683128606360052200,14.94905224609375,0.0823507308959961,-0.5689954161643982,0.08271413296461105
1683128606377890300,14.966890380859375,-0.08601093292236328,0.2944681644439697,-0.052805401384830475
1683128606395726300,14.984726318359375,0.17659568786621094,-0.5448741912841797,0.04676148295402527
1683128606413570600,15.002570556640626,-0.0741720199584961,0.11345541477203369,0.07279197871685028
1683128606431405600,15.020405517578125,0.24222373962402344,-0.3182210922241211,-0.09715147316455841
1683128606449233000,15.03823291015625,-0.04330730438232422,-0.15225136280059814,0.15846014022827148
1683128606467078700,15.05607861328125,0.07578086853027344,-0.16968822479248047,-0.24733351171016693
1683128606484916700,15.073916748046875,-0.09686946868896484,-0.131841778755188,0.2638799250125885
1683128606502760400,15.091760498046876,0.05202484130859375,-0.20852243900299072,-0.2113325297832489
1683128606520586500,15.10958642578125,-0.12227630615234375,-0.17078351974487305,0.23072382807731628
1683128606538434000,15.12743408203125,-0.018492698669433594,-0.08536636829376221,-0.1349623203277588
1683128606556276700,15.14527685546875,-0.02999591827392578,-0.38466012477874756,0.14131894707679749
1683128606574114800,15.16311474609375,-0.07536029815673828,0.06267845630645752,-0.15014304220676422
1683128606591951000,15.180951171875,0.039203643798828125,-0.5560216903686523,0.09836824238300323
1683128606609795300,15.19879541015625,-0.18314170837402344,0.28453099727630615,-0.10357809066772461
1683128606627630800,15.216630859375,0.14436054229736328,-0.5598006844520569,0.04995086416602135
1683128606645466000,15.234466064453125,-0.10454559326171875,0.24976027011871338,0.0792238712310791
1683128606663308800,15.252308837890626,0.1899118423461914,-0.33407390117645264,-0.07907132804393768
1683128606681137000,15.270136962890625,-0.054968833923339844,-0.0950014591217041,0.14966930449008942
1683128606698985700,15.28798583984375,0.1767864227294922,-0.11750662326812744,-0.28114405274391174
1683128606716822500,15.305822509765624,0.021912574768066406,-0.26742124557495117,0.17955583333969116
1683128606734664200,15.323664306640625,0.0383148193359375,-0.17350172996520996,-0.2789694666862488
1683128606752501200,15.341501220703124,-0.07040023803710938,-0.22078979015350342,0.2451191246509552
1683128606770340000,15.359340087890626,-0.006636619567871094,-0.1172339916229248,-0.16087700426578522
1683128606788173600,15.377173583984375,-0.02436351776123047,-0.2572678327560425,0.2284550815820694
1683128606806017300,15.395017333984375,-0.07073211669921875,0.06024205684661865,-0.11790890991687775
1683128606823855900,15.41285595703125,0.0101318359375,-0.5431982278823853,0.15386125445365906
1683128606841695000,15.430695068359375,-0.12616539001464844,0.20623326301574707,-0.13116058707237244
1683128606859532800,15.44853271484375,0.1038970947265625,-0.5844008922576904,0.08602237701416016
1683128606877372000,15.466371826171875,-0.20136260986328125,0.2496579885482788,0.06617105007171631
1683128606895210500,15.48421044921875,0.1983013153076172,-0.31163012981414795,-0.07646474242210388
1683128606913048300,15.50204833984375,-0.12006378173828125,0.009964585304260254,0.18223226070404053
1683128606930888400,15.519888427734376,0.1836690902709961,-0.11918449401855469,-0.2764749526977539
1683128606948726300,15.537726318359375,-0.013693809509277344,-0.3014634847640991,0.17744538187980652
1683128606966565000,15.555565185546875,0.06706523895263672,-0.10688376426696777,-0.28997087478637695
1683128606984390700,15.573390625,-0.008558273315429688,-0.3088195323944092,0.17388494312763214
1683128607002243300,15.591243408203125,-0.07474994659423828,-0.04489266872406006,-0.18528732657432556
1683128607020080600,15.60908056640625,0.020494461059570312,-0.3210388422012329,0.1855698525905609
1683128607037919700,15.626919677734374,-0.06153583526611328,0.13496673107147217,-0.04858200624585152
1683128607055758300,15.64475830078125,0.056107521057128906,-0.539035439491272,0.15754815936088562
1683128607073596400,15.662596435546876,-0.11249446868896484,0.12793266773223877,-0.05679978430271149
1683128607091435500,15.680435546875,0.16510486602783203,-0.48895442485809326,0.042431071400642395
1683128607109274400,15.6982744140625,-0.17138290405273438,0.13102364540100098,0.06963300704956055
1683128607127113000,15.716113037109375,0.18186187744140625,-0.3001619577407837,-0.13130849599838257
1683128607144944400,15.7339443359375,-0.1893901824951172,0.02104485034942627,0.22872401773929596
1683128607162792700,15.751792724609375,0.20624637603759766,-0.14311432838439941,-0.26700571179389954
1683128607180625400,15.76962548828125,-0.08292770385742188,-0.1950129270553589,0.2532373368740082
1683128607198470700,15.787470703125,0.040927886962890625,-0.06430935859680176,-0.22508054971694946
1683128607216305200,15.80530517578125,-0.029211997985839844,-0.30752336978912354,0.15640249848365784
1683128607234143200,15.823143310546875,-0.118255615234375,-0.001593470573425293,-0.15627224743366241
1683128607251983600,15.840983642578125,0.05743598937988281,-0.40810883045196533,0.11694809794425964
1683128607269821700,15.85882177734375,-0.09705543518066406,0.2339876890182495,-0.047864388674497604
1683128607287659800,15.87665966796875,0.14380550384521484,-0.5342080593109131,0.0937332808971405
1683128607305494000,15.894493896484375,-0.06557083129882812,0.18796348571777344,-0.024047821760177612
1683128607323337200,15.912337158203124,0.24594688415527344,-0.43758487701416016,-0.006843689829111099
1683128607341176300,15.93017626953125,-0.1532764434814453,-0.032225728034973145,0.05911974981427193
1683128607359014100,15.94801416015625,0.18170738220214844,-0.25504744052886963,-0.18275628983974457
1683128607376853500,15.965853515625,-0.14933013916015625,-0.01917266845703125,0.23758411407470703
1683128607394691800,15.98369189453125,0.08653450012207031,-0.16019654273986816,-0.20546701550483704
1683128607412531000,16.001531005859373,-0.14654541015625,-0.11071860790252686,0.28102901577949524
1683128607430368800,16.01936865234375,-0.00414276123046875,-0.07319498062133789,-0.1458757370710373
1683128607448199200,16.03719921875,-0.025104522705078125,-0.26137852668762207,0.1662089228630066
1683128607466046500,16.05504638671875,-0.07117271423339844,0.006270051002502441,-0.17682267725467682
1683128607483885600,16.072885498046876,0.047496795654296875,-0.46804356575012207,0.07223133742809296
1683128607501723400,16.090723388671876,-0.13622188568115234,0.25505852699279785,-0.12361671030521393
1683128607519544300,16.10854443359375,0.13445472717285156,-0.5657235383987427,0.08545279502868652
1683128607537400800,16.12640087890625,-0.08753681182861328,0.30670082569122314,0.009350098669528961
1683128607555235000,16.144235107421874,0.2084035873413086,-0.4264228343963623,0.003066621720790863
1683128607573063400,16.1620634765625,-0.04108619689941406,-0.0009326934814453125,0.11930269002914429
1683128607590905000,16.179905029296876,0.1681680679321289,-0.18612957000732422,-0.17830263078212738
1683128607608758500,16.197758544921875,-0.03987312316894531,-0.13934695720672607,0.2098120003938675
1683128607626589700,16.215589599609373,0.09510421752929688,-0.17823052406311035,-0.2584446370601654
1683128607644432000,16.233431884765626,-0.10988998413085938,-0.09533071517944336,0.2666679322719574
1683128607662271200,16.251271240234374,0.02044677734375,-0.12820541858673096,-0.1495361030101776
1683128607680109300,16.269109375,-0.09753227233886719,-0.2051030397415161,0.19927860796451569
1683128607697949200,16.28694921875,0.028095245361328125,0.01921999454498291,-0.128250390291214
1683128607715786800,16.304786865234377,-0.03307533264160156,-0.4563504457473755,0.12368164956569672
1683128607733622800,16.322622802734376,-0.11471080780029297,0.17313814163208008,-0.16466034948825836
1683128607751467300,16.34046728515625,0.053070068359375,-0.5833954215049744,0.09003756940364838
1683128607769303000,16.358302978515624,-0.1712474822998047,0.36954009532928467,-0.029002942144870758
1683128607787140900,16.376140869140624,0.15625476837158203,-0.4816685914993286,0.007004398852586746
1683128607804976000,16.39397607421875,-0.07253074645996094,0.16425490379333496,0.13063189387321472
1683128607822818300,16.411818359375,0.2148294448852539,-0.16997265815734863,-0.17526037991046906
1683128607840657400,16.429657470703123,-0.031726837158203125,-0.20054566860198975,0.15984702110290527
1683128607858495500,16.44749560546875,0.11448860168457031,-0.1082688570022583,-0.29754695296287537
1683128607876330000,16.465330078125,-0.0131378173828125,-0.24108731746673584,0.20221084356307983
1683128607894173200,16.483173095703126,0.042893409729003906,-0.10637927055358887,-0.23500341176986694
1683128607912012300,16.50101220703125,-0.05449199676513672,-0.17299222946166992,0.2662111222743988
1683128607929849600,16.518849609375,-0.04160881042480469,0.006528735160827637,-0.12412244826555252
1683128607947684400,16.536684326171876,-0.050571441650390625,-0.3596956729888916,0.2065630853176117
1683128607965515300,16.554515380859375,-0.0819864273071289,0.1588376760482788,-0.13394489884376526
1683128607983366700,16.57236669921875,0.026328086853027344,-0.5695825815200806,0.12637123465538025
1683128608001193500,16.590193359375,-0.15919113159179688,0.2549351453781128,-0.06913939118385315
1683128608019044400,16.60804443359375,0.12148380279541016,-0.4629892110824585,0.03999628126621246
1683128608036881000,16.625880859375,-0.18645000457763672,0.21792638301849365,0.13280849158763885
1683128608054722300,16.643722412109376,0.2615966796875,-0.1958085298538208,-0.17483220994472504
1683128608072558800,16.661558837890624,-0.08330535888671875,-0.09972000122070312,0.1992514282464981
1683128608090398000,16.67939794921875,0.13389968872070312,-0.05128121376037598,-0.2937966287136078
1683128608108236300,16.697236328125,-0.0028047561645507812,-0.3263891935348511,0.16135801374912262
1683128608126075400,16.715075439453123,-0.037299156188964844,-0.07153451442718506,-0.26694589853286743
1683128608143912400,16.732912353515626,0.011117935180664062,-0.28858375549316406,0.1704617738723755
1683128608161750000,16.75075,-0.0973663330078125,0.07593202590942383,-0.11910899728536606
1683128608179594000,16.768593994140623,0.050543785095214844,-0.362981915473938,0.18963651359081268
1683128608197425400,16.78642529296875,-0.08490848541259766,0.16278588771820068,-0.05509113520383835
1683128608215254300,16.804254150390626,0.05834197998046875,-0.5265092849731445,0.134603813290596
1683128608233106700,16.822106689453125,-0.10451030731201172,0.11396658420562744,-0.027089469134807587
1683128608250945300,16.8399453125,0.18161582946777344,-0.39833319187164307,-0.03313585743308067
1683128608268779300,16.857779296875,-0.22710609436035156,0.1378999948501587,0.11786185950040817
1683128608286622500,16.87562255859375,0.19616031646728516,-0.2059255838394165,-0.19530482590198517
1683128608304460800,16.893460693359376,-0.11704730987548828,-0.04650318622589111,0.2522006332874298
1683128608322298600,16.911298583984376,0.13727474212646484,-0.07092583179473877,-0.2613280415534973
1683128608340139500,16.929139404296876,-0.03912162780761719,-0.24581706523895264,0.21114607155323029
1683128608357976300,16.946976318359376,-0.0046520233154296875,-0.022380352020263672,-0.19446492195129395
1683128608375815700,16.964815673828124,-0.02964305877685547,-0.32716143131256104,0.1273365020751953
1683128608393654000,16.982654052734375,-0.12076950073242188,0.13688910007476807,-0.09245021641254425
1683128608411493000,17.0004931640625,0.07698822021484375,-0.45908427238464355,0.11170162260532379
1683128608429331000,17.0183310546875,-0.08348655700683594,0.2898366451263428,-0.043192267417907715
1683128608447170000,17.036170166015626,0.1737651824951172,-0.4711395502090454,0.0629768967628479
1683128608464997400,17.053997314453124,-0.09053802490234375,0.10831761360168457,0.005880672484636307
1683128608482847500,17.071847412109374,0.20929622650146484,-0.3089146614074707,-0.08878925442695618
1683128608500685300,17.089685302734374,-0.11257266998291016,-0.03533029556274414,0.128668874502182
1683128608518520000,17.10752001953125,0.1061391830444336,-0.20013165473937988,-0.22114966809749603
1683128608536363300,17.12536328125,-0.17171859741210938,-0.019203543663024902,0.25732022523880005
1683128608554201900,17.143201904296873,0.0945730209350586,-0.10722506046295166,-0.1780807077884674
1683128608572039700,17.161039794921876,-0.11231422424316406,-0.13384950160980225,0.2439628690481186
1683128608589878800,17.178878662109376,-0.06535720825195312,-0.03106558322906494,-0.14713230729103088
1683128608607717400,17.19671728515625,0.0025033950805664062,-0.32978296279907227,0.1152639091014862
1683128608625556500,17.214556396484376,-0.11293411254882812,0.12691330909729004,-0.16220077872276306
1683128608643393000,17.23239306640625,0.08643531799316406,-0.5075950622558594,0.0873754471540451
1683128608661231000,17.250231201171875,-0.16600322723388672,0.35378003120422363,-0.06813468039035797
1683128608679074800,17.26807470703125,0.16272926330566406,-0.5032360553741455,0.06737930327653885
1683128608696910800,17.285910888671875,-0.033447265625,0.19877374172210693,0.0806264877319336
1683128608714748700,17.303748779296875,0.19582748413085938,-0.2776068449020386,-0.08468402177095413
1683128608732585500,17.32158544921875,-0.037647247314453125,-0.07144975662231445,0.16395384073257446
1683128608750427400,17.339427490234375,0.1555309295654297,-0.1356196403503418,-0.2320973426103592
1683128608768266000,17.357265869140626,-0.12217998504638672,-0.09325957298278809,0.2431759536266327
1683128608786103000,17.37510302734375,0.027250289916992188,-0.14689993858337402,-0.22163863480091095
1683128608803942100,17.392942138671874,-0.09209442138671875,-0.1163792610168457,0.25896573066711426
1683128608821780200,17.4107802734375,-0.01739788055419922,-0.03650236129760742,-0.12025190889835358
1683128608839607600,17.428607666015626,-0.07164764404296875,-0.289206862449646,0.17361700534820557
1683128608857457400,17.44645751953125,-0.05556011199951172,0.09721982479095459,-0.15054897964000702
1683128608875296500,17.464296630859376,0.023660659790039062,-0.5014302730560303,0.10624312609434128
1683128608893134800,17.482134765625,-0.18445587158203125,0.2944061756134033,-0.10220122337341309
1683128608910974200,17.49997412109375,0.11307334899902344,-0.5263689160346985,0.05245109647512436
1683128608928811500,17.5178115234375,-0.13562679290771484,0.32568228244781494,0.05060034617781639
1683128608946651000,17.53565087890625,0.18982410430908203,-0.3021918535232544,-0.07967904210090637
1683128608964488200,17.55348828125,-0.07580280303955078,0.015466451644897461,0.1631109118461609
1683128608982329300,17.571329345703123,0.1851959228515625,-0.08298170566558838,-0.2460818886756897
1683128609000166100,17.589166259765626,0.010730743408203125,-0.22437405586242676,0.17062580585479736
1683128609018005000,17.6070048828125,0.06621456146240234,-0.10076534748077393,-0.3087753355503082
1683128609035843800,17.62484375,-0.01764678955078125,-0.18823611736297607,0.22787810862064362
1683128609053682700,17.6426826171875,-0.03683662414550781,-0.06745600700378418,-0.16774240136146545
1683128609071520500,17.6605205078125,-0.057158470153808594,-0.193503737449646,0.2480933666229248
1683128609089359600,17.678359619140625,-0.062259674072265625,0.10516536235809326,-0.1297917366027832
1683128609107198000,17.696197998046873,0.015316963195800781,-0.4470874071121216,0.16743125021457672
1683128609125033000,17.714032958984376,-0.0825185775756836,0.22984766960144043,-0.13943541049957275
1683128609142875000,17.731875,0.03633594512939453,-0.5588608980178833,0.10373863577842712
1683128609160714000,17.7497138671875,-0.1894092559814453,0.2838115692138672,0.032691314816474915
1683128609178552300,17.76755224609375,0.1933460235595703,-0.28775322437286377,-0.03872624412178993
1683128609196380000,17.7853798828125,-0.1230325698852539,0.11356163024902344,0.20139701664447784
1683128609214229000,17.80322900390625,0.22403621673583984,-0.051426053047180176,-0.2665463387966156
1683128609232068600,17.821068603515624,-0.047753334045410156,-0.23768329620361328,0.1798318773508072
1683128609249906400,17.838906494140623,0.03595733642578125,-0.01638615131378174,-0.3073529601097107
1683128609267745500,17.85674560546875,0.012780189514160156,-0.2767500877380371,0.16513089835643768
1683128609285579000,17.8745791015625,-0.1216421127319336,0.0018292665481567383,-0.18523213267326355
1683128609303410400,17.892410400390624,0.013815879821777344,-0.28195130825042725,0.1713862270116806
1683128609321249800,17.910249755859375,-0.0719308853149414,0.17383158206939697,-0.05651070177555084
1683128609339096300,17.928096435546873,0.07189464569091797,-0.4570617079734802,0.14819703996181488
1683128609356935700,17.945935791015625,-0.05918598175048828,0.17799735069274902,-0.05419499799609184
1683128609374779000,17.96377880859375,0.16896820068359375,-0.4302991032600403,0.07961474359035492
1683128609392616000,17.981615966796873,-0.21739578247070312,0.1441894769668579,0.034669239073991776
1683128609410453500,17.99945361328125,0.1473226547241211,-0.27359795570373535,-0.1393558531999588
1683128609428293400,18.01729345703125,-0.17235851287841797,0.114768385887146,0.2122649848461151
1683128609446131200,18.035131103515624,0.19314861297607422,-0.10359835624694824,-0.25280481576919556
1683128609463970300,18.05297021484375,-0.1375865936279297,-0.135001540184021,0.25263115763664246
1683128609481809000,18.070808837890624,0.071990966796875,0.0034415721893310547,-0.22635109722614288
1683128609499646500,18.088646484375,-0.05516529083251953,-0.23299658298492432,0.15080690383911133
1683128609517485800,18.10648583984375,-0.08316516876220703,0.04359841346740723,-0.16099697351455688
1683128609535324400,18.124324462890623,0.0084991455078125,-0.3645550012588501,0.11185052245855331
1683128609553163300,18.142163330078127,-0.1409292221069336,0.2534435987472534,-0.09275799244642258
1683128609571000800,18.160000732421874,0.14662837982177734,-0.5061135292053223,0.10305163264274597
1683128609588840000,18.17783984375,-0.021948814392089844,0.29241979122161865,-0.02380070649087429
1683128609606673700,18.195673583984377,0.19101905822753906,-0.4076051712036133,-0.00008736923336982727
1683128609624517400,18.213517333984374,-0.10730743408203125,0.017914414405822754,0.053620122373104095
1683128609642355500,18.23135546875,0.17850303649902344,-0.21673250198364258,-0.17547407746315002
1683128609660194000,18.249194091796873,-0.1420125961303711,-0.017505407333374023,0.22414925694465637
1683128609678033200,18.267033203125,0.07929706573486328,-0.1346186399459839,-0.2042541801929474
1683128609695872000,18.2848720703125,-0.10723304748535156,-0.038216352462768555,0.2857501804828644
1683128609713709600,18.30270947265625,0.0047454833984375,-0.051462411880493164,-0.14119590818881989
1683128609731547400,18.32054736328125,-0.0831756591796875,-0.18727588653564453,0.18907180428504944
1683128609749388300,18.33838818359375,-0.08389854431152344,0.04886460304260254,-0.18104059994220734
1683128609767214000,18.356214111328125,0.0239410400390625,-0.37118494510650635,0.08403761684894562
1683128609785059600,18.3740595703125,-0.13143348693847656,0.25382375717163086,-0.1464305818080902
1683128609802903000,18.391903076171875,0.04684162139892578,-0.5274659395217896,0.07861579954624176
1683128609820741000,18.4097412109375,-0.09809207916259766,0.3890702724456787,-0.003586750477552414
1683128609838580500,18.42758056640625,0.19980430603027344,-0.4136642813682556,0.005505098029971123
1683128609856418300,18.445418212890626,-0.02319812774658203,0.0994727611541748,0.1161004900932312
1683128609874257400,18.46325732421875,0.20295238494873047,-0.16875183582305908,-0.1583028882741928
1683128609892096000,18.481095947265626,-0.05472850799560547,-0.09851324558258057,0.19486430287361145
1683128609909934600,18.4989345703125,0.1097574234008789,-0.1196293830871582,-0.2659713923931122
1683128609927768000,18.51676806640625,-0.1048736572265625,-0.05590510368347168,0.2513773441314697
1683128609945611500,18.534611572265625,0.035544395446777344,-0.07593977451324463,-0.1640017032623291
1683128609963450400,18.552450439453125,-0.11342620849609375,-0.12427055835723877,0.22106464207172394
1683128609981287700,18.57028759765625,-0.04024696350097656,0.0541684627532959,-0.1153469905257225
1683128609999126000,18.5881259765625,-0.03170299530029297,-0.36381030082702637,0.1493803709745407
1683128610016968200,18.60596826171875,-0.0945425033569336,0.19656682014465332,-0.15618611872196198
1683128610034804500,18.623804443359376,0.019722938537597656,-0.5216065049171448,0.09373186528682709
1683128610052642000,18.64164208984375,-0.1427021026611328,0.403378963470459,-0.06126655638217926
1683128610070481400,18.6594814453125,0.12424182891845703,-0.4648779630661011,0.018234560266137123
1683128610088321000,18.677321044921875,-0.14523601531982422,0.24684858322143555,0.11660037189722061
1683128610106158600,18.69515869140625,0.2455148696899414,-0.15839087963104248,-0.15110458433628082
1683128610123997700,18.712997802734375,-0.03267097473144531,-0.1201326847076416,0.14159028232097626
1683128610141835500,18.73083544921875,0.16494464874267578,-0.05457925796508789,-0.30728307366371155
1683128610159674600,18.748674560546874,-0.02061748504638672,-0.23227155208587646,0.1639702022075653
1683128610177513000,18.766512939453126,0.015532493591308594,-0.06961548328399658,-0.2676887810230255
1683128610195348000,18.784347900390625,-0.019214630126953125,-0.1617872714996338,0.23530380427837372
1683128610213190000,18.80218994140625,-0.0763406753540039,-0.011684656143188477,-0.12615500390529633
1683128610231029000,18.820029052734377,-0.0666961669921875,-0.25094592571258545,0.21632561087608337
1683128610248859100,18.837859130859375,-0.054253578186035156,0.15489041805267334,-0.1352616548538208
1683128610266695000,18.85569482421875,0.020299911499023438,-0.52759850025177,0.1531362384557724
1683128610284544000,18.8735439453125,-0.12774181365966797,0.2724039554595947,-0.09176486730575562
1683128610302386200,18.89138623046875,0.09639644622802734,-0.46513742208480835,0.04407920688390732
1683128610320223000,18.909222900390624,-0.2226543426513672,0.27818262577056885,0.12162857502698898
1683128610338048500,18.927048583984377,0.24717235565185547,-0.15777933597564697,-0.1406361162662506
1683128610355898400,18.9448984375,-0.052918434143066406,-0.015061616897583008,0.2140188217163086
1683128610373736400,18.962736328125,0.17077350616455078,-0.02282845973968506,-0.30937716364860535
1683128610391577300,18.980577392578127,-0.029254913330078125,-0.2643064260482788,0.16337431967258453
1683128610409415000,18.998414794921874,0.014500617980957031,-0.013705611228942871,-0.26196420192718506
1683128610427252500,19.01625244140625,-0.0006189346313476562,-0.26780080795288086,0.17026832699775696
1683128610445091600,19.034091552734374,-0.10910987854003906,0.09321081638336182,-0.1333140730857849
1683128610462926800,19.0519267578125,0.06021308898925781,-0.3163810968399048,0.14905956387519836
1683128610480772600,19.069772705078126,-0.056186676025390625,0.22419285774230957,-0.04968331754207611
1683128610498607000,19.087607177734377,0.09187602996826172,-0.4894253611564636,0.11776350438594818
1683128610516446200,19.1054462890625,-0.11861705780029297,0.15268445014953613,-0.03116396628320217
1683128610534282200,19.1232822265625,0.1819925308227539,-0.3596627712249756,-0.03585084527730942
1683128610552126000,19.1411259765625,-0.21831130981445312,0.15097904205322266,0.08820267021656036
1683128610569961500,19.15896142578125,0.15190887451171875,-0.19094467163085938,-0.1948404461145401
1683128610587800000,19.176800048828124,-0.1628274917602539,-0.0019991397857666016,0.2525331974029541
1683128610605638400,19.194638427734375,0.1578207015991211,-0.04477977752685547,-0.24748224020004272
1683128610623476200,19.212476318359375,-0.09415817260742188,-0.17844665050506592,0.21845635771751404
1683128610641314000,19.23031396484375,-0.038494110107421875,-0.00012111663818359375,-0.19379694759845734
1683128610659154400,19.248154541015627,-0.0041904449462890625,-0.2749748229980469,0.1244874894618988
1683128610676993300,19.2659931640625,-0.11089038848876953,0.13971388339996338,-0.13441194593906403
1683128610694832000,19.28383203125,0.09068775177001953,-0.44050270318984985,0.09721378982067108
1683128610712670000,19.301669921875,-0.09531497955322266,0.36309289932250977,-0.04141750931739807
1683128610730508000,19.319508056640625,0.19704723358154297,-0.4371192455291748,0.0530930832028389
1683128610748348400,19.337348388671874,-0.09481334686279297,0.1851581335067749,0.0033646970987319946
1683128610766172000,19.355171875,0.2000570297241211,-0.29090964794158936,-0.07948142290115356
1683128610784012500,19.373012451171874,-0.09058284759521484,0.01198875904083252,0.11576035618782043
1683128610801865700,19.39086572265625,0.13829708099365234,-0.14703214168548584,-0.23055127263069153
1683128610819701500,19.408701416015624,-0.13541603088378906,-0.013011574745178223,0.27076801657676697
1683128610837540900,19.426540771484376,0.046645164489746094,-0.0908430814743042,-0.1776912808418274
1683128610855378200,19.444378173828124,-0.11101436614990234,-0.06807553768157959,0.24486297369003296
1683128610873217500,19.462217529296876,-0.05526256561279297,-0.013299942016601562,-0.14547154307365417
1683128610891056400,19.480056396484375,0.0184326171875,-0.2709575891494751,0.1155291348695755
1683128610908895000,19.49789501953125,-0.11533832550048828,0.15913820266723633,-0.19499658048152924
1683128610926733600,19.515733642578127,0.04197406768798828,-0.47480499744415283,0.0841115266084671
1683128610944568800,19.53356884765625,-0.16201400756835938,0.4002033472061157,-0.07557493448257446
1683128610962409000,19.551408935546874,0.14191722869873047,-0.47305262088775635,0.0725187361240387
1683128610980252000,19.569251953125,-0.1236724853515625,0.2762514352798462,0.06978853046894073
1683128610998084900,19.5870849609375,0.23151588439941406,-0.2950551509857178,-0.06583040952682495
1683128611015923500,19.60492333984375,-0.056405067443847656,-0.007168889045715332,0.157056987285614
1683128611033764400,19.622764404296873,0.15983200073242188,-0.0798649787902832,-0.23908200860023499
1683128611051603200,19.640603271484373,-0.047420501708984375,-0.09700131416320801,0.2387521117925644
1683128611069441300,19.658441162109376,0.0320892333984375,-0.08509480953216553,-0.24280589818954468
1683128611087279900,19.67627978515625,-0.08591461181640625,-0.09072816371917725,0.2623651623725891
1683128611105118500,19.694118408203124,-0.015903472900390625,-0.015650629997253418,-0.13793814182281494
1683128611122957600,19.71195751953125,-0.0735158920288086,-0.20930171012878418,0.1883883774280548
1683128611140794000,19.729794189453123,-0.05261707305908203,0.1316235065460205,-0.12305480986833572
1683128611158635800,19.7476357421875,-0.01885223388671875,-0.4473642110824585,0.11994745582342148
1683128611176473000,19.76547314453125,-0.13087749481201172,0.30564165115356445,-0.13314186036586761
1683128611194312000,19.78331201171875,0.08859920501708984,-0.4971475601196289,0.05027991160750389
1683128611212149500,19.8011494140625,-0.18508338928222656,0.4126560688018799,0.042382579296827316
1683128611229988600,19.818988525390626,0.17258167266845703,-0.3207380771636963,-0.03770102560520172
1683128611247827200,19.8368271484375,-0.0715494155883789,0.12417995929718018,0.16537238657474518
1683128611265654300,19.854654296875,0.22585296630859375,0.005663871765136719,-0.24473726749420166
1683128611283503900,19.87250390625,-0.02537059783935547,-0.216042160987854,0.14332786202430725
1683128611301342700,19.8903427734375,0.07098388671875,-0.019718289375305176,-0.32443469762802124
1683128611319181800,19.908181884765625,-0.021414756774902344,-0.17675673961639404,0.20107319951057434
1683128611337003500,19.92600341796875,-0.0013074874877929688,-0.03629565238952637,-0.1922949105501175
1683128611354858000,19.94385791015625,-0.05844402313232422,-0.14215266704559326,0.25109946727752686
1683128611372697000,19.961697021484376,-0.05451488494873047,0.12669909000396729,-0.11549154669046402
1683128611390535000,19.979534912109376,0.008938789367675781,-0.39654541015625,0.17261795699596405
1683128611408375600,19.99737548828125,-0.10800933837890625,0.24974441528320312,-0.1453952193260193
1683128611426212400,20.01521240234375,0.04022026062011719,-0.5566146373748779,0.09578794986009598
1683128611444051500,20.033051513671875,-0.19011688232421875,0.302435040473938,0.002394508570432663
1683128611461888000,20.050887939453126,0.1637897491455078,-0.2819622755050659,-0.024160463362932205
1683128611479730400,20.06873046875,-0.13352108001708984,0.19154906272888184,0.16914567351341248
1683128611497566500,20.08656640625,0.20184803009033203,-0.04073143005371094,-0.24609097838401794
1683128611515405800,20.10440576171875,-0.0729207992553711,-0.13888752460479736,0.19998624920845032
1683128611533244200,20.122244140625,0.025750160217285156,0.006280064582824707,-0.297025203704834
1683128611551083000,20.1400830078125,0.019204139709472656,-0.2656984329223633,0.1558072715997696
1683128611568920800,20.1579208984375,-0.08461761474609375,0.04684615135192871,-0.1968744397163391
1683128611586754800,20.1757548828125,0.01540374755859375,-0.2508981227874756,0.16515026986598969
1683128611604598000,20.193597900390625,-0.10863590240478516,0.19052278995513916,-0.07860864698886871
1683128611622436900,20.211436767578125,0.04475212097167969,-0.4154568910598755,0.15449567139148712
1683128611640257500,20.229257568359376,-0.06986808776855469,0.23649930953979492,-0.04440867528319359
1683128611658109200,20.247109130859375,0.1739358901977539,-0.44571954011917114,0.06227152794599533
1683128611675952400,20.264952392578124,-0.1820993423461914,0.1578083038330078,-0.002416107803583145
1683128611693791500,20.28279150390625,0.16102123260498047,-0.2530919313430786,-0.10975030809640884
1683128611711627800,20.300627685546875,-0.24481678009033203,0.11490499973297119,0.1799219250679016
1683128611729469200,20.31846923828125,0.17571640014648438,-0.06845951080322266,-0.23663103580474854
1683128611747307000,20.33630712890625,-0.15792274475097656,-0.06187164783477783,0.2548825740814209
1683128611765145600,20.3541455078125,0.08249473571777344,0.0017589330673217773,-0.21261034905910492
1683128611782982100,20.371982177734374,-0.044419288635253906,-0.21165847778320312,0.18151052296161652
1683128611800823600,20.389823486328126,-0.0750885009765625,0.06374716758728027,-0.1670326590538025
1683128611818660600,20.40766064453125,0.008710861206054688,-0.31498992443084717,0.08804870396852493
1683128611836500000,20.4255,-0.10417938232421875,0.24479937553405762,-0.11560135334730148
1683128611854337500,20.443337646484373,0.1304168701171875,-0.44872331619262695,0.09789607673883438
1683128611872176600,20.4611767578125,-0.09049797058105469,0.34096014499664307,-0.008812552317976952
1683128611890015200,20.47901513671875,0.2292327880859375,-0.39195799827575684,0.02950950898230076
1683128611907849200,20.49684912109375,-0.07819747924804688,0.1100008487701416,0.02789730578660965
1683128611925691600,20.514691650390624,0.16646766662597656,-0.19455349445343018,-0.13945524394512177
1683128611943530200,20.5325302734375,-0.14265155792236328,0.0076487064361572266,0.17859551310539246
1683128611961354500,20.5503544921875,0.0645895004272461,-0.09491884708404541,-0.23164089024066925
1683128611979211000,20.5682109375,-0.16738224029541016,0.018734097480773926,0.2945559322834015
1683128611997046300,20.58604638671875,0.05589485168457031,-0.06670069694519043,-0.16480478644371033
1683128612014881300,20.60388134765625,-0.11837577819824219,-0.12335789203643799,0.19552084803581238
1683128612032722200,20.62172216796875,-0.08823299407958984,0.0603255033493042,-0.16669148206710815
1683128612050562600,20.6395625,0.06237983703613281,-0.3316442370414734,0.08101969212293625
1683128612068401200,20.657401123046874,-0.13247299194335938,0.25587499141693115,-0.1702306717634201
1683128612086239000,20.675239013671874,0.06479930877685547,-0.4784504175186157,0.07987721264362335
1683128612104071400,20.693071533203124,-0.1347808837890625,0.4301084280014038,-0.030935734510421753
1683128612121906000,20.710906005859375,0.18431663513183594,-0.42897021770477295,0.03591256961226463
1683128612139754200,20.728754150390625,-0.07437705993652344,0.20472514629364014,0.08583704382181168
1683128612157593300,20.74659326171875,0.21393108367919922,-0.17856717109680176,-0.13008925318717957
1683128612175432000,20.764431884765624,-0.040015220642089844,-0.05556654930114746,0.18196356296539307
1683128612193270800,20.782270751953124,0.1099252700805664,-0.06503462791442871,-0.2615109384059906
1683128612211108400,20.8001083984375,-0.1068716049194336,-0.057495713233947754,0.24720188975334167
1683128612228942800,20.81794287109375,-0.00162506103515625,-0.0863032341003418,-0.19904011487960815
1683128612246785800,20.835785888671875,-0.12865447998046875,-0.05355381965637207,0.2511645257472992
1683128612264625000,20.853625,-0.0035028457641601562,0.03668570518493652,-0.12308263033628464
1683128612282463000,20.871462890625,-0.04226493835449219,-0.29884040355682373,0.1455027163028717
1683128612300301600,20.889301513671874,-0.09440994262695312,0.17287933826446533,-0.16360676288604736
1683128612318140400,20.907140380859374,0.04796791076660156,-0.4970982074737549,0.09381149709224701
1683128612335979500,20.9249794921875,-0.15936565399169922,0.403350830078125,-0.09801600873470306
1683128612353815300,20.942815185546873,0.13195037841796875,-0.44736021757125854,0.03545963019132614
1683128612371657000,20.960656982421874,-0.1402873992919922,0.32493364810943604,0.08145997673273087
1683128612389494300,20.978494384765625,0.1986379623413086,-0.1842736005783081,-0.10993614047765732
1683128612407332900,20.996332763671877,-0.06739234924316406,-0.03307652473449707,0.1541263908147812
1683128612425166000,21.014166015625,0.1898021697998047,0.006655573844909668,-0.29945048689842224
1683128612443009800,21.032009765625,-0.022599220275878906,-0.19651508331298828,0.165771946310997
1683128612460848400,21.049848388671876,0.030755043029785156,-0.05360889434814453,-0.26548367738723755
1683128612478687500,21.0676875,-0.05210590362548828,-0.12440752983093262,0.24859550595283508
1683128612496525600,21.085525634765624,-0.027513504028320312,0.019524574279785156,-0.13384436070919037
1683128612514364200,21.1033642578125,-0.048633575439453125,-0.19226741790771484,0.23853397369384766
1683128612532202800,21.12120263671875,-0.04711627960205078,0.1950819492340088,-0.15835727751255035
1683128612550041300,21.139041259765627,-0.0029954910278320312,-0.44682252407073975,0.15765544772148132
1683128612567879200,21.156879150390626,-0.1492910385131836,0.294964075088501,-0.13233546912670135
1683128612585706200,21.174706298828124,0.09277057647705078,-0.49155789613723755,0.07228358089923859
1683128612603544600,21.192544677734375,-0.19576358795166016,0.3502309322357178,0.05801129341125488
1683128612621395700,21.210395751953126,0.1970062255859375,-0.17921245098114014,-0.0642312690615654
1683128612639225600,21.2282255859375,-0.0851888656616211,0.10893476009368896,0.2027725875377655
1683128612657060600,21.246060546875,0.1514749526977539,0.035570621490478516,-0.2593824863433838
1683128612674907100,21.2639072265625,-0.042159080505371094,-0.24471235275268555,0.16521000862121582
1683128612692746800,21.281746826171876,0.007884979248046875,0.020578861236572266,-0.3075159192085266
1683128612710589400,21.29958935546875,-0.011437416076660156,-0.22949135303497314,0.1561475694179535
1683128612728427800,21.317427734375,-0.07635498046875,0.0865485668182373,-0.1557927131652832
1683128612746260200,21.33526025390625,0.050871849060058594,-0.26110196113586426,0.18828396499156952
1683128612764104000,21.35310400390625,-0.08405208587646484,0.2326805591583252,-0.06616424769163132
1683128612781941500,21.37094140625,0.09697341918945312,-0.4499726891517639,0.13599801063537598
1683128612799778800,21.38877880859375,-0.08597660064697266,0.20884883403778076,-0.07007745653390884
1683128612817620700,21.406620849609375,0.12797927856445312,-0.3969571590423584,0.040008723735809326
1683128612835458300,21.424458251953126,-0.22038555145263672,0.21380078792572021,0.06101683899760246
1683128612853295600,21.442295654296874,0.16020584106445312,-0.21244549751281738,-0.16019153594970703
1683128612871135000,21.460135009765626,-0.16718673706054688,0.12977051734924316,0.21493369340896606
1683128612888973000,21.47797314453125,0.18713760375976562,0.0015177726745605469,-0.28063496947288513
1683128612906812000,21.49581201171875,-0.08596038818359375,-0.15826416015625,0.2341759204864502
1683128612924649700,21.513649658203125,-0.009610176086425781,0.03841447830200195,-0.23378893733024597
1683128612942488600,21.531488525390625,-0.023512840270996094,-0.23644423484802246,0.1353578418493271
1683128612960327400,21.549327392578125,-0.09896373748779297,0.12401008605957031,-0.1506766378879547
1683128612978166300,21.567166259765624,0.06030559539794922,-0.31449949741363525,0.1120387390255928
1683128612996000000,21.585,-0.12731456756591797,0.2996244430541992,-0.04594721645116806
1683128613013843000,21.602843017578124,0.13222217559814453,-0.4196590185165405,0.11321572959423065
1683128613031681500,21.620681640625,-0.07095527648925781,0.290008544921875,-0.029818251729011536
1683128613049507300,21.63850732421875,0.2346029281616211,-0.36071109771728516,-0.00825839675962925
1683128613067346700,21.6563466796875,-0.0974283218383789,0.09050047397613525,0.05136225372552872
1683128613085197000,21.674197021484375,0.1832113265991211,-0.16941475868225098,-0.17740608751773834
1683128613103029800,21.69202978515625,-0.21840667724609375,0.02741527557373047,0.2201884686946869
1683128613120873500,21.70987353515625,0.09353160858154297,-0.042517900466918945,-0.19978691637516022
1683128613138713300,21.72771337890625,-0.15282630920410156,-0.022461295127868652,0.28270018100738525
1683128613156551400,21.745551513671874,-0.029382705688476562,-0.009626984596252441,-0.1458083838224411
1683128613174390000,21.76339013671875,-0.04572486877441406,-0.16809189319610596,0.1638287454843521
1683128613192228900,21.781228759765625,-0.05923938751220703,0.11111390590667725,-0.1922837793827057
1683128613210066400,21.79906640625,0.012827873229980469,-0.3678423762321472,0.0585530623793602
1683128613227905500,21.816905517578125,-0.12964153289794922,0.3470646142959595,-0.14208431541919708
1683128613245743900,21.834743896484376,0.15034103393554688,-0.46434009075164795,0.08327615261077881
1683128613263582700,21.852582763671876,-0.1128244400024414,0.39089083671569824,0.009818825870752335
