time,seconds_elapsed,z,y,x
1683119738165759700,0.124759765625,0.11523914337158203,0.2583574652671814,-0.12921692430973053
1683119738219277800,0.17827783203125,0.07666301727294922,0.020694196224212646,0.20062336325645447
1683119738237119200,0.196119140625,-0.1966114044189453,-0.004498541355133057,-0.16307775676250458
1683119738254951700,0.21395166015625,0.097381591796875,0.16389387845993042,0.049271441996097565
1683119738272804900,0.231804931640625,-0.11958789825439453,-0.13825345039367676,-0.08766084164381027
1683119738290641200,0.24964111328125,-0.024324417114257812,0.3895186185836792,-0.07988150417804718
1683119738308478000,0.26747802734375,0.1626596450805664,0.014818966388702393,0.18424327671527863
1683119738326316000,0.28531591796875,-0.02022266387939453,0.2998894453048706,-0.029176462441682816
1683119738344154400,0.303154296875,0.0735006332397461,0.10684508085250854,0.0865715742111206
1683119738361993700,0.32099365234375,0.016468048095703125,0.1834719181060791,-0.15749801695346832
1683119738379835400,0.33883544921875,-0.021765708923339844,-0.13787448406219482,0.11131083965301514
1683119738397665800,0.356665771484375,-0.1663951873779297,0.3047195076942444,-0.24364213645458221
1683119738415502000,0.374502197265625,0.25145816802978516,0.1507195234298706,0.12425687164068222
1683119738433345300,0.39234521484375,0.02414703369140625,0.43438583612442017,-0.0033982209861278534
1683119738451183400,0.410183349609375,0.08952808380126953,0.296541690826416,0.30775943398475647
1683119738469017300,0.428017333984375,0.23119831085205078,-0.21228545904159546,-0.05967319384217262
1683119738486856000,0.44585595703125,-0.1968669891357422,0.17678827047348022,0.18745428323745728
1683119738504697900,0.46369775390625,-0.03563690185546875,0.018848001956939697,-0.1756371706724167
1683119738522532600,0.48153271484375,-0.06281757354736328,-0.07866710424423218,0.09211249649524689
1683119738540375000,0.499375,-0.263214111328125,0.29887205362319946,-0.15199463069438934
1683119738558214400,0.51721435546875,-0.07461833953857422,0.3111039996147156,-0.06478086113929749
1683119738576050000,0.5350498046875,0.03244495391845703,-0.2941775321960449,0.07472039014101028
1683119738593888500,0.552888427734375,0.020227432250976562,0.529098629951477,-0.07462473958730698
1683119738611727400,0.570727294921875,0.12110424041748047,-0.28878897428512573,0.12899768352508545
1683119738629564700,0.588564697265625,-0.18280506134033203,-0.08706426620483398,-0.1805332750082016
1683119738647398700,0.606398681640625,-0.1297597885131836,0.05092465877532959,0.12564954161643982
1683119738665238000,0.624238037109375,-0.015189170837402344,0.14390099048614502,-0.2194262444972992
1683119738683079400,0.642079345703125,0.21971797943115234,-0.02397209405899048,0.21270103752613068
1683119738700917000,0.6599169921875,-0.11039161682128906,0.4836747646331787,-0.14899440109729767
1683119738718755600,0.677755615234375,0.07907390594482422,0.14239972829818726,0.2914797365665436
1683119738736596500,0.695596435546875,-0.04498291015625,-0.16525667905807495,-0.18188081681728363
1683119738754431700,0.713431640625,-0.14168071746826172,0.12020564079284668,0.10629802942276001
1683119738772269600,0.73126953125,-0.014767646789550781,-0.044113993644714355,-0.20115335285663605
1683119738790111000,0.749111083984375,0.06077098846435547,0.37113869190216064,0.11105810105800629
1683119738807949600,0.766949462890625,-0.01605224609375,0.2521213889122009,0.04716441035270691
1683119738825785300,0.784785400390625,-0.01901531219482422,0.17595398426055908,0.018949899822473526
1683119738843622700,0.80262255859375,-0.10997581481933594,0.055603981018066406,0.12460688501596451
1683119738861456400,0.820456298828125,0.10163021087646484,0.3433212637901306,-0.03150377422571182
1683119738879295700,0.838295654296875,0.13722801208496094,-0.24360686540603638,0.058947816491127014
1683119738897136600,0.85613671875,-0.1564645767211914,0.16204982995986938,-0.1870093047618866
1683119738914960600,0.873960693359375,0.0550689697265625,-0.10264182090759277,0.13894256949424744
1683119738932809500,0.8918095703125,-0.15736007690429688,0.30653703212738037,-0.11977604031562805
1683119738950651100,0.909651123046875,0.14946746826171875,0.630887508392334,0.26791834831237793
1683119738968493000,0.9274931640625,0.1749286651611328,0.06170278787612915,-0.0835811197757721
1683119738986327600,0.94532763671875,-0.2956972122192383,0.16783303022384644,0.27835747599601746
1683119739004166000,0.963165771484375,-0.10317230224609375,0.04105734825134277,-0.16594737768173218
1683119739022003700,0.981003662109375,0.3625917434692383,-0.09214121103286743,0.09011788666248322
1683119739039831800,0.998831787109375,-0.41247081756591797,0.24244916439056396,-0.02767106145620346
1683119739057677300,1.01667724609375,0.08798885345458984,0.37933963537216187,0.026064550504088402
1683119739075518000,1.03451806640625,0.12940120697021484,0.017136752605438232,0.14320674538612366
1683119739093353500,1.052353515625,0.012880325317382812,0.5825220346450806,-0.03483210504055023
1683119739111194600,1.070194580078125,0.0063724517822265625,-0.2585126757621765,0.054306428879499435
1683119739129019100,1.08801904296875,-0.1821765899658203,0.20004290342330933,-0.08003675937652588
1683119739146868500,1.105868408203125,-0.025734901428222656,0.06302815675735474,0.08809878677129745
1683119739164708600,1.12370849609375,0.06851959228515625,0.1365709900856018,-0.20976905524730682
1683119739182534000,1.141533935546875,0.2480907440185547,0.2931898236274719,0.22615104913711548
1683119739200385000,1.159385009765625,0.019838333129882812,0.3099942207336426,-0.06853382289409637
1683119739218222000,1.17722216796875,0.1534442901611328,-0.12463730573654175,0.33593520522117615
1683119739236064800,1.195064697265625,-0.05224323272705078,0.38114190101623535,-0.043782107532024384
1683119739253899500,1.2128994140625,0.01680278778076172,-0.09628838300704956,0.17318671941757202
1683119739271737600,1.230737548828125,-0.2579813003540039,-0.29600226879119873,-0.2192590981721878
1683119739289576000,1.248575927734375,-0.13303852081298828,0.30313706398010254,0.005387656390666962
1683119739307414000,1.2664140625,-0.052086830139160156,0.07687312364578247,-0.0719941183924675
1683119739325251800,1.284251953125,-0.23864459991455078,0.37394893169403076,-0.06644973158836365
1683119739343090400,1.30209033203125,0.10602188110351562,0.12890630960464478,0.10095462948083878
1683119739360926700,1.3199267578125,0.20765113830566406,0.131780743598938,-0.026465464383363724
1683119739378748400,1.33774853515625,-0.07930469512939453,-0.28758323192596436,0.03606998175382614
1683119739396604700,1.355604736328125,-0.3169240951538086,0.10800570249557495,-0.15229268372058868
1683119739414443000,1.373443115234375,0.017683029174804688,-0.0999557375907898,0.15650320053100586
1683119739432280800,1.39128076171875,-0.12724876403808594,0.37417805194854736,-0.2462378591299057
1683119739450120200,1.4091201171875,0.1617603302001953,0.3244417905807495,0.22311970591545105
1683119739467957000,1.42695703125,-0.09876632690429688,0.20178377628326416,-0.10466639697551727
1683119739485798700,1.444798583984375,-0.017189979553222656,0.3309212327003479,0.2931544780731201
1683119739503629000,1.462629150390625,0.08896350860595703,-0.07470160722732544,-0.14231441915035248
1683119739521468200,1.48046826171875,-0.018169403076171875,0.02537393569946289,0.13003036379814148
1683119739539313200,1.498313232421875,-0.23512744903564453,0.1503238081932068,-0.15750372409820557
1683119739557156900,1.516156982421875,0.022675514221191406,0.09413903951644897,0.07905536890029907
1683119739574986000,1.533986083984375,-0.011134147644042969,0.3098222017288208,-0.043326228857040405
1683119739592823800,1.55182373046875,-0.0028829574584960938,0.2531682252883911,0.01849360577762127
1683119739610662700,1.56966259765625,-0.1474475860595703,-0.15070098638534546,0.03673199564218521
1683119739628502000,1.587501953125,0.04786968231201172,0.42092111706733704,-0.06395869702100754
1683119739646326500,1.605326416015625,0.19276809692382812,-0.3734474182128906,0.03387486934661865
1683119739664162600,1.62316259765625,-0.26725006103515625,0.24574124813079834,-0.09592386335134506
1683119739682015500,1.641015380859375,0.012144088745117188,0.20977014303207397,0.1585967093706131
1683119739699842600,1.658842529296875,0.02267742156982422,0.2651894688606262,-0.0858592838048935
1683119739717688300,1.676688232421875,0.03189659118652344,0.5122287273406982,0.37081217765808105
1683119739735530200,1.6945302734375,0.07259845733642578,0.13754284381866455,-0.08679766207933426
1683119739753367000,1.712366943359375,-0.2452993392944336,-0.11575746536254883,0.2627587914466858
1683119739771207200,1.730207275390625,-0.1296062469482422,0.2679396867752075,-0.25869202613830566
1683119739789034500,1.748034423828125,0.2742948532104492,-0.08327776193618774,0.09268267452716827
1683119739806885600,1.7658857421875,-0.4032440185546875,-0.22630971670150757,-0.14109498262405396
1683119739824716500,1.783716552734375,-0.021518707275390625,0.60943603515625,-0.09302334487438202
1683119739842558000,1.801557861328125,0.3332395553588867,-0.0034622550010681152,0.16290509700775146
1683119739860396300,1.819396240234375,-0.030712127685546875,0.36751753091812134,0.01761937513947487
1683119739878236000,1.83723583984375,-0.07248306274414062,-0.04097062349319458,0.09122513979673386
1683119739896072700,1.85507275390625,-0.0557098388671875,0.03378868103027344,-0.1314038336277008
1683119739913898500,1.8728984375,-0.088104248046875,-0.018967926502227783,0.16945047676563263
1683119739931737600,1.890737548828125,-0.11908626556396484,0.3360481858253479,-0.21568526327610016
1683119739949584100,1.908584228515625,0.3278007507324219,0.29661035537719727,0.18738272786140442
1683119739967425000,1.926425048828125,0.0114288330078125,0.2792714834213257,-0.07641257345676422
1683119739985263000,1.94426318359375,0.0991659164428711,-0.18837600946426392,0.3043403625488281
1683119740003101000,1.962100830078125,0.04736804962158203,0.23549526929855347,-0.07412949949502945
1683119740020941000,1.979941162109375,0.017541885375976562,-0.05825847387313843,0.1499262899160385
1683119740038777600,1.997777587890625,-0.1330881118774414,-0.2655181884765625,-0.25237107276916504
1683119740056616400,2.015616455078125,-0.1003885269165039,0.2643973231315613,-0.0175933837890625
1683119740074452500,2.033452392578125,-0.02122020721435547,0.09753203392028809,-0.04484684392809868
1683119740092294400,2.05129443359375,-0.26349353790283203,0.37078726291656494,-0.06312945485115051
1683119740110130200,2.069130126953125,0.03729248046875,0.07561314105987549,0.05244709551334381
1683119740127967200,2.08696728515625,0.24677181243896484,0.26856523752212524,-0.06291429698467255
1683119740145809200,2.10480908203125,-0.015537261962890625,-0.3652392029762268,0.06350404024124146
1683119740163644700,2.122644775390625,-0.25971412658691406,0.19893378019332886,-0.1257953643798828
1683119740181478100,2.14047802734375,0.019522666931152344,0.06375521421432495,0.136149600148201
1683119740199318300,2.158318359375,-0.004486083984375,0.25471216440200806,-0.15115030109882355
1683119740217147600,2.176147705078125,0.10416507720947266,0.5193526744842529,0.3097060024738312
1683119740234985700,2.19398583984375,0.07579517364501953,0.08116751909255981,-0.10253818333148956
1683119740252823600,2.211823486328125,-0.10279083251953125,-0.09841030836105347,0.2736318111419678
1683119740270674700,2.2296748046875,-0.10241031646728516,0.10797643661499023,-0.1469814032316208
1683119740288508200,2.247508056640625,0.20702171325683594,-0.1203010082244873,0.09085354954004288
1683119740306349600,2.265349609375,-0.30199623107910156,0.13776719570159912,-0.17765498161315918
1683119740324188000,2.28318798828125,-0.09841632843017578,0.15811973810195923,0.0005469899624586105
1683119740342026800,2.30102685546875,0.007809638977050781,0.02653336524963379,0.06728427112102509
1683119740359852000,2.31885205078125,0.08116722106933594,0.5563674569129944,-0.03217438608407974
1683119740377700600,2.33670068359375,0.061148643493652344,-0.06777423620223999,0.08543441444635391
1683119740395538400,2.354538330078125,-0.03613567352294922,0.3232673406600952,-0.031798847019672394
1683119740413378600,2.372378662109375,-0.04018115997314453,-0.15303540229797363,0.046541519463062286
1683119740431219700,2.3902197265625,-0.004978179931640625,0.07197493314743042,-0.2025429904460907
1683119740449037600,2.40803759765625,0.09414482116699219,0.2362576723098755,0.22408527135849
1683119740466890000,2.425889892578125,-0.032337188720703125,0.41577014327049255,-0.09986548870801926
1683119740484731000,2.44373095703125,0.18027591705322266,0.16396605968475342,0.32184815406799316
1683119740502569000,2.46156884765625,-0.0308380126953125,0.25264155864715576,-0.04776288568973541
1683119740520406300,2.47940625,-0.055255889892578125,-0.0719141960144043,0.16166311502456665
1683119740538240300,2.497240234375,-0.10803508758544922,-0.2526471018791199,-0.2014874517917633
1683119740556080600,2.51508056640625,0.02929973602294922,0.2610955238342285,-0.02734602615237236
1683119740573921800,2.532921875,-0.16876220703125,0.07664632797241211,-0.08030687272548676
1683119740591753700,2.550753662109375,-0.0738534927368164,0.2980192303657532,-0.09378129243850708
1683119740609598500,2.568598388671875,0.08014297485351562,0.16483986377716064,0.10120053589344025
1683119740627436000,2.58643603515625,0.2652244567871094,0.16921722888946533,-0.03658062219619751
1683119740645274000,2.604274169921875,-0.22272968292236328,-0.19600743055343628,0.09929238259792328
1683119740663112700,2.62211279296875,-0.1926736831665039,0.2636294364929199,-0.15324924886226654
1683119740680950800,2.63995068359375,0.17073535919189453,-0.23673737049102783,0.1675260215997696
1683119740698791400,2.65779150390625,-0.2768516540527344,0.3871496915817261,-0.17092575132846832
1683119740716632000,2.675632080078125,0.1500110626220703,0.4027438759803772,0.18770697712898254
1683119740734465000,2.693465087890625,0.08366584777832031,0.147344172000885,-0.11931100487709045
1683119740752302600,2.711302490234375,-0.15258121490478516,0.37697964906692505,0.24593830108642578
1683119740770141200,2.72914111328125,-0.041416168212890625,-0.06591165065765381,-0.11340466886758804
1683119740787979500,2.7469794921875,-0.03618621826171875,0.028375089168548584,0.21204523742198944
1683119740805806000,2.76480615234375,-0.1849365234375,0.16614603996276855,-0.17706134915351868
1683119740823645700,2.782645751953125,0.14372539520263672,0.07359927892684937,0.07869336754083633
1683119740841489400,2.800489501953125,0.0008993148803710938,0.27259063720703125,0.08677227050065994
1683119740859329000,2.8183291015625,-0.09710216522216797,0.4830716550350189,0.004516998305916786
1683119740877158100,2.836158203125,0.02071857452392578,-0.1694137454032898,0.11457683891057968
1683119740895008000,2.854008056640625,-0.15045833587646484,0.5938708782196045,-0.07718261331319809
1683119740912840700,2.8718408203125,0.07228946685791016,-0.438022255897522,0.045467499643564224
1683119740930685000,2.889684814453125,-0.05885505676269531,-0.19153577089309692,-0.2406829595565796
1683119740948523000,2.90752294921875,-0.1168985366821289,0.2563300132751465,0.04937778785824776
1683119740966360800,2.92536083984375,0.04960823059082031,0.26951903104782104,-0.10000208765268326
1683119740984202000,2.943201904296875,-0.03577899932861328,0.23494559526443481,0.2835349142551422
1683119741002036000,2.961035888671875,-0.045269012451171875,0.3088375926017761,-0.08998056501150131
1683119741019863300,2.97886328125,0.05053520202636719,0.043261945247650146,0.22889985144138336
1683119741037710000,2.9967099609375,-0.14428424835205078,-0.17771035432815552,-0.16894979774951935
1683119741055550700,3.01455078125,0.12524032592773438,0.16176605224609375,-0.03913338482379913
1683119741073377500,3.03237744140625,-0.15045642852783203,-0.01491093635559082,-0.07480213046073914
1683119741091230200,3.050230224609375,-0.17087745666503906,0.14461010694503784,-0.03077615797519684
1683119741109052200,3.06805224609375,0.11928844451904297,0.18977433443069458,0.10203871130943298
1683119741126903300,3.0859033203125,0.1385040283203125,0.2183781862258911,-0.009159304201602936
1683119741144742400,3.103742431640625,-0.11834716796875,-0.011011302471160889,0.09053712338209152
1683119741162574600,3.12157470703125,-0.07798099517822266,0.1729450821876526,-0.12340790778398514
1683119741180418300,3.139418212890625,0.10586929321289062,-0.20924508571624756,0.11038949340581894
1683119741198259700,3.157259765625,-0.19640827178955078,0.3133006691932678,-0.2273779809474945
1683119741216094700,3.1750947265625,0.1304779052734375,0.1862649917602539,0.14203786849975586
1683119741233928200,3.19292822265625,0.04138755798339844,0.36011451482772827,-0.011734332889318466
1683119741251770600,3.2107705078125,0.09019851684570312,0.31457841396331787,0.2802717089653015
1683119741269609200,3.228609130859375,0.12536334991455078,-0.05631148815155029,-0.05047062411904335
1683119741287447300,3.246447265625,-0.16289138793945312,0.13174062967300415,0.15624631941318512
1683119741305285400,3.264285400390625,0.009204864501953125,-0.081013023853302,-0.17823059856891632
1683119741323123500,3.28212353515625,0.015628814697265625,-0.005744755268096924,0.08639255911111832
1683119741340961800,3.2999619140625,-0.10027503967285156,0.35929059982299805,-0.0036979224532842636
1683119741358803000,3.317802978515625,-0.062073707580566406,0.44630494713783264,-0.05601847171783447
1683119741376640500,3.335640625,-0.004031181335449219,-0.1566106677055359,0.10893954336643219
1683119741394479000,3.35347900390625,-0.09473133087158203,0.4242570698261261,-0.037283286452293396
1683119741412310500,3.371310546875,0.07772445678710938,-0.32723182439804077,0.14111319184303284
1683119741430151000,3.38915087890625,-0.06103706359863281,0.21084487438201904,-0.16958580911159515
1683119741447990800,3.40699072265625,-0.06006336212158203,0.03778868913650513,0.1779390275478363
1683119741465831700,3.424831787109375,-0.04738140106201172,0.037158846855163574,-0.18899227678775787
1683119741483662300,3.442662353515625,0.1834268569946289,0.3843922019004822,0.24555417895317078
1683119741501493500,3.460493408203125,0.009828567504882812,0.311212956905365,-0.08418470621109009
1683119741519338500,3.47833837890625,0.12430286407470703,0.007063925266265869,0.23652876913547516
1683119741537181400,3.496181396484375,-0.14970779418945312,0.06177985668182373,-0.14780797064304352
1683119741555017700,3.514017822265625,-0.033164024353027344,-0.1460554599761963,0.11107319593429565
1683119741572858000,3.531858154296875,-0.3525686264038086,-0.07414770126342773,-0.16456928849220276
1683119741590696000,3.549696044921875,-0.08034420013427734,0.3940656781196594,0.016720283776521683
1683119741608534000,3.567533935546875,0.2140483856201172,0.21369093656539917,0.06437958031892776
1683119741626372000,3.5853720703125,-0.022441864013671875,0.40331244468688965,-0.06619168817996979
1683119741644210200,3.603210205078125,-0.185455322265625,-0.14325779676437378,0.11747600883245468
1683119741662031000,3.621031005859375,0.03909015655517578,0.16528260707855225,-0.10349422693252563
1683119741679873500,3.63887353515625,-0.019906997680664062,-0.2087351679801941,0.03258054703474045
1683119741697726200,3.656726318359375,-0.08548355102539062,0.3143641948699951,-0.2539072036743164
1683119741715566000,3.674566162109375,0.020814895629882812,-0.06546372175216675,0.16377128660678864
1683119741733400800,3.69240087890625,-0.24148845672607422,0.13055098056793213,-0.17266325652599335
1683119741751240400,3.710240478515625,0.19960784912109375,0.5102889537811279,0.23555125296115875
1683119741769073400,3.728073486328125,0.17290496826171875,0.11931753158569336,-0.03844451904296875
1683119741786912300,3.745912353515625,-0.2240734100341797,0.15435707569122314,0.20653575658798218
1683119741804752100,3.763752197265625,-0.14105701446533203,-0.03806507587432861,-0.18445520102977753
1683119741822595300,3.78159521484375,0.25013065338134766,-0.17852437496185303,0.04830086976289749
1683119741840427000,3.799427001953125,-0.4177875518798828,0.15859800577163696,-0.10513179749250412
1683119741858265900,3.817265869140625,0.09820842742919922,0.5164639949798584,-0.09567002952098846
1683119741876106200,3.835106201171875,0.30364131927490234,-0.04754209518432617,0.16052326560020447
1683119741893944600,3.852944580078125,-0.18965435028076172,0.301266610622406,-0.0371868833899498
1683119741911782400,3.870782470703125,-0.03197479248046875,-0.0926365852355957,0.05283721536397934
1683119741929607700,3.888607666015625,0.03827857971191406,0.12870025634765625,-0.13056842982769012
1683119741947458600,3.90645849609375,-0.0317535400390625,-0.019608259201049805,0.17443904280662537
1683119741965297200,3.924297119140625,-0.15801334381103516,0.2610742449760437,-0.23971116542816162
1683119741983138000,3.942137939453125,0.19897174835205078,0.09880322217941284,0.17404229938983917
1683119742000972500,3.95997265625,-0.06262493133544922,0.36812716722488403,-0.06753681600093842
1683119742018811600,3.977811767578125,0.2829732894897461,0.03466522693634033,0.290412575006485
1683119742036649500,3.9956494140625,0.0889139175415039,0.16367995738983154,-0.0898074209690094
1683119742054487600,4.013487548828125,-0.16757678985595703,-0.0586661696434021,0.16638924181461334
1683119742072325600,4.03132568359375,-0.1681385040283203,-0.26798170804977417,-0.22014208137989044
1683119742090149400,4.0491494140625,-0.0011997222900390625,0.43454232811927795,0.13233941793441772
1683119742107998000,4.066998046875,0.08743858337402344,0.33146512508392334,0.007291067391633987
1683119742125841200,4.084841064453125,-0.18287944793701172,0.30087465047836304,-0.08336971700191498
1683119742143678700,4.1026787109375,-0.05180072784423828,-0.01077812910079956,0.16059522330760956
1683119742161512700,4.1205126953125,0.00270843505859375,0.30056607723236084,-0.07836639881134033
1683119742179355000,4.13835498046875,0.051483154296875,-0.32615572214126587,0.11465096473693848
1683119742197181400,4.156181396484375,-0.19703006744384766,0.3824913501739502,-0.1064521074295044
1683119742215016700,4.1740166015625,-0.008213043212890625,0.024070143699645996,0.15412195026874542
1683119742232855000,4.19185498046875,-0.07670116424560547,0.08033227920532227,-0.1655585616827011
1683119742250697500,4.209697509765625,-0.052466392517089844,0.3452620506286621,0.27012497186660767
1683119742268534800,4.22753466796875,0.06709861755371094,0.32897377014160156,-0.1396130621433258
1683119742286372400,4.245372314453125,0.028774261474609375,0.14089059829711914,0.27463310956954956
1683119742304225000,4.26322509765625,-0.32451725006103516,-0.1640586256980896,-0.14951257407665253
1683119742322054700,4.2810546875,0.06941890716552734,-0.018281519412994385,0.0025190282613039017
1683119742339886300,4.29888623046875,-0.13248348236083984,-0.006154656410217285,-0.1629544347524643
1683119742357733400,4.3167333984375,-0.1354351043701172,0.1419910192489624,-0.0008904300630092621
1683119742375577300,4.334577392578125,0.10461902618408203,0.36742937564849854,0.08227510750293732
1683119742393412900,4.352412841796875,0.1641063690185547,0.2526671290397644,-0.0003981851041316986
1683119742411254000,4.37025390625,-0.16750812530517578,-0.2091583013534546,0.04736999794840813
1683119742429070000,4.388070068359375,-0.1116476058959961,0.352000892162323,0.0015887841582298279
1683119742446924500,4.405924560546875,0.174530029296875,-0.20247882604599,0.04052438959479332
1683119742464765400,4.423765380859375,-0.059967041015625,0.08574163913726807,-0.21242858469486237
1683119742482591700,4.441591796875,-0.04297161102294922,0.11988908052444458,0.19744132459163666
1683119742500429800,4.459429931640625,-0.017620086669921875,0.28337764739990234,-0.12058217823505402
1683119742518278100,4.477278076171875,0.13709354400634766,0.03647887706756592,0.32568255066871643
1683119742536107500,4.495107421875,-0.04731273651123047,0.3477715253829956,-0.0853729248046875
1683119742553956000,4.5129560546875,-0.06133270263671875,-0.0781058669090271,0.24539193511009216
1683119742571791400,4.530791259765625,-0.23456096649169922,-0.2276436686515808,-0.20428229868412018
1683119742589632800,4.5486328125,0.09770870208740234,0.0983763337135315,0.07881121337413788
1683119742607470600,4.566470703125,-0.12386226654052734,0.26082921028137207,-0.016249943524599075
1683119742625309000,4.584308837890625,0.12508773803710938,0.41271042823791504,0.01578325405716896
1683119742643143000,4.602142822265625,0.02910614013671875,-0.21461105346679688,0.07863077521324158
1683119742660985300,4.6199853515625,0.060355186462402344,0.4048207998275757,0.04669871926307678
1683119742678823400,4.637823486328125,0.047593116760253906,-0.11363822221755981,0.03748343884944916
1683119742696661500,4.65566162109375,-0.21874237060546875,0.14301788806915283,-0.11242581903934479
1683119742714499800,4.673499755859375,-0.08971595764160156,-0.07038378715515137,0.08182486146688461
1683119742732337700,4.691337646484375,-0.1171102523803711,0.08983880281448364,-0.225640207529068
1683119742750176000,4.709176025390625,0.2009296417236328,0.25225383043289185,0.1485108584165573
1683119742768013300,4.727013427734375,0.003907203674316406,0.3685287833213806,-0.08818160742521286
1683119742785855200,4.744855224609375,0.17052364349365234,0.035991132259368896,0.32204002141952515
1683119742803671800,4.762671875,-0.05082416534423828,0.20392054319381714,-0.10123728215694427
1683119742821515500,4.780515625,-0.08012199401855469,-0.19628584384918213,0.18866997957229614
1683119742839369700,4.79836962890625,-0.19879817962646484,-0.16697251796722412,-0.2130241096019745
1683119742857208600,4.81620849609375,-0.0887002944946289,0.3119162917137146,0.008477278053760529
1683119742875043300,4.834043212890625,-0.07711601257324219,0.12080985307693481,-0.07931049913167953
1683119742892875500,4.85187548828125,-0.26243114471435547,0.37789976596832275,-0.05450790375471115
1683119742910719500,4.869719482421875,0.11265754699707031,0.014190375804901123,0.060465626418590546
1683119742928557800,4.887557861328125,0.1490793228149414,0.1472962498664856,-0.014001986011862755
1683119742946396200,4.905396240234375,-0.041461944580078125,-0.1305040717124939,0.04762384295463562
1683119742964222200,4.92322216796875,-0.2691164016723633,0.17497152090072632,-0.13863682746887207
1683119742982070300,4.9410703125,-0.011701583862304688,-0.17643040418624878,0.13273368775844574
1683119742999899000,4.95889892578125,-0.31441497802734375,0.2724437117576599,-0.198706716299057
1683119743017749800,4.976749755859375,0.18010807037353516,0.5280663371086121,0.19027699530124664
1683119743035589600,4.994589599609375,0.20379161834716797,0.14028799533843994,-0.1199164092540741
1683119743053425000,5.0124248046875,-0.13156604766845703,0.14140808582305908,0.3019617795944214
1683119743071254300,5.030254150390625,-0.03836250305175781,0.028540372848510742,-0.175831139087677
1683119743089092600,5.048092529296875,0.3325929641723633,-0.180317223072052,0.11590926349163055
1683119743106938600,5.065938720703125,-0.3097076416015625,0.36404114961624146,-0.07932679355144501
1683119743124781300,5.08378125,-0.06205940246582031,0.31660372018814087,0.05914991348981857
1683119743142616000,5.101615966796875,0.07659912109375,-0.07092928886413574,0.029081406071782112
1683119743160452600,5.11945263671875,-0.26662254333496094,0.34376466274261475,0.06143207475543022
1683119743178292200,5.137292236328125,0.1685647964477539,0.0779532790184021,0.045761242508888245
1683119743196130000,5.155130126953125,0.23621463775634766,0.04121142625808716,-0.012821991927921772
1683119743213961000,5.1729609375,-0.051177024841308594,-0.2504528760910034,-0.0016973009333014488
1683119743231801300,5.19080126953125,-0.11603546142578125,0.10130089521408081,-0.18064488470554352
1683119743249642200,5.208642333984375,0.16543102264404297,0.02292811870574951,0.11832040548324585
1683119743267483100,5.226483154296875,-0.20319366455078125,0.49714887142181396,-0.08858509361743927
1683119743285316400,5.24431640625,-0.0785970687866211,0.2360091209411621,0.27861857414245605
1683119743303159600,5.26215966796875,0.12073516845703125,0.003659069538116455,-0.15365976095199585
1683119743320997600,5.27999755859375,-0.08438396453857422,-0.0024509429931640625,0.25046050548553467
1683119743338835700,5.297835693359375,0.06301403045654297,-0.09819501638412476,-0.23620931804180145
1683119743356671700,5.315671630859375,0.21204662322998047,-0.008967101573944092,0.19118303060531616
1683119743374512000,5.33351220703125,-0.3495826721191406,0.2361539602279663,-0.08968010544776917
1683119743392350500,5.3513505859375,0.07450294494628906,0.16032588481903076,0.0585780143737793
1683119743410189800,5.36918994140625,0.022563934326171875,0.27057623863220215,0.062065597623586655
1683119743428027600,5.387027587890625,0.0737905502319336,0.2614467144012451,0.03837098926305771
1683119743445868000,5.404867919921875,0.1317272186279297,-0.6234317421913147,-0.04906848073005676
1683119743463703000,5.422703125,-0.1060943603515625,0.10856837034225464,-0.07361796498298645
1683119743481545500,5.44054541015625,0.10991954803466797,-0.011886358261108398,0.07549183070659637
1683119743499367400,5.458367431640625,-0.011509895324707031,0.2010480761528015,-0.21047663688659668
1683119743517216800,5.476216796875,0.04959392547607422,0.049775004386901855,0.19096510112285614
1683119743535050000,5.494050048828125,0.013283729553222656,0.38404446840286255,-0.066016286611557
1683119743552894000,5.51189404296875,-0.02582836151123047,0.19824230670928955,0.3030012845993042
1683119743570732300,5.529732177734375,0.17048168182373047,-0.05766499042510986,-0.15066811442375183
1683119743588570400,5.5475703125,0.04786205291748047,-0.15383106470108032,0.1817399114370346
1683119743606408400,5.565408447265625,-0.025682449340820312,0.028727293014526367,-0.17480173707008362
1683119743624246800,5.583246826171875,0.0022993087768554688,0.1018381118774414,0.11842527985572815
1683119743642084900,5.6010849609375,-0.11983871459960938,0.25777947902679443,-0.023045668378472328
1683119743659911400,5.618911376953125,0.014112472534179688,0.4215449392795563,0.09039454162120819
1683119743677765000,5.63676513671875,-0.032268524169921875,-0.10669833421707153,-0.0038147252053022385
1683119743695598600,5.6545986328125,-0.15176868438720703,0.3001652956008911,0.06558239459991455
1683119743713437700,5.672437744140625,0.06302547454833984,-0.2207777500152588,-0.010150249116122723
1683119743731277600,5.690277587890625,-0.2096242904663086,0.12176769971847534,-0.06955008953809738
1683119743749107000,5.70810693359375,-0.1477031707763672,-0.09597134590148926,0.0391271635890007
1683119743766940200,5.725940185546875,-0.15495967864990234,0.38198429346084595,-0.1359761655330658
1683119743784787700,5.74378759765625,-0.032647132873535156,0.316261351108551,0.25998827815055847
1683119743802625500,5.76162548828125,0.03436565399169922,0.194114089012146,-0.13166658580303192
1683119743820467000,5.779467041015625,-0.02937030792236328,0.10540372133255005,0.3043079674243927
1683119743838302000,5.797302001953125,-0.02787303924560547,-0.059955060482025146,-0.18315601348876953
1683119743856143400,5.815143310546875,0.03357410430908203,-0.266177237033844,0.1129990965127945
1683119743873981400,5.8329814453125,-0.24387073516845703,0.3464627265930176,-0.09160540997982025
1683119743891819300,5.8508193359375,0.1284770965576172,0.2883867025375366,0.06684832274913788
1683119743909657600,5.86865771484375,0.052987098693847656,-0.024543941020965576,-0.07447336614131927
1683119743927496200,5.88649609375,-0.16225337982177734,0.3446221351623535,0.11808264255523682
1683119743945323000,5.904322998046875,0.17737865447998047,-0.013333022594451904,-0.04014315456151962
1683119743963172400,5.92217236328125,0.16225337982177734,0.2020840048789978,0.0032797083258628845
1683119743981012500,5.940012451171875,-0.11007308959960938,-0.32643061876296997,-0.024815835058689117
1683119743998836000,5.9578359375,-0.2495260238647461,-0.0012791752815246582,-0.0728808268904686
1683119744016686300,5.975686279296875,0.12929630279541016,0.1751340627670288,0.14180414378643036
1683119744034525200,5.993525146484375,-0.0019598007202148438,0.37662139534950256,-0.14078277349472046
1683119744052363000,6.011363037109375,-0.08121109008789062,0.3347768187522888,0.34581804275512695
1683119744070204400,6.029204345703125,0.06739330291748047,0.04559832811355591,-0.17606040835380554
1683119744088042800,6.047042724609375,0.17121315002441406,-0.3252257704734802,0.1590118557214737
1683119744105879600,6.064879638671875,-0.11063385009765625,0.2981785535812378,-0.1361865997314453
1683119744123716400,6.08271630859375,0.2115650177001953,0.19711846113204956,0.1589258760213852
1683119744141542400,6.10054248046875,-0.19851303100585938,-0.017581522464752197,-0.13827402889728546
1683119744159381000,6.118381103515625,-0.05886268615722656,0.37569189071655273,0.18333040177822113
1683119744177230600,6.136230712890625,0.17348003387451172,0.06760942935943604,-0.005781897343695164
1683119744195057200,6.15405712890625,0.028061866760253906,0.18046844005584717,0.11591599881649017
1683119744212907000,6.171906982421875,-0.033011436462402344,0.04598778486251831,-0.012582008726894855
1683119744230745600,6.18974560546875,0.08927440643310547,0.031889140605926514,0.017789136618375778
1683119744248583700,6.207583740234375,0.08724212646484375,-0.27464115619659424,0.0071026720106601715
1683119744266410500,6.225410400390625,-0.38920116424560547,0.27106034755706787,-0.1388050764799118
1683119744284248600,6.24324853515625,0.21456241607666016,0.2686973810195923,0.1480458825826645
1683119744302089500,6.26108935546875,0.09093570709228516,0.2845940589904785,-0.1141614243388176
1683119744319925200,6.27892529296875,-0.09714984893798828,-0.07198858261108398,0.24926729500293732
1683119744337771800,6.296771728515625,-0.033394813537597656,0.17724072933197021,-0.217816561460495
1683119744355612700,6.31461279296875,0.38497257232666016,-0.284753680229187,0.18916583061218262
1683119744373452000,6.3324521484375,-0.19324493408203125,0.05443090200424194,-0.23731020092964172
1683119744391277000,6.350277099609375,-0.09106731414794922,0.14294105768203735,0.11247755587100983
1683119744409107200,6.368107177734375,-0.001678466796875,0.1398445963859558,-0.033994294703006744
1683119744426963000,6.385962890625,-0.025030136108398438,0.4312872290611267,0.11008718609809875
1683119744444803800,6.403803955078125,0.12372493743896484,-0.38318634033203125,-0.051673464477062225
1683119744462642000,6.421641845703125,-0.12035751342773438,0.2701587677001953,0.11618247628211975
1683119744480480500,6.43948046875,0.026327133178710938,-0.2085208296775818,-0.11227527260780334
1683119744498312000,6.45731201171875,-0.03670692443847656,-0.12387967109680176,-0.03989652544260025
1683119744516156400,6.475156494140625,-0.19870567321777344,0.10420548915863037,-0.0017939908429980278
1683119744533994800,6.492994873046875,-0.19457530975341797,0.3288814425468445,-0.1777258664369583
1683119744551835100,6.510835205078125,-0.22684478759765625,0.10341793298721313,0.22132766246795654
1683119744569672700,6.528672607421875,-0.006298065185546875,0.4247298836708069,-0.16891562938690186
1683119744587512300,6.54651220703125,0.21734333038330078,-0.21022921800613403,0.270864337682724
1683119744605347600,6.56434765625,-0.04920482635498047,0.14232724905014038,-0.16476835310459137
1683119744623180000,6.582179931640625,0.1414356231689453,-0.07149910926818848,0.1495610624551773
1683119744641023500,6.6000234375,0.00672149658203125,0.049148619174957275,-0.13687396049499512
1683119744658851000,6.61785107421875,-0.05760478973388672,0.39719143509864807,0.20427486300468445
1683119744676700700,6.63570068359375,0.007419586181640625,0.13335168361663818,-0.05387880280613899
1683119744694537500,6.653537353515625,-0.13358497619628906,0.20551210641860962,0.16771593689918518
1683119744712376600,6.67137646484375,-0.05987548828125,-0.03318983316421509,-0.13005681335926056
1683119744730215200,6.689215087890625,0.09130477905273438,-0.06324124336242676,0.026766300201416016
1683119744748054000,6.707053955078125,0.059500694274902344,-0.383545458316803,-0.08572007715702057
1683119744765894100,6.72489404296875,-0.19759559631347656,0.18955278396606445,-0.15690739452838898
1683119744783730200,6.742730224609375,0.06514453887939453,-0.02673238515853882,0.144343763589859
1683119744801556000,6.760555908203125,-0.4079904556274414,0.24701040983200073,-0.15811601281166077
1683119744819407600,6.77840771484375,-0.2164907455444336,0.2594391703605652,0.2167331874370575
1683119744837247200,6.796247314453125,0.2173480987548828,0.11813163757324219,-0.16730764508247375
1683119744855082000,6.81408203125,-0.0903635025024414,-0.39628738164901733,0.152826189994812
1683119744872920600,6.831920654296875,-0.008519172668457031,0.19107592105865479,-0.311163067817688
1683119744890760200,6.84976025390625,0.23329448699951172,-0.1250617504119873,0.1482764035463333
1683119744908599800,6.867599853515625,-0.2588825225830078,-0.06467640399932861,-0.14211398363113403
1683119744926435600,6.885435546875,0.07275772094726562,0.3818022310733795,0.12905089557170868
1683119744944255700,6.903255859375,0.2183542251586914,-0.24220120906829834,-0.0604233518242836
1683119744962109000,6.92110888671875,-0.10638141632080078,0.34886765480041504,0.11975955963134766
1683119744979938300,6.938938232421875,-0.0807180404663086,-0.17439663410186768,-0.15376180410385132
1683119744997788400,6.956788330078125,0.29744815826416016,-0.24494671821594238,-0.03162481263279915
1683119745015626800,6.974626708984375,-0.15717411041259766,0.1087760329246521,-0.14201076328754425
1683119745033464800,6.99246484375,-0.03698921203613281,0.22748208045959473,-0.14846666157245636
1683119745051303200,7.01030322265625,-0.004299163818359375,-0.095162034034729,0.15004977583885193
1683119745069135000,7.028135009765625,-0.09097480773925781,0.5286744832992554,-0.15138813853263855
1683119745086976500,7.0459765625,0.12283515930175781,-0.12558871507644653,0.24021285772323608
1683119745104820500,7.063820556640625,-0.13111591339111328,0.27486008405685425,-0.13178686797618866
1683119745122655000,7.081655029296875,0.08952903747558594,-0.1133241057395935,0.11815667897462845
1683119745140483800,7.09948388671875,0.1393909454345703,-0.036532580852508545,-0.22356708347797394
1683119745158332400,7.11733251953125,-0.10016059875488281,0.05311763286590576,0.19812457263469696
1683119745176170500,7.13517041015625,-0.11293697357177734,0.34515494108200073,-0.17633472383022308
1683119745193994000,7.152993896484375,0.2544288635253906,0.10122966766357422,0.22373205423355103
1683119745211829500,7.17082958984375,-0.09547138214111328,-0.11646527051925659,-0.07838124781847
1683119745229684700,7.188684814453125,-0.2873420715332031,0.23677682876586914,0.14146225154399872
1683119745247521500,7.206521484375,-0.042446136474609375,-0.12467360496520996,-0.092847540974617
1683119745265360000,7.22435986328125,-0.05914020538330078,0.05404484272003174,0.021919332444667816
1683119745283200000,7.242199951171875,-0.1069498062133789,0.10983747243881226,-0.058483801782131195
1683119745301038300,7.260038330078125,-0.08962154388427734,0.23523318767547607,-0.1251550018787384
1683119745318866000,7.277865966796875,0.1016387939453125,-0.1582929491996765,0.21980074048042297
1683119745336714200,7.29571435546875,0.07562828063964844,0.5675516724586487,-0.1584046483039856
1683119745354558700,7.313558837890625,0.18232059478759766,-0.2700798511505127,0.14008277654647827
1683119745372391000,7.331390869140625,-0.39484596252441406,-0.10427117347717285,-0.21384266018867493
1683119745390226200,7.34922607421875,-0.2208423614501953,0.03146946430206299,0.15668635070323944
1683119745408065300,7.367065185546875,0.086761474609375,0.20776480436325073,-0.17129674553871155
1683119745425908500,7.384908447265625,0.09527969360351562,0.284920871257782,0.16447791457176208
1683119745443744000,7.402743896484375,-0.00681304931640625,0.1632869839668274,-0.08655861020088196
1683119745461567500,7.4205673828125,-0.08040904998779297,0.0819706916809082,0.1764710396528244
1683119745479420400,7.43842041015625,-0.042046546936035156,-0.07636934518814087,-0.1418476104736328
1683119745497254100,7.456254150390625,0.02237224578857422,0.14500701427459717,0.04890495911240578
1683119745515096800,7.474096923828125,-0.10477638244628906,-0.157487154006958,-0.10100233554840088
1683119745532934000,7.491933837890625,-0.2211017608642578,0.2579362988471985,0.07508663088083267
1683119745550776800,7.50977685546875,0.09233379364013672,0.20153915882110596,0.1503685712814331
1683119745568611600,7.527611572265625,-0.07251644134521484,0.28485530614852905,-0.08007287979125977
1683119745586453800,7.545453857421875,-0.3137397766113281,0.1481388807296753,0.1908385306596756
1683119745604288000,7.5632880859375,0.16534900665283203,0.1311766505241394,-0.13913771510124207
1683119745622121000,7.581120849609375,0.2334308624267578,-0.49469614028930664,0.0187275018543005
1683119745639951600,7.59895166015625,-0.18513870239257812,0.2233790159225464,-0.25704383850097656
1683119745657791000,7.616791015625,-0.02689075469970703,-0.04916250705718994,0.15266962349414825
1683119745675641300,7.634641357421875,-0.0864114761352539,0.2058572769165039,-0.09754841029644012
1683119745693479200,7.652479248046875,0.0107574462890625,0.05799132585525513,0.23784291744232178
1683119745711317000,7.67031689453125,0.08293533325195312,0.20795804262161255,-0.012983130291104317
1683119745729143000,7.68814306640625,-0.009072303771972656,0.022614777088165283,0.17856574058532715
1683119745746990800,7.705990966796875,0.04347801208496094,-0.38061821460723877,-0.22651135921478271
1683119745764830200,7.723830322265625,0.18009090423583984,0.1728982925415039,0.0991005152463913
1683119745782669000,7.7416689453125,0.049775123596191406,0.09206020832061768,-0.018687691539525986
1683119745800511700,7.75951171875,-0.09215545654296875,0.26353025436401367,-0.09816053509712219
1683119745818349800,7.777349853515625,0.04367828369140625,0.04947000741958618,0.250821053981781
1683119745836185000,7.79518505859375,0.01268768310546875,0.2741782069206238,-0.08249370753765106
1683119745854023200,7.813023193359375,0.0682220458984375,-0.25652074813842773,0.18135876953601837
1683119745871861200,7.830861328125,-0.16722488403320312,0.33668577671051025,-0.24139294028282166
1683119745889699800,7.848699951171875,0.21834087371826172,-0.3979285955429077,0.12610425055027008
1683119745907542800,7.866542724609375,-0.07545852661132812,-0.08017545938491821,-0.2704653739929199
1683119745925364500,7.884364501953125,0.04374980926513672,0.26140081882476807,0.13919275999069214
1683119745943213000,7.902213134765625,0.062392234802246094,0.2703257203102112,-0.08331604301929474
1683119745961052000,7.920052001953125,0.021017074584960938,0.2123447060585022,0.21851463615894318
1683119745978879200,7.937879150390625,-0.12581253051757812,-0.18792343139648438,-0.09245368093252182
1683119745996729000,7.95572900390625,-0.33043384552001953,0.06921440362930298,0.1528114229440689
1683119746014567400,7.9735673828125,-0.05117511749267578,-0.09734714031219482,-0.19592149555683136
1683119746032390400,7.991390380859375,-0.006972312927246094,0.05847954750061035,0.0009625237435102463
1683119746050244400,8.009244384765625,-0.02858734130859375,0.2060755491256714,0.04116293787956238
1683119746068083200,8.027083251953124,-0.099578857421875,0.3323105573654175,-0.12027204781770706
1683119746085923300,8.04492333984375,-0.09824752807617188,-0.07505542039871216,0.1632934957742691
1683119746103762400,8.062762451171874,-0.09233951568603516,0.39003315567970276,-0.05138334631919861
1683119746121596700,8.0805966796875,0.07050228118896484,-0.19950836896896362,0.1382356882095337
1683119746139435500,8.098435546875,-0.19114017486572266,0.036488354206085205,-0.19396159052848816
1683119746157276400,8.1162763671875,-0.2754945755004883,-0.14618390798568726,0.13207443058490753
1683119746175111700,8.134111572265626,0.041106224060058594,0.31401801109313965,-0.2607910633087158
1683119746192944000,8.151944091796874,0.41765403747558594,0.24081569910049438,0.2186841368675232
1683119746210773200,8.169773193359376,-0.20503902435302734,0.12156671285629272,-0.09374367445707321
1683119746228625200,8.187625244140625,-0.04738903045654297,0.06707876920700073,0.17691680788993835
1683119746246464800,8.20546484375,0.10238838195800781,-0.0506136417388916,-0.1315239816904068
1683119746264300300,8.22330029296875,-0.028957366943359375,0.03282129764556885,0.053476981818675995
1683119746282129200,8.241129150390625,-0.44995975494384766,-0.24399471282958984,-0.14914795756340027
1683119746299967500,8.258967529296875,-0.027225494384765625,0.21916449069976807,-0.09310156106948853
1683119746317805800,8.276805908203125,0.23543930053710938,0.08669883012771606,0.09724193066358566
1683119746335655700,8.29465576171875,-0.20860862731933594,0.3064056634902954,-0.06249247491359711
1683119746353482200,8.312482177734376,-0.1371316909790039,0.028082728385925293,0.09057877957820892
1683119746371328000,8.330327880859375,0.1881542205810547,0.1837456226348877,-0.14988015592098236
1683119746389158100,8.348158203125,-0.03665924072265625,-0.3283843994140625,0.03697757422924042
1683119746407009300,8.36600927734375,-0.20699214935302734,0.10730332136154175,-0.2117607295513153
1683119746424847000,8.38384716796875,0.1265583038330078,-0.014568686485290527,0.1726119965314865
1683119746442688500,8.4016884765625,-0.013280868530273438,0.4209628701210022,-0.08921315521001816
1683119746460523800,8.419523681640625,0.22096633911132812,0.37152406573295593,0.27610912919044495
1683119746478361900,8.43736181640625,0.14919376373291016,-0.29445087909698486,-0.07116653770208359
1683119746496202500,8.455202392578125,-0.17672348022460938,0.19769561290740967,0.19251622259616852
1683119746514038500,8.47303857421875,0.040771484375,-0.08606690168380737,-0.21414513885974884
1683119746531873300,8.490873291015625,0.15556716918945312,-0.1480875015258789,0.03980973735451698
1683119746549713400,8.50871337890625,-0.3596630096435547,0.168873131275177,-0.1503514051437378
1683119746567551500,8.526551513671874,0.09579849243164062,0.2539176940917969,-0.04222249239683151
1683119746585391400,8.544391357421874,0.10632610321044922,0.044744789600372314,0.1581662893295288
1683119746603218000,8.562218017578125,-0.07735633850097656,0.3943871259689331,-0.05462372303009033
1683119746621056800,8.580056884765625,0.09856224060058594,-0.4239509105682373,0.0725279301404953
1683119746638893600,8.5978935546875,-0.1406841278076172,0.2124629020690918,-0.2040509283542633
1683119746656747300,8.615747314453126,0.06786727905273438,-0.22831284999847412,0.1220141053199768
1683119746674580700,8.633580810546874,-0.13966941833496094,-0.12730085849761963,-0.26943138241767883
1683119746692418000,8.65141796875,0.039422035217285156,0.28421247005462646,0.09480125457048416
1683119746710259500,8.669259521484374,0.04974842071533203,0.1723390817642212,-0.1346786469221115
1683119746728098300,8.687098388671876,0.12111854553222656,-0.10464286804199219,0.2657288610935211
1683119746745938700,8.704938720703124,-0.11867237091064453,0.21193867921829224,-0.15165841579437256
1683119746763763700,8.722763671875,0.04447364807128906,-0.22840166091918945,0.18086488544940948
1683119746781601000,8.74060107421875,-0.28295230865478516,-0.20057672262191772,-0.24957899749279022
1683119746799449600,8.75844970703125,-0.18546199798583984,0.4259587824344635,0.10055669397115707
1683119746817289000,8.7762890625,0.12932968139648438,0.10697364807128906,0.04141434654593468
1683119746835130000,8.794130126953124,-0.20917701721191406,0.3495994806289673,-0.09487026184797287
1683119746852965000,8.811965087890625,-0.08205795288085938,-0.015004277229309082,0.1745019555091858
1683119746870805000,8.829804931640625,0.0989217758178711,0.1612793207168579,-0.08085649460554123
1683119746888642000,8.84764208984375,-0.08085250854492188,-0.4216958284378052,0.11341891437768936
1683119746906482200,8.865482177734375,-0.29115867614746094,0.23313653469085693,-0.23106704652309418
1683119746924313600,8.883313720703125,-0.009146690368652344,-0.16452258825302124,0.12544462084770203
1683119746942156300,8.90115625,-0.2184162139892578,0.09708315134048462,-0.2030278891324997
1683119746959991000,8.918990966796875,0.1156301498413086,0.46770143508911133,0.17468413710594177
1683119746977832000,8.93683203125,0.1567554473876953,0.02081841230392456,-0.10770616680383682
1683119746995671600,8.954671630859375,-0.15584850311279297,-0.03627258539199829,0.2504502236843109
1683119747013510000,8.972510009765625,-0.09353351593017578,0.08842939138412476,-0.2333548367023468
1683119747031337000,8.9903369140625,0.2888774871826172,-0.24100887775421143,0.11082640290260315
1683119747049173500,9.008173583984375,-0.2266063690185547,-0.21430116891860962,-0.21079286932945251
1683119747067023400,9.0260234375,-0.10752391815185547,0.277096152305603,-0.00430784747004509
1683119747084853200,9.043853271484375,0.2492513656616211,0.08611375093460083,0.07581135630607605
1683119747102703900,9.061703857421875,-0.11674880981445312,0.44638001918792725,-0.0018286164849996567
1683119747120536800,9.079536865234376,-0.06711387634277344,-0.1370469331741333,0.09196054935455322
1683119747138379000,9.09737890625,0.06656169891357422,0.06498461961746216,-0.08902153372764587
1683119747156215300,9.11521533203125,0.0579376220703125,-0.22697371244430542,0.02890944667160511
1683119747174054100,9.13305419921875,-0.10914897918701172,0.01910877227783203,-0.21232545375823975
1683119747191895000,9.15089501953125,0.08321952819824219,0.030109167098999023,0.20126494765281677
1683119747209730800,9.168730712890625,-0.07472801208496094,0.370792031288147,-0.1079666018486023
1683119747227565800,9.18656591796875,-0.014948844909667969,0.2783409357070923,0.32065141201019287
1683119747245402600,9.204402587890625,0.001201629638671875,0.16266512870788574,-0.10876854509115219
1683119747263245300,9.222245361328126,-0.1059103012084961,-0.13603806495666504,0.2346673458814621
1683119747281084000,9.240083984375,-0.17673873901367188,-0.09530782699584961,-0.19797222316265106
1683119747298922000,9.257921875,0.1918811798095703,0.038496315479278564,0.08358795940876007
1683119747316760000,9.275760009765625,-0.2491893768310547,0.02617698907852173,-0.1577264815568924
1683119747334601500,9.2936015625,0.04888629913330078,0.4756503701210022,-0.07547453790903091
1683119747352436500,9.3114365234375,0.19300556182861328,-0.14527356624603271,0.10719775408506393
1683119747370262500,9.329262451171875,-0.07394886016845703,0.10880500078201294,-0.009454791434109211
1683119747388114200,9.3471142578125,0.06175994873046875,0.010271012783050537,0.004501963034272194
1683119747405954300,9.364954345703126,-0.015124320983886719,0.10652852058410645,-0.12792903184890747
1683119747423789800,9.382789794921875,-0.09984111785888672,-0.3542652726173401,0.11012589931488037
1683119747441622000,9.4006220703125,-0.2964973449707031,0.2128887176513672,-0.3362882137298584
1683119747459455000,9.418455078125,0.3365774154663086,0.11636978387832642,0.15401479601860046
1683119747477305600,9.4363056640625,-0.1021127700805664,0.24778467416763306,-0.11768778413534164
1683119747495143400,9.454143310546876,0.08234500885009766,0.32391053438186646,0.27715009450912476
1683119747512981200,9.471981201171875,0.11648178100585938,-0.11778348684310913,-0.11275267601013184
1683119747530819800,9.48981982421875,-0.26926231384277344,-0.11214792728424072,0.20344918966293335
1683119747548658200,9.507658203125,-0.2937498092651367,0.13089263439178467,-0.20284996926784515
1683119747566498600,9.52549853515625,0.024885177612304688,0.04042518138885498,0.09851446002721786
1683119747584331500,9.54333154296875,-0.17459392547607422,0.21443527936935425,-0.13196808099746704
1683119747602172400,9.56117236328125,-0.1756134033203125,0.283200204372406,-0.036529578268527985
1683119747620007400,9.57900732421875,0.25742244720458984,-0.37572503089904785,0.07901100814342499
1683119747637849000,9.59684912109375,0.07187652587890625,0.43140554428100586,-0.0798456221818924
1683119747655687400,9.6146875,0.08599853515625,-0.3538098931312561,0.03945878893136978
1683119747673526000,9.632526123046874,-0.35734081268310547,-0.19087755680084229,-0.16318391263484955
1683119747691359700,9.65035986328125,-0.24681758880615234,0.023204922676086426,0.06396785378456116
1683119747709189600,9.668189697265625,-0.05777454376220703,0.2059153914451599,-0.2192811667919159
1683119747727041800,9.686041748046875,-0.04922199249267578,0.27244341373443604,0.27602556347846985
1683119747744878800,9.70387890625,-0.037245750427246094,0.32312142848968506,-0.20124240219593048
1683119747762711000,9.7217109375,0.12633705139160156,-0.13513684272766113,0.3188958466053009
1683119747780555500,9.739555419921874,-0.2325143814086914,-0.14575505256652832,-0.18777687847614288
1683119747798393900,9.757393798828126,0.1738576889038086,0.11225038766860962,0.04031854867935181
1683119747816232000,9.77523193359375,-0.10783672332763672,-0.015266954898834229,-0.15472577512264252
1683119747834068700,9.79306884765625,-0.3088359832763672,0.07383018732070923,0.06416921317577362
1683119747851908600,9.81090869140625,-0.030874252319335938,0.1596112847328186,-0.091437928378582
1683119747869732600,9.828732666015625,0.19286155700683594,0.12511271238327026,0.03706904873251915
1683119747887572500,9.846572509765625,0.07914447784423828,-0.205036461353302,0.005146502982825041
1683119747905423400,9.86442333984375,0.0648193359375,0.19389522075653076,-0.04402032494544983
1683119747923258600,9.882258544921875,0.23472023010253906,-0.47471481561660767,0.014065800234675407
1683119747941087700,9.900087646484375,-0.2146444320678711,0.04672253131866455,-0.19416239857673645
1683119747958932000,9.917931884765625,-0.024091720581054688,-0.02714669704437256,0.13362474739551544
1683119747976775400,9.935775390625,-0.048737525939941406,0.38440951704978943,-0.16308452188968658
1683119747994614500,9.953614501953124,-0.11839008331298828,0.16983193159103394,0.2895297408103943
1683119748012447200,9.971447265625,-0.1446990966796875,-0.053763389587402344,-0.1505504548549652
1683119748030295600,9.989295654296875,0.1469573974609375,-0.2614189386367798,0.24455682933330536
1683119748048130600,10.007130615234376,0.1058492660522461,0.1064380407333374,-0.2217509150505066
1683119748065971200,10.02497119140625,0.19122600555419922,-0.08390331268310547,0.13998472690582275
1683119748083799000,10.042799072265625,-0.3378257751464844,0.09359651803970337,-0.10161994397640228
1683119748101644500,10.06064453125,0.11849689483642578,0.23967933654785156,0.06318897008895874
1683119748119480300,10.078480224609375,0.009662628173828125,-0.1345435380935669,-0.0030175265856087208
1683119748137318100,10.096318115234375,0.0074634552001953125,0.4158214330673218,0.05569864436984062
1683119748155159300,10.1141591796875,0.1372966766357422,-0.3925003409385681,-0.03533471003174782
1683119748172997600,10.13199755859375,-0.16457653045654297,-0.21161413192749023,-0.06312595307826996
1683119748190836200,10.149836181640625,-0.09203910827636719,-0.010188400745391846,-0.011649898253381252
1683119748208672300,10.16767236328125,-0.053879737854003906,0.20068359375,-0.222769632935524
1683119748226515500,10.185515380859375,0.053681373596191406,-0.02302151918411255,0.17938287556171417
1683119748244350700,10.203350830078126,-0.14347076416015625,0.40072140097618103,-0.17762461304664612
1683119748262189300,10.221189208984375,0.020943641662597656,0.020521223545074463,0.3002208173274994
1683119748280025900,10.23902587890625,-0.08992958068847656,0.18417632579803467,-0.13422328233718872
1683119748297855000,10.25685498046875,0.047516822814941406,-0.17236560583114624,0.16957107186317444
1683119748315696000,10.274696044921875,-0.009509086608886719,-0.1498299241065979,-0.19214382767677307
1683119748333530600,10.292530517578125,-0.13101959228515625,0.20414888858795166,0.16135820746421814
1683119748351369700,10.31036962890625,-0.016048431396484375,0.1574377417564392,-0.10032469779253006
1683119748369204200,10.328204345703124,0.025899887084960938,0.2716221809387207,0.08531640470027924
1683119748387042300,10.346042236328126,-0.005900382995605469,0.12280768156051636,0.04246145486831665
1683119748404884000,10.363884033203124,-0.07916927337646484,0.09871792793273926,0.03483429178595543
1683119748422721800,10.3817216796875,-0.15051651000976562,-0.5017724633216858,-0.03216316178441048
1683119748440572200,10.399572265625,-0.31894779205322266,0.20874488353729248,-0.1291886419057846
1683119748458396000,10.41739599609375,0.02192974090576172,-0.07738357782363892,0.09113816916942596
1683119748476251400,10.43525146484375,-0.03684425354003906,0.2829059958457947,-0.15723279118537903
1683119748494089500,10.45308935546875,-0.0989694595336914,0.280508816242218,0.2774682343006134
1683119748511925000,10.470925048828125,0.08010005950927734,-0.07658541202545166,-0.15514765679836273
1683119748529747200,10.488747314453125,-0.02619457244873047,0.0845760703086853,0.31923097372055054
1683119748547600600,10.5066005859375,0.014133453369140625,0.08983129262924194,-0.1906130611896515
1683119748565441000,10.52444091796875,0.15738391876220703,-0.25562870502471924,0.1073172464966774
1683119748583277600,10.542277587890625,-0.3355846405029297,0.12980210781097412,-0.14404477179050446
1683119748601118000,10.560117919921876,0.03563213348388672,0.14523714780807495,0.09878832846879959
1683119748618955000,10.577955078125,0.1634693145751953,0.3152795433998108,0.002902667038142681
1683119748636780800,10.59578076171875,0.13070964813232422,0.2922060489654541,0.09162840992212296
1683119748654626800,10.613626708984375,0.2549428939819336,-0.5569196939468384,-0.10198807716369629
1683119748672469500,10.631469482421876,-0.07807445526123047,0.15629929304122925,-0.027721669524908066
1683119748690308000,10.64930810546875,0.07585334777832031,-0.23462361097335815,-0.03936095908284187
1683119748708147200,10.667147216796875,-0.1578836441040039,-0.08658444881439209,-0.1764993667602539
1683119748725984800,10.68498486328125,-0.017229080200195312,0.15179866552352905,0.06106973811984062
1683119748743822800,10.70282275390625,0.047469139099121094,0.12835389375686646,-0.1635882705450058
1683119748761661000,10.720660888671874,0.05099678039550781,-0.08955198526382446,0.31283605098724365
1683119748779498800,10.738498779296876,0.020519256591796875,0.42219623923301697,-0.23350468277931213
1683119748797337600,10.756337646484376,0.4616527557373047,-0.3419504761695862,0.18674935400485992
1683119748815176000,10.774176025390625,-0.28093910217285156,-0.19748252630233765,-0.27112096548080444
1683119748833014300,10.79201416015625,-0.1163320541381836,0.040969014167785645,0.12713876366615295
1683119748850853600,10.809853515625,-0.1454925537109375,0.08562493324279785,-0.1255650669336319
1683119748868691000,10.82769091796875,0.09913253784179688,0.37823837995529175,0.06526170670986176
1683119748886523600,10.845523681640625,0.09824657440185547,-0.051995158195495605,-0.02889295667409897
1683119748904367400,10.863367431640626,-0.12683963775634766,0.03585207462310791,0.10221468657255173
1683119748922203000,10.881202880859375,0.08516693115234375,-0.06496024131774902,-0.12904863059520721
1683119748940044000,10.8990439453125,0.062270164489746094,0.031166017055511475,0.05356522649526596
1683119748957867500,10.916867431640625,-0.07024383544921875,-0.1148194670677185,0.03314267471432686
1683119748975720700,10.934720703125,-0.19026660919189453,0.28783172369003296,-0.1774047315120697
1683119748993561300,10.952561279296875,0.16005516052246094,0.04197561740875244,0.22701984643936157
1683119749011392800,10.970392822265625,-0.16073131561279297,0.30350321531295776,-0.10434874147176743
1683119749029236700,10.98823681640625,0.015726089477539062,0.06144225597381592,0.17653100192546844
1683119749047074000,11.006073974609375,0.045719146728515625,-0.0468711256980896,-0.17654381692409515
1683119749064912400,11.023912353515625,0.06523704528808594,-0.11059826612472534,0.215370774269104
1683119749082750200,11.041750244140625,-0.0289764404296875,0.2273629903793335,-0.1909160017967224
1683119749100587500,11.05958740234375,0.07888984680175781,0.01859116554260254,0.14467251300811768
1683119749118427100,11.07742724609375,-0.18990516662597656,0.25765931606292725,-0.049001242965459824
1683119749136265500,11.095265380859376,-0.013981819152832031,0.31169265508651733,0.14458833634853363
1683119749154103600,11.113103515625,0.16214561462402344,-0.09805703163146973,-0.037664636969566345
1683119749171943000,11.13094287109375,-0.16064739227294922,0.20762914419174194,0.11005230247974396
1683119749189768000,11.148767822265626,-0.04274559020996094,-0.21731334924697876,-0.06404248625040054
1683119749207615500,11.166615478515626,-0.03875541687011719,0.05015498399734497,-0.014711705036461353
1683119749225456600,11.18445654296875,-0.13585472106933594,-0.03390997648239136,0.0333549864590168
1683119749243294700,11.202294677734375,-0.28501129150390625,0.3966372609138489,-0.11640863865613937
1683119749261121500,11.22012158203125,-0.07046031951904297,0.23257976770401,0.20354758203029633
1683119749278971400,11.237971435546875,0.1658926010131836,0.18472790718078613,-0.10014684498310089
1683119749296812000,11.25581201171875,-0.11896705627441406,-0.17593473196029663,0.22974427044391632
1683119749314648000,11.27364794921875,0.018012046813964844,0.024328231811523438,-0.19186238944530487
1683119749332486400,11.291486328125,0.19686222076416016,-0.2633926272392273,0.1246466264128685
1683119749350325000,11.309324951171876,-0.26598262786865234,0.1197119951248169,-0.14167754352092743
1683119749368164000,11.3271640625,0.058258056640625,0.40212011337280273,0.11492352932691574
1683119749385990700,11.34499072265625,0.1488809585571289,-0.050139784812927246,-0.04483473673462868
1683119749403839500,11.362839599609375,-0.16613388061523438,0.0783928632736206,0.1456717997789383
1683119749421663200,11.380663330078125,0.050380706787109375,-0.024723827838897705,-0.1971285045146942
1683119749439516700,11.3985166015625,0.23582839965820312,-0.07591134309768677,0.05642419680953026
1683119749457351200,11.41635107421875,-0.1920175552368164,-0.28167855739593506,-0.09985072165727615
1683119749475192800,11.43419287109375,-0.19351959228515625,0.14537584781646729,-0.027181241661310196
1683119749493031200,11.45203125,0.2072620391845703,0.04203695058822632,0.1798861175775528
1683119749510869800,11.469869873046875,-0.1594829559326172,0.34859228134155273,-0.12118946760892868
1683119749528711000,11.4877109375,-0.4355592727661133,0.06189990043640137,0.24952547252178192
1683119749546549200,11.50554931640625,0.12393379211425781,0.2824942469596863,-0.15099330246448517
1683119749564384300,11.52338427734375,0.22742366790771484,-0.45354926586151123,0.09718144685029984
1683119749582222600,11.54122265625,-0.18318557739257812,-0.09439599514007568,-0.24369148910045624
1683119749600063700,11.559063720703126,0.12791728973388672,0.07759130001068115,0.0789983868598938
1683119749617897200,11.576897216796874,0.06709098815917969,0.06423884630203247,-0.11891892552375793
1683119749635740700,11.59474072265625,-0.045235633850097656,0.1900167465209961,0.1777600795030594
1683119749653575700,11.61257568359375,0.01709461212158203,0.040670692920684814,-0.10448568314313889
1683119749671410700,11.63041064453125,0.027582168579101562,0.02320021390914917,0.1461338996887207
1683119749689239000,11.648239013671875,-0.06924247741699219,-0.022021055221557617,-0.13390882313251495
1683119749707088100,11.666088134765625,0.2344074249267578,-0.00937795639038086,-0.00426311744377017
1683119749724928800,11.6839287109375,-0.04255104064941406,-0.23281455039978027,-0.041898518800735474
1683119749742761500,11.701761474609375,-0.3450279235839844,0.26758915185928345,-0.12165410816669464
1683119749760605700,11.719605712890624,0.11274242401123047,0.21630555391311646,0.14414536952972412
1683119749778443800,11.73744384765625,0.01661968231201172,0.2713623642921448,-0.10429456830024719
1683119749796282000,11.7552822265625,-0.4473543167114258,-0.2706231474876404,0.19674274325370789
1683119749814120700,11.77312060546875,-0.19678306579589844,0.23378390073776245,-0.2625808119773865
1683119749831958500,11.79095849609375,0.3614034652709961,-0.33157479763031006,0.13605540990829468
1683119749849785300,11.808785400390626,-0.12572383880615234,0.011772871017456055,-0.272712379693985
1683119749867632400,11.82663232421875,0.07225799560546875,0.2699217200279236,0.19885854423046112
1683119749885462300,11.844462158203125,0.058112144470214844,0.11270469427108765,-0.07092193514108658
1683119749903312000,11.862311767578126,0.03345966339111328,0.13006490468978882,0.2015734612941742
1683119749921148400,11.8801484375,-0.05600166320800781,0.11275911331176758,-0.05001085624098778
1683119749938989600,11.897989501953125,-0.1456308364868164,0.030910491943359375,0.2408641278743744
1683119749956822000,11.915822021484376,-0.13135337829589844,-0.16119009256362915,-0.18640024960041046
1683119749974665000,11.9336650390625,0.026373863220214844,-0.07175642251968384,0.042036596685647964
1683119749992491000,11.951490966796875,0.008200645446777344,0.012530803680419922,-0.06321754306554794
1683119750010343000,11.969343017578124,-0.08735942840576172,0.28842246532440186,-0.09549054503440857
1683119750028184800,11.987184814453125,-0.2066354751586914,-0.06471425294876099,0.14143037796020508
1683119750046018000,12.00501806640625,-0.012774467468261719,0.34743958711624146,-0.12334268540143967
1683119750063850800,12.022850830078125,0.026551246643066406,-0.3815004825592041,0.14937792718410492
1683119750081697000,12.040697021484375,-0.37779808044433594,-0.011776447296142578,-0.16999204456806183
1683119750099536100,12.0585361328125,-0.09547805786132812,0.025902926921844482,0.10635863244533539
1683119750117371100,12.07637109375,0.07668304443359375,0.09185218811035156,-0.1786111742258072
1683119750135212800,12.094212890625,0.08297538757324219,-0.13736027479171753,0.183091402053833
1683119750153046800,12.112046875,-0.049141883850097656,0.26352250576019287,-0.09904228895902634
1683119750170886400,12.129886474609375,0.09237194061279297,0.13007795810699463,0.24769099056720734
1683119750188724700,12.147724853515625,-0.03950977325439453,-0.2616080045700073,-0.18501566350460052
1683119750206565600,12.165565673828125,-0.0774545669555664,-0.04805797338485718,0.11683326959609985
1683119750224401200,12.183401123046876,-0.10730648040771484,-0.061004698276519775,-0.1550184190273285
1683119750242239200,12.2012392578125,0.010222434997558594,0.1780967116355896,0.04413825646042824
1683119750260078800,12.219078857421875,-0.03831768035888672,0.039211153984069824,0.0016298969276249409
1683119750277916000,12.236916015625,-0.02526092529296875,0.2688834071159363,-0.048901718109846115
1683119750295756800,12.2547568359375,-0.05789470672607422,-0.14301645755767822,0.10745420306921005
1683119750313581000,12.2725810546875,-0.012281417846679688,0.24546962976455688,-0.08870689570903778
1683119750331420700,12.290420654296875,0.10268688201904297,-0.35690242052078247,0.034570954740047455
1683119750349265000,12.308264892578125,-0.11569023132324219,-0.10930722951889038,-0.20206870138645172
1683119750367096300,12.326096435546875,-0.09570598602294922,-0.13949084281921387,0.10760419070720673
1683119750384943900,12.34394384765625,-0.04926109313964844,0.4493200182914734,-0.1548827588558197
1683119750402783700,12.36178369140625,0.16454410552978516,0.2818453907966614,0.3226183354854584
1683119750420610600,12.379610595703125,-0.27194690704345703,-0.030743658542633057,-0.10735131800174713
1683119750438460400,12.39746044921875,-0.21426773071289062,0.035922884941101074,0.20666904747486115
1683119750456286000,12.415285888671875,0.13834476470947266,-0.14262360334396362,-0.15646378695964813
1683119750474137000,12.43313720703125,0.18042659759521484,-0.04540365934371948,0.059358563274145126
1683119750491967200,12.45096728515625,-0.2467041015625,0.16184788942337036,-0.06125020980834961
1683119750509810000,12.468809814453126,0.09646987915039062,0.12816911935806274,0.042698077857494354
1683119750527650000,12.486650146484376,0.055901527404785156,0.031555235385894775,0.05051574110984802
1683119750545490400,12.504490478515624,-0.14876556396484375,0.3736439645290375,0.08191759139299393
1683119750563332000,12.52233203125,0.12898921966552734,-0.06353449821472168,0.0628814548254013
1683119750581172000,12.540171875,-0.08146381378173828,0.03865784406661987,-0.10106927156448364
1683119750599005200,12.558005126953125,-0.060975074768066406,-0.32685017585754395,0.052825793623924255
1683119750616845300,12.57584521484375,-0.04617595672607422,0.08982044458389282,-0.25169336795806885
1683119750634685000,12.593684814453125,0.29421234130859375,0.03695964813232422,0.15459337830543518
1683119750652520000,12.61152001953125,-0.037837982177734375,0.41311684250831604,-0.15130124986171722
1683119750670358500,12.629358642578126,-0.0738973617553711,0.0859062671661377,0.30037230253219604
1683119750688197600,12.64719775390625,-0.12298202514648438,0.005724668502807617,-0.11164849251508713
1683119750706035200,12.66503515625,-0.09220695495605469,0.01708817481994629,0.24219906330108643
1683119750723873300,12.682873291015625,-0.02069091796875,-0.14451652765274048,-0.195998415350914
1683119750741711400,12.70071142578125,-0.018321990966796875,0.03376936912536621,0.18715746700763702
1683119750759549000,12.718548828125,-0.1978921890258789,0.11103624105453491,-0.07437486946582794
1683119750777388000,12.736387939453126,0.20463085174560547,0.2668076753616333,0.02790127508342266
1683119750795226000,12.75422607421875,-0.07114315032958984,0.14082902669906616,0.08979372680187225
1683119750813064400,12.772064453125,-0.009743690490722656,0.35563158988952637,0.012465202249586582
1683119750830902000,12.789902099609375,0.11190414428710938,-0.48920488357543945,0.003962238319218159
1683119750848741400,12.807741455078125,-0.3519134521484375,0.08380889892578125,-0.0565611906349659
1683119750866582800,12.825582763671875,-0.11167621612548828,-0.14706051349639893,0.04748362675309181
1683119750884417800,12.843417724609376,0.09295940399169922,0.3323233723640442,-0.280966579914093
1683119750902257200,12.861257080078126,0.04619884490966797,0.14829021692276,0.21485938131809235
1683119750920087800,12.879087890625,-0.22228622436523438,0.04880243539810181,-0.1448969691991806
1683119750937932500,12.8969326171875,0.07128334045410156,0.15838205814361572,0.2674236297607422
1683119750955758000,12.914758056640625,0.08818435668945312,0.12285292148590088,-0.11527174711227417
1683119750973609500,12.932609375,-0.06954097747802734,-0.1683739423751831,0.1763700395822525
1683119750991433700,12.950433837890625,-0.33624267578125,-0.1436995267868042,-0.1959923803806305
1683119751009285000,12.96828515625,-0.007651329040527344,0.20372873544692993,0.1302349865436554
1683119751027121000,12.986120849609375,0.08951377868652344,0.23709261417388916,-0.06808926910161972
1683119751044962300,13.00396240234375,-0.1477956771850586,0.16153472661972046,0.0701257511973381
1683119751062803000,13.021802978515625,0.038074493408203125,0.014281511306762695,0.04036761447787285
1683119751080638000,13.039637939453126,-0.005379676818847656,-0.04640263319015503,-0.0061012753285467625
1683119751098480400,13.05748046875,-0.025310516357421875,-0.4198906421661377,-0.05576349049806595
1683119751116315400,13.0753154296875,-0.2040090560913086,0.28465092182159424,-0.017917687073349953
1683119751134156800,13.09315673828125,0.10552692413330078,0.045449793338775635,0.07846884429454803
1683119751151986200,13.110986083984375,-0.05290794372558594,0.1053207516670227,-0.18871846795082092
1683119751169835000,13.1288349609375,-0.2147359848022461,0.23392504453659058,0.3295170068740845
1683119751187665700,13.146665771484376,0.1999073028564453,0.17201566696166992,-0.14809942245483398
1683119751205506800,13.1645068359375,-0.0038423538208007812,-0.19709020853042603,0.22883036732673645
1683119751223345400,13.182345458984376,-0.12459087371826172,0.24920320510864258,-0.2772594094276428
1683119751241183500,13.20018359375,0.20023632049560547,-0.3892674446105957,0.09503118693828583
1683119751259017500,13.218017578125,-0.3304414749145508,-0.09561043977737427,-0.1540733277797699
1683119751276856300,13.235856201171876,0.034850120544433594,0.49858558177948,0.14049629867076874
1683119751294698200,13.2536982421875,0.36424732208251953,0.11573290824890137,-0.01984117180109024
1683119751312536600,13.27153662109375,0.16618728637695312,-0.12716394662857056,0.09755422174930573
1683119751330375200,13.289375244140626,-0.10119819641113281,-0.06736218929290771,-0.1449764370918274
1683119751348215300,13.30721533203125,0.22023582458496094,-0.1260325312614441,-0.028441771864891052
1683119751366051600,13.325051513671875,-0.0633249282836914,-0.2231994867324829,-0.04924415796995163
1683119751383890000,13.342889892578125,-0.17246341705322266,0.28116828203201294,-0.08694328367710114
1683119751401721900,13.360721923828125,0.2615070343017578,-0.04495972394943237,0.18572191894054413
1683119751419558400,13.378558349609374,-0.04951190948486328,0.19489336013793945,-0.13395875692367554
1683119751437405000,13.396405029296876,-0.27060985565185547,0.12113261222839355,0.3075357973575592
1683119751455240200,13.414240234375,0.1922006607055664,0.26839733123779297,-0.1857662796974182
1683119751473074400,13.432074462890625,0.20257091522216797,-0.3635961413383484,0.1739237755537033
1683119751490916900,13.449916748046874,-0.2799949645996094,-0.1862742304801941,-0.2208651304244995
1683119751508757800,13.4677578125,-0.0019435882568359375,0.10284024477005005,0.10147779434919357
1683119751526599000,13.485598876953125,0.021904945373535156,0.06958979368209839,-0.13850180804729462
1683119751544434400,13.503434326171876,-0.0752105712890625,0.15705347061157227,0.13615399599075317
1683119751562273300,13.521273193359375,0.0711202621459961,0.03579974174499512,-0.1053992509841919
1683119751580111000,13.539111083984375,0.027497291564941406,0.07522755861282349,0.1464599221944809
1683119751597952500,13.556952392578125,-0.13515472412109375,0.03994554281234741,-0.05798196420073509
1683119751615789300,13.574789306640625,0.0047607421875,0.10183990001678467,0.031397268176078796
1683119751633625900,13.5926259765625,0.047077178955078125,-0.2896236181259155,-0.049662861973047256
1683119751651460400,13.61046044921875,-0.22076034545898438,0.4195232391357422,-0.09239663183689117
1683119751669290200,13.628290283203125,0.0956735610961914,0.16222554445266724,0.22231058776378632
1683119751687140900,13.646140869140625,0.15336322784423828,0.33589619398117065,-0.09625495225191116
1683119751704979000,13.66397900390625,-0.07946586608886719,-0.04600214958190918,0.20996084809303284
1683119751722811100,13.68181103515625,-0.08518314361572266,0.05530017614364624,-0.17259003221988678
1683119751740655600,13.699655517578124,0.19452953338623047,-0.22452759742736816,0.11983703821897507
1683119751758493700,13.71749365234375,-0.02490234375,0.13785392045974731,-0.23589903116226196
1683119751776331800,13.735331787109375,0.0027751922607421875,0.14850616455078125,0.19187290966510773
1683119751794165800,13.753165771484374,-0.013433456420898438,0.18731576204299927,-0.04938054829835892
1683119751812009000,13.771009033203125,0.040253639221191406,0.2785431742668152,0.19952595233917236
1683119751829834800,13.788834716796876,0.08316516876220703,-0.23223161697387695,-0.0859244093298912
1683119751847682000,13.80668212890625,-0.1854419708251953,0.1830214262008667,0.04985992982983589
1683119751865523500,13.8245234375,-0.07538223266601562,-0.20099693536758423,-0.11928460747003555
1683119751883361500,13.842361572265625,-0.24280261993408203,-0.025959134101867676,-0.00036059459671378136
1683119751901200400,13.860200439453125,-0.06520652770996094,0.2148151397705078,0.10890693217515945
1683119751919035000,13.878034912109374,-0.034544944763183594,0.3489009141921997,-0.13990767300128937
1683119751936865300,13.895865234375,-0.17236614227294922,-0.07838773727416992,0.19777841866016388
1683119751954708700,13.913708740234375,0.048018455505371094,0.30956393480300903,-0.0898381918668747
1683119751972540700,13.931540771484375,0.2945976257324219,-0.4023439884185791,0.10270038992166519
1683119751990392800,13.949392822265626,-0.07948780059814453,0.141909658908844,-0.21407820284366608
1683119752008227000,13.96722705078125,-0.1399984359741211,-0.20273298025131226,0.1950492262840271
1683119752026066700,13.985066650390625,-0.08272838592529297,0.18123525381088257,-0.26042482256889343
1683119752043902500,14.00290234375,0.2334909439086914,0.1653619408607483,0.1906963586807251
1683119752061744400,14.020744384765624,-0.03304862976074219,-0.1084144115447998,-0.057146310806274414
1683119752079585800,14.038585693359375,-0.13195037841796875,0.3617541193962097,0.10066388547420502
1683119752097421000,14.056421142578126,0.2281494140625,-0.2446994185447693,-0.16864530742168427
1683119752115254800,14.0742548828125,-0.05731391906738281,-0.1696339249610901,0.0032811006531119347
1683119752133097500,14.092097412109375,-0.27622032165527344,0.0089796781539917,-0.07044418901205063
1683119752150936300,14.109936279296875,0.04970073699951172,0.1540219783782959,-0.011558973230421543
1683119752168774100,14.127774169921874,0.11610889434814453,0.08979862928390503,0.10493233054876328
1683119752186614000,14.145614013671874,-0.26122570037841797,0.36712950468063354,-0.026526834815740585
1683119752204450800,14.163450927734376,-0.033692359924316406,-0.09363186359405518,0.16806215047836304
1683119752222289000,14.181288818359375,0.13227367401123047,0.17498934268951416,-0.1639728844165802
1683119752240126200,14.199126220703125,0.13325119018554688,-0.30724823474884033,0.03073602169752121
1683119752257965600,14.216965576171875,-0.0972127914428711,-0.06252133846282959,-0.2139553427696228
1683119752275805400,14.234805419921875,-0.1189737319946289,0.006435215473175049,0.18003901839256287
1683119752293642200,14.252642333984374,-0.06471920013427734,0.3002609610557556,-0.11901755630970001
1683119752311476200,14.270476318359375,0.1260395050048828,0.21488922834396362,0.2403908222913742
1683119752329306600,14.288306640625,0.034915924072265625,0.11726975440979004,-0.09332248568534851
1683119752347145500,14.3061455078125,-0.010100364685058594,-0.12278127670288086,0.178720161318779
1683119752364983800,14.32398388671875,-0.03190040588378906,-0.21244186162948608,-0.1908462792634964
1683119752382836200,14.341836181640625,0.23619556427001953,0.02947145700454712,0.023053079843521118
1683119752400671700,14.359671630859374,-0.08033275604248047,-0.1681693196296692,-0.06450862437486649
1683119752418510000,14.377510009765626,-0.08189010620117188,0.33622902631759644,-0.12880459427833557
1683119752436336600,14.395336669921875,0.11002445220947266,-0.11046862602233887,0.1619003862142563
1683119752454186800,14.413186767578125,-0.07605552673339844,0.15619218349456787,-0.08237199485301971
1683119752472021800,14.431021728515624,-0.0029191970825195312,-0.13546431064605713,0.09474312514066696
1683119752489850000,14.44885009765625,-0.0801229476928711,0.006132781505584717,-0.1706678867340088
1683119752507698400,14.466698486328125,0.036400794982910156,-0.29592370986938477,0.10410218685865402
1683119752525543200,14.484543212890625,-0.16281700134277344,0.06929737329483032,-0.26994192600250244
1683119752543378000,14.5023779296875,0.10723304748535156,0.015391409397125244,0.12943361699581146
1683119752561215500,14.520215576171875,-0.027927398681640625,0.31438198685646057,-0.19419622421264648
1683119752579037400,14.538037353515625,0.03931713104248047,0.10970884561538696,0.25452902913093567
1683119752596890000,14.55589013671875,-0.17286014556884766,-0.06688672304153442,-0.12438109517097473
1683119752614731000,14.57373095703125,-0.19692420959472656,-0.014052391052246094,0.21400609612464905
1683119752632569000,14.591569091796876,-0.03295421600341797,-0.18789631128311157,-0.2072288691997528
1683119752650407700,14.60940771484375,-0.026389122009277344,0.21643048524856567,0.17195084691047668
1683119752668248800,14.627248779296876,-0.08667278289794922,0.10526502132415771,-0.004048531875014305
1683119752686084000,14.645083984375,-0.10832977294921875,0.24184268712997437,-0.06718966364860535
1683119752703922700,14.662922607421875,-0.0778045654296875,0.018807053565979004,0.16406241059303284
1683119752721760500,14.680760498046874,0.08955955505371094,0.15972912311553955,-0.08600407838821411
1683119752739599000,14.69859912109375,-0.0046939849853515625,-0.3568069338798523,0.13795876502990723
1683119752757437200,14.716437255859375,-0.21361446380615234,0.12697124481201172,-0.22631743550300598
1683119752775267600,14.734267578125,-0.01850605010986328,-0.27654993534088135,0.14480604231357574
1683119752793113600,14.752113525390625,-0.1934194564819336,0.2142619490623474,-0.15237535536289215
1683119752810952400,14.769952392578125,0.18393802642822266,0.3691192865371704,0.21818503737449646
1683119752828790500,14.78779052734375,0.08415603637695312,0.1836835741996765,-0.13521337509155273
1683119752846633700,14.8056337890625,-0.19098281860351562,0.033489763736724854,0.2864057123661041
1683119752864467000,14.823467041015626,-0.18205738067626953,-0.13585686683654785,-0.1622903048992157
1683119752882299100,14.841299072265626,0.18710899353027344,-0.1033858060836792,0.12203794717788696
1683119752900143400,14.859143310546875,-0.14837646484375,-0.06767117977142334,-0.1850282996892929
1683119752917980200,14.876980224609374,-0.007218360900878906,0.2932833433151245,0.11608787626028061
1683119752935819500,14.894819580078124,0.09565353393554688,0.10340416431427002,0.04194633662700653
1683119752953655300,14.9126552734375,0.0021085739135742188,0.23786556720733643,0.005198141559958458
1683119752971489000,14.930489013671876,-0.15639972686767578,-0.055372536182403564,0.0998784750699997
1683119752989320700,14.94832080078125,0.09384441375732422,0.2182409167289734,-0.09588434547185898
1683119753007173000,14.966173095703125,0.20638751983642578,-0.5327178835868835,0.03676646575331688
1683119753025011200,14.98401123046875,-0.2701253890991211,0.08744460344314575,-0.1614922285079956
1683119753042849300,15.001849365234374,0.09782695770263672,0.016833007335662842,0.14107617735862732
1683119753060688000,15.01968798828125,-0.01021575927734375,0.24374890327453613,-0.10621228069067001
1683119753078527200,15.03752734375,-0.09683799743652344,0.4357754588127136,0.26716744899749756
1683119753096364500,15.055364501953125,0.04872322082519531,-0.16377830505371094,-0.10486885905265808
1683119753114200000,15.073199951171874,-0.2066497802734375,-0.1094813346862793,0.26378747820854187
1683119753132035000,15.09103515625,-0.05180072784423828,0.053669631481170654,-0.2086711972951889
1683119753149867300,15.1088671875,0.3634481430053711,-0.22161650657653809,0.08979085832834244
1683119753167714300,15.12671435546875,-0.206512451171875,0.18638664484024048,-0.03474849835038185
1683119753185555700,15.1445556640625,0.1414327621459961,0.2435573935508728,0.018866028636693954
1683119753203389400,15.162389404296874,0.19652175903320312,-0.06458288431167603,0.10753191262483597
1683119753221232600,15.180232666015625,-0.18908977508544922,0.42124223709106445,0.052323393523693085
1683119753239052800,15.198052734375,0.06654739379882812,-0.12044751644134521,0.06350118666887283
1683119753256906800,15.21590673828125,-0.06036090850830078,-0.024828732013702393,-0.10530272126197815
1683119753274747000,15.233746826171876,-0.10795974731445312,-0.17360931634902954,0.09264933317899704
1683119753292583400,15.25158349609375,-0.04058074951171875,0.1421683430671692,-0.257096529006958
1683119753310429000,15.269428955078125,0.38823986053466797,0.04137927293777466,0.16442199051380157
1683119753328263200,15.28726318359375,-0.025185585021972656,0.39440593123435974,-0.09064195305109024
1683119753346100000,15.305099853515625,-0.0075836181640625,0.10162752866744995,0.30982059240341187
1683119753363938600,15.3229384765625,0.12572002410888672,-0.2591707110404968,-0.1208033338189125
1683119753381777200,15.340777099609374,-0.2014751434326172,-0.02806943655014038,0.19169718027114868
1683119753399616000,15.358615966796876,-0.10126399993896484,-0.0176314115524292,-0.23162828385829926
1683119753417450200,15.3764501953125,-0.039139747619628906,0.058519840240478516,0.1434384286403656
1683119753435290600,15.39429052734375,-0.2569580078125,0.10446673631668091,-0.10882973670959473
1683119753453123800,15.412123779296875,-0.045256614685058594,0.22422152757644653,0.00386147596873343
1683119753470968000,15.429968017578124,0.22478389739990234,0.10071486234664917,0.12551067769527435
1683119753488806100,15.44780615234375,-0.020125389099121094,0.24185293912887573,-0.04333003610372543
1683119753506645500,15.4656455078125,-0.23943805694580078,-0.6751843690872192,-0.0036240676417946815
1683119753524478000,15.48347802734375,-0.37653636932373047,0.15914887189865112,-0.1942777782678604
1683119753542321000,15.50132080078125,-0.016134262084960938,-0.10726529359817505,0.1042691320180893
1683119753560159200,15.5191591796875,-0.2933826446533203,0.048418402671813965,-0.21993863582611084
1683119753577997600,15.53699755859375,0.052371978759765625,0.36740702390670776,0.11156027019023895
1683119753595839000,15.5548388671875,0.14652729034423828,0.03291219472885132,-0.15238673985004425
1683119753613671400,15.57267138671875,-0.04449176788330078,0.03165936470031738,0.2940952777862549
1683119753631508000,15.590508056640624,-0.06496524810791016,0.1223076581954956,-0.17189152538776398
1683119753649352400,15.6083525390625,0.2520608901977539,-0.36061739921569824,0.11546848714351654
1683119753667185700,15.626185546875,-0.42110729217529297,-0.013587594032287598,-0.16271689534187317
1683119753685027000,15.644027099609374,-0.09693717956542969,0.3334733247756958,0.05288934335112572
1683119753702865200,15.661865234375,0.1915140151977539,0.005388796329498291,-0.015316187404096127
1683119753720701700,15.67970166015625,-0.17513751983642578,0.23236191272735596,0.02345447987318039
1683119753738539800,15.697539794921875,0.13773250579833984,-0.08380657434463501,-0.012895490974187851
1683119753756380200,15.715380126953125,0.17746925354003906,-0.04832625389099121,-0.002680690260604024
1683119753774206500,15.73320654296875,0.03550148010253906,-0.4421992897987366,0.00011936426017200574
1683119753792062700,15.751062744140626,-0.23232364654541016,0.1508723497390747,-0.2466454654932022
1683119753809875000,15.768875,0.13710880279541016,-0.14199548959732056,0.14507469534873962
1683119753827730400,15.78673046875,-0.3174161911010742,0.13774287700653076,-0.18028764426708221
1683119753845574400,15.804574462890624,-0.1594257354736328,0.014442145824432373,0.23526282608509064
1683119753863409700,15.82240966796875,0.2609367370605469,0.16601920127868652,-0.141654834151268
1683119753881251000,15.8402509765625,0.1340036392211914,-0.1866469383239746,0.23524563014507294
1683119753899073800,15.85807373046875,-0.2068920135498047,-0.30867016315460205,-0.2404758632183075
1683119753916926000,15.875926025390624,0.18354511260986328,-0.06496065855026245,0.06819125264883041
1683119753934762800,15.8937626953125,-0.2027597427368164,0.12460917234420776,-0.11879508942365646
1683119753952601300,15.911601318359375,-0.1593151092529297,0.14901775121688843,0.09721551090478897
1683119753970440400,15.9294404296875,0.1030282974243164,0.01967686414718628,-0.0734904333949089
1683119753988277800,15.94727783203125,0.031003952026367188,0.058503687381744385,0.054579202085733414
1683119754006115600,15.965115478515624,0.08802223205566406,-0.2266453504562378,-0.06744810938835144
1683119754023954200,15.9829541015625,0.0716257095336914,0.019822239875793457,0.013658838346600533
1683119754041793500,16.00079345703125,0.10986137390136719,-0.3154376745223999,0.0352604053914547
1683119754059630800,16.018630859375,-0.11423873901367188,0.33999544382095337,-0.10091356933116913
1683119754077468700,16.03646875,0.16925811767578125,0.07092392444610596,0.2348036766052246
1683119754095302400,16.054302490234374,-0.09935379028320312,0.14310944080352783,-0.11483053863048553
1683119754113130800,16.072130859375,-0.1627492904663086,0.18236255645751953,0.281850129365921
1683119754130984000,16.08998388671875,0.09163761138916016,-0.05797308683395386,-0.1650846153497696
1683119754148819000,16.10781884765625,0.24919986724853516,-0.3099867105484009,0.2224409133195877
1683119754166659600,16.12565966796875,-0.03133201599121094,0.1138995885848999,-0.23261916637420654
1683119754184498400,16.14349853515625,0.0977315902709961,-0.07221752405166626,0.1677624136209488
1683119754202336500,16.16133642578125,-0.1494903564453125,0.2539491653442383,-0.015256895683705807
1683119754220173800,16.179173828125,0.11503982543945312,0.37069961428642273,0.0669427216053009
1683119754238012200,16.19701220703125,0.05235767364501953,-0.5389262437820435,-0.03360985964536667
1683119754255854600,16.2148544921875,-0.16714763641357422,0.2990304231643677,0.09421870112419128
1683119754273689900,16.23268994140625,0.12979793548583984,-0.3626287579536438,-0.06943027675151825
1683119754291525000,16.250525146484375,-0.06954765319824219,-0.08346593379974365,-0.048149678856134415
1683119754309354200,16.268354248046876,-0.24136924743652344,-0.013731956481933594,0.034980468451976776
1683119754327204400,16.286204345703126,-0.1413707733154297,0.25462281703948975,-0.20017826557159424
1683119754345030700,16.30403076171875,-0.03152275085449219,0.1258952021598816,0.23310677707195282
1683119754362870300,16.321870361328124,-0.04430675506591797,-0.023165225982666016,-0.11632167547941208
1683119754380707600,16.33970751953125,-0.0588531494140625,0.007870137691497803,0.262334406375885
1683119754398546200,16.357546142578126,0.047112464904785156,-0.058500051498413086,-0.21509365737438202
1683119754416396000,16.37539599609375,0.10960197448730469,-0.39535945653915405,0.07833006232976913
1683119754434234000,16.393234130859376,-0.13521575927734375,0.21931642293930054,-0.0647377148270607
1683119754452072000,16.411072021484376,0.13164138793945312,0.247938334941864,0.11639232933521271
1683119754469899000,16.42889892578125,0.06267166137695312,-0.02961784601211548,-0.08142353594303131
1683119754487749600,16.44674951171875,-0.23797321319580078,0.31722790002822876,0.16646873950958252
1683119754505589800,16.46458984375,0.15081787109375,-0.1250743269920349,-0.08334840089082718
1683119754523425000,16.482425048828127,0.011156082153320312,0.14055132865905762,0.07323943823575974
1683119754541250800,16.500250732421875,-0.08451175689697266,-0.3517570495605469,-0.04526286572217941
1683119754559095600,16.518095458984376,-0.1959066390991211,0.044994056224823,-0.012975546531379223
1683119754576928300,16.53592822265625,0.04893684387207031,0.06512701511383057,0.1334030032157898
1683119754594778400,16.5537783203125,-0.1281261444091797,0.32936370372772217,-0.17323817312717438
1683119754612604700,16.571604736328126,-0.3613595962524414,0.14791154861450195,0.314191073179245
1683119754630455000,16.589455078125,0.1369638442993164,0.3013564646244049,-0.1639355570077896
1683119754648293600,16.607293701171876,0.1748676300048828,-0.371276319026947,0.23796887695789337
1683119754666131200,16.625131103515624,-0.06183624267578125,-0.16596877574920654,-0.23097430169582367
1683119754683972400,16.642972412109376,0.14731693267822266,0.02518230676651001,0.06200283020734787
1683119754701807600,16.6608076171875,0.0009603500366210938,0.025882840156555176,-0.12029843032360077
1683119754719646200,16.678646240234375,-0.08759403228759766,0.08022809028625488,0.1370808184146881
1683119754737484000,16.696484130859375,0.09850120544433594,0.038294851779937744,-0.11346005648374557
1683119754755322600,16.714322509765626,0.18050003051757812,0.06641840934753418,0.11051759868860245
1683119754773161000,16.732160888671874,-0.03494548797607422,0.0038886070251464844,-0.1188814789056778
1683119754790999300,16.749999267578126,0.061038970947265625,0.014285504817962646,0.017885327339172363
1683119754808837000,16.767837158203125,0.031836509704589844,-0.3847580552101135,-0.05889155715703964
1683119754826672400,16.78567236328125,-0.30097484588623047,0.15300005674362183,-0.1751057654619217
1683119754844514000,16.80351416015625,0.22173786163330078,0.27370506525039673,0.12397018074989319
1683119754862346000,16.821345947265623,0.11324214935302734,0.24410444498062134,-0.12580935657024384
1683119754880190200,16.839190185546876,-0.1742696762084961,-0.23238593339920044,0.24049976468086243
1683119754898029600,16.857029541015624,-0.10536956787109375,0.2054588794708252,-0.255759060382843
1683119754915870000,16.874869873046876,0.4167327880859375,-0.368208646774292,0.12402118742465973
1683119754933705500,16.89270556640625,-0.1544971466064453,-0.0352439284324646,-0.26995208859443665
1683119754951540200,16.910540283203126,-0.09446334838867188,0.10191571712493896,0.14740878343582153
1683119754969382000,16.9283818359375,0.0285797119140625,0.03441256284713745,-0.13325056433677673
1683119754987216600,16.946216552734374,0.03751373291015625,0.031497180461883545,0.1445545256137848
1683119755005046000,16.9640458984375,0.08510494232177734,0.11153608560562134,-0.04665957763791084
1683119755022884600,16.981884521484375,-0.11689949035644531,0.027955353260040283,0.16276372969150543
1683119755040731000,16.99973095703125,-0.1249685287475586,-0.2758851647377014,-0.1652868241071701
1683119755058573800,17.01757373046875,-0.0206146240234375,0.25496578216552734,0.09214072674512863
1683119755076410600,17.03541064453125,0.18056964874267578,0.001720726490020752,-0.005048864521086216
1683119755094249500,17.05324951171875,-0.20118427276611328,0.24383026361465454,-0.16111139953136444
1683119755112090400,17.07109033203125,-0.24138545989990234,0.017837464809417725,0.21637564897537231
1683119755129915400,17.088915283203125,0.20219135284423828,0.3329258859157562,-0.13929542899131775
1683119755147767000,17.10676708984375,0.16139984130859375,-0.2662453055381775,0.15127213299274445
1683119755165601800,17.124601806640626,-0.31767845153808594,-0.09145432710647583,-0.16535717248916626
1683119755183438300,17.142438232421874,-0.061141014099121094,-0.06734180450439453,0.08814878761768341
1683119755201278700,17.16027880859375,0.03503131866455078,0.14978867769241333,-0.1858069896697998
1683119755219106600,17.1781064453125,-0.027189254760742188,-0.2254433035850525,0.137364000082016
1683119755236952300,17.195952392578125,-0.061514854431152344,0.24727201461791992,-0.08252796530723572
1683119755254793500,17.21379345703125,0.0990915298461914,0.1476239562034607,0.19844643771648407
1683119755272631600,17.231631591796877,-0.0031871795654296875,-0.21163702011108398,-0.16232037544250488
1683119755290470100,17.24947021484375,-0.14971446990966797,0.13508832454681396,0.15193280577659607
1683119755308308200,17.26730810546875,0.030895233154296875,-0.05141955614089966,-0.07891547679901123
1683119755326146600,17.285146484375,-0.12283515930175781,0.0671117901802063,-0.03625525161623955
1683119755343985000,17.30298486328125,-0.21784591674804688,0.004631698131561279,0.05857080593705177
1683119755361822700,17.32082275390625,-0.0614013671875,0.36629462242126465,-0.15202057361602783
1683119755379662600,17.33866259765625,-0.08262825012207031,-0.03320598602294922,0.16739001870155334
1683119755397499400,17.35649951171875,-0.124420166015625,0.03957676887512207,-0.09677787870168686
1683119755415338000,17.374337890625,0.19030189514160156,-0.3436281085014343,-0.059372060000896454
1683119755433179400,17.392179443359375,-0.011655807495117188,0.005747377872467041,-0.21347525715827942
1683119755451017500,17.410017578125,-0.2624778747558594,-0.16454178094863892,0.17026492953300476
1683119755468836000,17.427836181640625,-0.12954235076904297,0.357962965965271,-0.12752242386341095
1683119755486690800,17.44569091796875,0.3509225845336914,0.227505624294281,0.25888898968696594
1683119755504519700,17.463519775390626,-0.005562782287597656,-0.042371928691864014,-0.07921745628118515
1683119755522367000,17.481366943359376,-0.16268634796142578,0.11975347995758057,0.16982486844062805
1683119755540199000,17.499198974609374,0.1822042465209961,-0.2314280867576599,-0.1958305537700653
1683119755558044400,17.51704443359375,0.13619041442871094,-0.12867498397827148,0.0038341956678777933
1683119755575882500,17.534882568359375,-0.32713890075683594,0.07089465856552124,-0.09025193750858307
1683119755593720300,17.55272021484375,0.032172203063964844,0.06124192476272583,-0.05236360803246498
1683119755611549200,17.570549072265624,0.13942718505859375,-0.004276156425476074,0.10920418798923492
1683119755629384000,17.588384033203123,-0.12835693359375,0.39618372917175293,-0.02621636725962162
1683119755647236900,17.60623681640625,-0.018648147583007812,-0.3191409707069397,0.12155419588088989
1683119755665073000,17.624072998046874,-0.014284133911132812,0.11547726392745972,-0.17610245943069458
1683119755682911200,17.6419111328125,0.096527099609375,-0.4175505042076111,0.04673941060900688
1683119755700750800,17.659750732421877,-0.17786502838134766,0.14644646644592285,-0.20504461228847504
1683119755718588000,17.677587890625,0.0926961898803711,0.14392048120498657,0.14861051738262177
1683119755736426200,17.69542626953125,-0.019695281982421875,0.14701610803604126,-0.1319725066423416
1683119755754264300,17.713264404296876,0.055359840393066406,0.15541976690292358,0.29491546750068665
1683119755772092200,17.731092041015625,0.05398082733154297,0.09483104944229126,-0.08863473683595657
1683119755789929000,17.748928955078124,-0.02610015869140625,-0.10925275087356567,0.18996241688728333
1683119755807778800,17.76677880859375,0.003981590270996094,-0.33829206228256226,-0.23757770657539368
1683119755825617400,17.784617431640626,0.09167289733886719,0.010636389255523682,0.006003316026180983
1683119755843455500,17.80245556640625,-0.11293983459472656,-0.05604666471481323,-0.08598887920379639
1683119755861293300,17.820293212890626,-0.22565460205078125,-0.06466150283813477,-0.08712364733219147
1683119755879129900,17.8381298828125,0.050530433654785156,0.10450524091720581,0.13687345385551453
1683119755896967200,17.85596728515625,0.15432071685791016,0.13899075984954834,-0.09962978959083557
1683119755914808600,17.87380859375,-0.10399150848388672,-0.4735453128814697,0.038430869579315186
1683119755932646400,17.891646484375,-0.2971944808959961,0.17589020729064941,-0.08984581381082535
1683119755950472200,17.90947216796875,0.14860916137695312,-0.16784197092056274,0.14297553896903992
1683119755968323000,17.927322998046876,-0.1385021209716797,0.14954400062561035,-0.27377063035964966
1683119755986164200,17.945164306640624,0.04733848571777344,0.21494615077972412,0.1786433309316635
1683119756003986000,17.96298583984375,0.040485382080078125,0.11976200342178345,-0.14330792427062988
1683119756021838800,17.9808388671875,0.04924201965332031,0.08365082740783691,0.2967011630535126
1683119756039673300,17.99867333984375,-0.12488079071044922,0.04374563694000244,-0.12847837805747986
1683119756057514000,18.016513916015626,-0.014066696166992188,-0.3178076148033142,0.14189206063747406
1683119756075349800,18.034349853515625,-0.2402658462524414,-0.008679509162902832,-0.17488428950309753
1683119756093191000,18.05219091796875,-0.013303756713867188,0.17752790451049805,0.10402812063694
1683119756111032300,18.0700322265625,-0.0017805099487304688,-0.04981374740600586,-0.05386100709438324
1683119756128865800,18.08786572265625,-0.13100433349609375,0.46722063422203064,-0.004654682707041502
1683119756146705400,18.105705322265624,0.13511943817138672,-0.1439787745475769,0.08500542491674423
1683119756164543700,18.123543701171876,0.1854696273803711,-0.1357702612876892,-0.09604407846927643
1683119756182381800,18.1413818359375,-0.057514190673828125,-0.35323143005371094,0.006286125164479017
1683119756200219100,18.15921923828125,-0.1405038833618164,-0.02582341432571411,-0.1810285598039627
1683119756218059500,18.1770595703125,-0.1984853744506836,-0.18495827913284302,0.10252548009157181
1683119756235899600,18.194899658203123,-0.2334880828857422,0.3363778591156006,-0.21440298855304718
1683119756253735200,18.212735107421874,0.12854766845703125,0.08540940284729004,0.283582866191864
1683119756271566600,18.230566650390625,-0.1209554672241211,0.019200563430786133,-0.15267910063266754
1683119756289412900,18.248412841796874,-0.018613815307617188,-0.011646926403045654,0.2496797889471054
1683119756307249700,18.266249755859373,0.21870136260986328,-0.04188954830169678,-0.23888081312179565
1683119756325087700,18.284087646484377,0.21969223022460938,-0.2706643342971802,0.0770600363612175
1683119756342925800,18.30192578125,-0.3243122100830078,-0.2848498225212097,-0.19598126411437988
1683119756360753000,18.3197529296875,-0.04080677032470703,0.23483902215957642,-0.00736395176500082
1683119756378591500,18.337591552734374,0.12205123901367188,0.17021512985229492,0.019513258710503578
1683119756396432100,18.35543212890625,-0.04381847381591797,0.3752089738845825,0.022897066548466682
1683119756414282000,18.373281982421876,0.026155471801757812,-0.4193271994590759,0.035346128046512604
1683119756432117200,18.3911171875,0.02149486541748047,-0.15984392166137695,-0.04907621443271637
1683119756449943800,18.40894384765625,0.1035757064819336,-0.12897032499313354,0.0668007954955101
1683119756467793700,18.426793701171874,0.059943199157714844,0.15574628114700317,-0.18373613059520721
1683119756485632000,18.444632080078126,0.13610172271728516,-0.1309252381324768,0.14194974303245544
1683119756503470000,18.462469970703125,-0.2555351257324219,0.2779114246368408,-0.04623829573392868
1683119756521307100,18.48030712890625,-0.0793294906616211,0.21391183137893677,0.3041650950908661
1683119756539134000,18.498134033203126,0.1008615493774414,0.07618093490600586,-0.08977264165878296
1683119756556981800,18.515981689453124,-0.062310218811035156,-0.014596819877624512,0.28242233395576477
1683119756574823200,18.5338232421875,0.02065277099609375,-0.34394508600234985,-0.2429027259349823
1683119756592655400,18.5516552734375,0.05391979217529297,-0.25635504722595215,0.15047907829284668
1683119756610488300,18.56948828125,-0.23388671875,0.2284906506538391,-0.16060294210910797
1683119756628338200,18.587338134765623,0.26615238189697266,0.2766711115837097,0.04637930914759636
1683119756646179000,18.605178955078124,-0.1665935516357422,0.027898430824279785,-0.012080216780304909
1683119756664014300,18.623014404296875,-0.04500865936279297,0.21340203285217285,0.032243501394987106
1683119756681852400,18.640852294921874,0.2394266128540039,-0.48983073234558105,-0.04149584099650383
1683119756699690800,18.658690673828126,-0.3292522430419922,-0.09037643671035767,-0.019985537976026535
1683119756717526500,18.676526611328125,-0.01198577880859375,0.03418201208114624,-0.04925354942679405
1683119756735367400,18.694367431640625,0.006450653076171875,0.05767941474914551,-0.21327278017997742
1683119756753205500,18.71220556640625,0.07157039642333984,-0.36710435152053833,0.1761876791715622
1683119756771044000,18.730044189453125,-0.04325580596923828,0.37822669744491577,-0.14925546944141388
1683119756788871400,18.747871337890626,0.12881851196289062,0.10676288604736328,0.29769042134284973
1683119756806720300,18.76572021484375,-0.12664318084716797,-0.035217344760894775,-0.2039976269006729
1683119756824558600,18.78355859375,-0.00040531158447265625,-0.3242042064666748,0.13651984930038452
1683119756842390500,18.801390625,-0.030866622924804688,-0.09580719470977783,-0.1815316379070282
1683119756860235000,18.819235107421875,-0.045436859130859375,0.11042803525924683,0.05448417738080025
1683119756878073900,18.837073974609375,0.011851310729980469,0.34101244807243347,-0.05572330206632614
1683119756895914500,18.85491455078125,0.04127025604248047,0.23926842212677002,0.10114865750074387
1683119756913745200,18.8727451171875,-0.08220481872558594,-0.2443271279335022,-0.06017017364501953
1683119756931590700,18.890590576171874,-0.1432476043701172,0.2665833830833435,0.09261269867420197
1683119756949414400,18.908414306640626,0.17006683349609375,-0.2694719433784485,-0.01872335374355316
1683119756967267000,18.92626708984375,-0.19776344299316406,-0.04917919635772705,-0.10952147841453552
1683119756985102600,18.9441025390625,-0.25165748596191406,-0.031060636043548584,0.11781461536884308
1683119757002940700,18.961940673828124,-0.13689708709716797,0.25865936279296875,-0.20302653312683105
1683119757020778200,18.9797783203125,-0.17136573791503906,0.004233837127685547,0.2663825750350952
1683119757038602500,18.9976025390625,0.04754829406738281,0.44497641921043396,-0.12735134363174438
1683119757056453600,19.01545361328125,0.10315799713134766,-0.21266955137252808,0.27176424860954285
1683119757074282800,19.03328271484375,-0.24158191680908203,-0.24126851558685303,-0.22272850573062897
1683119757092131600,19.051131591796874,0.02910900115966797,-0.08693552017211914,0.06565678119659424
1683119757109971000,19.068970947265626,-0.08832454681396484,0.04836839437484741,-0.13650958240032196
1683119757127811300,19.086811279296874,-0.014341354370117188,0.15550243854522705,0.08682889491319656
1683119757145649400,19.1046494140625,0.043999671936035156,0.13946783542633057,-0.12129051983356476
1683119757163483100,19.122483154296877,0.16182708740234375,0.034486591815948486,0.10570193082094193
1683119757181327000,19.1403271484375,-0.03314781188964844,-0.1443457007408142,-0.11242346465587616
1683119757199148800,19.158148681640625,0.03399085998535156,0.14047348499298096,0.02012844942510128
1683119757216996900,19.175996826171875,0.07952499389648438,-0.37044692039489746,-0.04490657150745392
1683119757234833200,19.193833251953127,-0.09000205993652344,0.19482707977294922,-0.0806475356221199
1683119757252675800,19.21167578125,0.11279106140136719,0.043679893016815186,0.1529146432876587
1683119757270514200,19.22951416015625,0.024484634399414062,0.16121280193328857,-0.14734980463981628
1683119757288352500,19.2473525390625,-0.237274169921875,0.23431557416915894,0.33406180143356323
1683119757306190600,19.265190673828126,0.13007736206054688,0.259618878364563,-0.2088104486465454
1683119757324029000,19.28302880859375,0.2590036392211914,-0.46321290731430054,0.1900484412908554
1683119757341867000,19.300866943359374,-0.17018985748291016,-0.15659034252166748,-0.25986403226852417
1683119757359704300,19.318704345703125,0.011654853820800781,0.10613298416137695,0.09075945615768433
1683119757377544000,19.3365439453125,-0.012498855590820312,0.05058598518371582,-0.1323121339082718
1683119757395381800,19.3543818359375,-0.131256103515625,0.14202475547790527,0.0953381210565567
1683119757413220000,19.37222021484375,0.07484245300292969,-0.026094377040863037,-0.08640113472938538
1683119757431059700,19.390059814453124,0.05823707580566406,0.07760512828826904,0.11627617478370667
1683119757448884700,19.407884765625,-0.04485511779785156,-0.04446369409561157,-0.06017880514264107
1683119757466737700,19.425737548828124,-0.025381088256835938,0.08112245798110962,0.060531191527843475
1683119757484568600,19.443568603515626,0.05326366424560547,-0.30025941133499146,-0.021020367741584778
1683119757502411000,19.461410888671875,-0.16617393493652344,0.43371909856796265,-0.08904754370450974
1683119757520249600,19.47924951171875,0.09877586364746094,0.10716354846954346,0.2076837122440338
1683119757538088400,19.49708837890625,0.1034536361694336,-0.13648784160614014,-0.09592677652835846
1683119757555925200,19.51492529296875,-0.11669921875,0.10124969482421875,0.23746222257614136
1683119757573761000,19.532760986328125,0.023990631103515625,-0.06570810079574585,-0.1980842500925064
1683119757591599400,19.550599365234376,0.15320205688476562,-0.3553430438041687,0.19547365605831146
1683119757609438000,19.56843798828125,-0.1739177703857422,0.4180658161640167,-0.16485805809497833
1683119757627279000,19.586279052734376,0.163665771484375,0.1130220890045166,0.13848429918289185
1683119757645120300,19.604120361328125,-0.031757354736328125,-0.10215318202972412,-0.08498609811067581
1683119757662955300,19.621955322265624,-0.21290302276611328,0.35312557220458984,0.14096763730049133
1683119757680793900,19.6397939453125,0.3155336380004883,-0.29908287525177,-0.052881017327308655
1683119757698632000,19.6576318359375,-0.03258991241455078,0.1999918818473816,0.0812622606754303
1683119757716471800,19.675471923828123,-0.11775684356689453,-0.29198789596557617,-0.11394593864679337
1683119757734308400,19.693308349609374,-0.10293292999267578,-0.07193458080291748,0.03469250351190567
1683119757752147700,19.711147705078126,-0.06261634826660156,0.06942600011825562,0.054545361548662186
1683119757769982500,19.728982421875,-0.19979190826416016,0.34560298919677734,-0.1688019037246704
1683119757787823000,19.746822998046873,-0.3262815475463867,0.13133537769317627,0.2358304262161255
1683119757805661400,19.764661376953125,0.1302013397216797,0.33278998732566833,-0.15047277510166168
1683119757823499800,19.782499755859376,0.21224212646484375,-0.3895394206047058,0.2408035546541214
1683119757841334300,19.800334228515624,-0.17203426361083984,-0.05369526147842407,-0.1887536197900772
1683119757859163400,19.818163330078125,0.11499404907226562,-0.1454266905784607,0.12349211424589157
1683119757877002800,19.836002685546877,-0.08838081359863281,-0.013400077819824219,-0.11717668175697327
1683119757894852400,19.853852294921875,-0.013967514038085938,0.3709118366241455,0.08093393594026566
1683119757912687000,19.87168701171875,0.015619277954101562,-0.14613127708435059,-0.09740979969501495
1683119757930527700,19.88952783203125,-0.2174673080444336,0.10053390264511108,0.11213046312332153
1683119757948367400,19.907367431640626,0.03125572204589844,-0.05084449052810669,-0.17682398855686188
1683119757966205200,19.925205078125,0.2401714324951172,-0.1426575779914856,0.0361478365957737
1683119757984022000,19.94302197265625,-0.2258462905883789,-0.1189119815826416,-0.005125727038830519
1683119758001876000,19.9608759765625,-0.11000633239746094,0.0828741192817688,-0.09419712424278259
1683119758019720400,19.978720458984377,0.15288734436035156,-0.09036970138549805,0.14722003042697906
1683119758037555000,19.996554931640624,-0.3207874298095703,0.4815691113471985,-0.09959767758846283
1683119758055396600,20.014396728515624,-0.09305000305175781,0.1627030372619629,0.20342470705509186
1683119758073232000,20.03223193359375,0.14892959594726562,0.010302901268005371,-0.1882065087556839
1683119758091060200,20.050060302734376,-0.057702064514160156,-0.5762344002723694,0.12169505655765533
1683119758108911000,20.0679111328125,0.06225109100341797,0.0900997519493103,-0.37490957975387573
1683119758126749700,20.085749755859375,0.21390533447265625,-0.1053999662399292,0.18711742758750916
1683119758144589600,20.103589599609375,-0.30655956268310547,-0.08390164375305176,-0.15769314765930176
1683119758162425900,20.12142578125,0.08522605895996094,0.24067848920822144,0.12196896225214005
1683119758180263000,20.139262939453126,0.1672039031982422,-0.07099568843841553,-0.07141423970460892
1683119758198103600,20.157103515625,-0.22980785369873047,0.29009532928466797,0.08019879460334778
1683119758215944000,20.17494384765625,-0.09457778930664062,-0.30961430072784424,-0.1730312556028366
1683119758233779500,20.192779541015625,0.20319461822509766,-0.024018704891204834,0.06249816715717316
1683119758251611400,20.210611328125,-0.023957252502441406,-0.01697450876235962,-0.0657685175538063
1683119758269459000,20.228458984375,-0.09656047821044922,0.20698291063308716,-0.1712968647480011
1683119758287293700,20.246293701171876,0.08251190185546875,0.07914519309997559,0.26437002420425415
1683119758305132000,20.264132080078124,0.018860816955566406,0.3497314751148224,-0.10176465660333633
1683119758322964200,20.281964111328126,-0.0912322998046875,-0.31788307428359985,0.1848948448896408
1683119758340808700,20.29980859375,-0.2689952850341797,0.3058764338493347,-0.23930789530277252
1683119758358646800,20.317646728515626,0.09006404876708984,-0.2861614227294922,0.17562030255794525
1683119758376481000,20.33548095703125,0.056778907775878906,-0.1888209581375122,-0.2865937352180481
1683119758394314500,20.353314453125,0.05880165100097656,0.22320771217346191,0.0723036602139473
1683119758412149800,20.371149658203127,0.05837249755859375,-0.04970318078994751,-0.10847721248865128
1683119758429990000,20.388989990234375,0.027451515197753906,0.2672514319419861,0.18303105235099792
1683119758447841000,20.406841064453126,0.007201194763183594,-0.1504725217819214,-0.11342117935419083
1683119758465676000,20.424676025390625,-0.11101531982421875,-0.20638197660446167,0.12376473844051361
1683119758483514600,20.4425146484375,-0.3058967590332031,0.07416337728500366,-0.05366386100649834
1683119758501349000,20.46034912109375,0.015407562255859375,0.23638761043548584,0.04536254703998566
1683119758519179500,20.478179443359377,0.03162860870361328,-0.08541882038116455,0.020057065412402153
1683119758537026000,20.496026123046875,-0.3501119613647461,0.49064114689826965,-0.021008700132369995
1683119758554867200,20.5138671875,-0.022169113159179688,0.024286329746246338,0.21602699160575867
1683119758572700700,20.53170068359375,0.30095672607421875,-0.04956936836242676,-0.14332237839698792
1683119758590529000,20.549529052734375,0.0031375885009765625,-0.22814631462097168,0.07953354716300964
1683119758608371200,20.56737109375,-0.08324527740478516,0.02198922634124756,-0.20347988605499268
1683119758626220300,20.58522021484375,-0.10693740844726562,-0.12720072269439697,0.21341896057128906
1683119758644040200,20.603040283203125,-0.18412113189697266,0.23354572057724,-0.22011421620845795
1683119758661896700,20.620896728515625,0.20847320556640625,0.24655920267105103,0.24200335144996643
1683119758679738400,20.63873828125,0.11313915252685547,0.07596737146377563,-0.054481420665979385
1683119758697569300,20.6565693359375,-0.1521139144897461,0.15859538316726685,0.1646236926317215
1683119758715414300,20.674414306640625,0.0828704833984375,-0.28106582164764404,-0.17897582054138184
1683119758733252900,20.6922529296875,0.14116382598876953,-0.19151955842971802,0.00560012087225914
1683119758751091200,20.71009130859375,-0.17679786682128906,-0.1190529465675354,-0.10362112522125244
1683119758768924700,20.727924560546874,-0.016326904296875,0.2468249797821045,0.01855541579425335
1683119758786764300,20.745764404296875,0.16118335723876953,0.10543280839920044,0.16035866737365723
1683119758804602600,20.7636025390625,-0.2041606903076172,0.18694829940795898,-0.09331667423248291
1683119758822440700,20.781440673828126,-0.3545961380004883,-0.09317666292190552,0.20122098922729492
1683119758840280600,20.799280517578126,0.13625621795654297,0.2887324094772339,-0.1653047353029251
1683119758858118700,20.81711865234375,0.29926013946533203,-0.5407243967056274,0.03850049898028374
1683119758875960300,20.834960205078126,-0.1851053237915039,0.08670729398727417,-0.19979368150234222
1683119758893789400,20.85278955078125,0.0789031982421875,-0.03173649311065674,0.18216989934444427
1683119758911632100,20.870632080078124,0.056163787841796875,0.1290389895439148,-0.1514473557472229
1683119758929471000,20.888470947265624,-0.0022106170654296875,0.40681225061416626,0.27329960465431213
1683119758947308500,20.90630859375,0.0024051666259765625,-0.08445215225219727,-0.10904084891080856
1683119758965142300,20.924142333984374,-0.13435840606689453,-0.2394315004348755,0.17161065340042114
1683119758982985000,20.94198486328125,-0.008736610412597656,-0.04708307981491089,-0.2545913755893707
1683119759000823800,20.95982373046875,0.3131694793701172,-0.09228205680847168,0.022559940814971924
1683119759018662000,20.977661865234374,-0.14424896240234375,-0.2542383670806885,-0.06830745190382004
1683119759036504000,20.995504150390627,-0.34378528594970703,0.37141555547714233,-0.17011652886867523
1683119759054343700,21.01334375,0.12054252624511719,-0.3329974412918091,0.16321589052677155
1683119759072179500,21.031179443359374,-0.11623954772949219,0.5227699279785156,-0.08744674175977707
1683119759090016000,21.04901611328125,-0.08572959899902344,-0.25294816493988037,0.20665127038955688
1683119759107838200,21.066838134765625,-0.23099803924560547,-0.20167100429534912,-0.20613159239292145
1683119759125691400,21.08469140625,-0.020104408264160156,-0.12408137321472168,0.1361847221851349
1683119759143527400,21.10252734375,0.054024696350097656,0.11995840072631836,-0.2250031679868698
1683119759161368000,21.1203681640625,0.2463665008544922,0.1436607837677002,0.16455920040607452
1683119759179196400,21.138196533203125,-0.14339160919189453,0.11473715305328369,-0.1303960382938385
1683119759197044200,21.156044189453127,-0.04968452453613281,0.033902645111083984,0.19663842022418976
1683119759214878700,21.173878662109374,-0.02012348175048828,0.00019431114196777344,-0.14958332479000092
1683119759232720400,21.191720458984374,-0.1481761932373047,-0.025428950786590576,0.19607627391815186
1683119759250559200,21.209559326171874,-0.2812633514404297,-0.04769474267959595,-0.11360136419534683
1683119759268397300,21.227397216796874,0.1038064956665039,0.06838017702102661,0.057428427040576935
1683119759286235600,21.245235595703125,0.041892051696777344,-0.03769218921661377,0.00711336825042963
1683119759304073700,21.26307373046875,-0.26803112030029297,0.32019031047821045,-0.05762932449579239
1683119759321911800,21.280911865234376,-0.10233402252197266,0.2026134729385376,0.11685096472501755
1683119759339743500,21.298743408203126,0.181121826171875,0.11860299110412598,-0.13054710626602173
1683119759357587200,21.316587158203124,-0.1829681396484375,-0.6020331978797913,0.07904545217752457
1683119759375426800,21.3344267578125,-0.21745586395263672,0.10771125555038452,-0.27671921253204346
1683119759393265200,21.35226513671875,0.07346343994140625,-0.12011831998825073,0.16541136801242828
1683119759411104500,21.3701044921875,-0.29945850372314453,0.07327944040298462,-0.1942710429430008
1683119759428941600,21.387941650390626,0.20947265625,0.2836724519729614,0.14650216698646545
1683119759446777600,21.405777587890626,0.2178325653076172,-0.07558226585388184,-0.09666009992361069
1683119759464618200,21.4236181640625,-0.1912546157836914,0.16736841201782227,0.1991306096315384
1683119759482455600,21.44145556640625,-0.08297920227050781,-0.09714394807815552,-0.1927209049463272
1683119759500283400,21.459283447265626,0.21037769317626953,-0.31722521781921387,0.0568104051053524
1683119759518133800,21.4771337890625,-0.3866300582885742,0.19553178548812866,-0.06340990960597992
1683119759535971300,21.494971435546876,0.10303783416748047,0.2217528223991394,-0.008221122436225414
1683119759553809400,21.512809326171876,0.2369089126586914,-0.04514425992965698,0.10811220854520798
1683119759571627500,21.53062744140625,-0.13750839233398438,0.4556286334991455,-0.003663823241367936
1683119759589489000,21.548489013671876,0.0740957260131836,-0.18478161096572876,0.11015895754098892
1683119759607317500,21.5663173828125,0.009786605834960938,0.08466386795043945,-0.1383114755153656
1683119759625162500,21.58416259765625,-0.035790443420410156,-0.21820068359375,0.050614066421985626
1683119759642995700,21.60199560546875,-0.04645824432373047,-0.0794135332107544,-0.23644722998142242
1683119759660837600,21.619837646484374,0.19487857818603516,0.16875237226486206,0.23093615472316742
1683119759678677200,21.63767724609375,-0.05374717712402344,0.3593469560146332,-0.11827490478754044
1683119759696518400,21.655518310546874,0.12199974060058594,-0.19115471839904785,0.29719477891921997
1683119759714354200,21.673354248046873,-0.09869861602783203,0.1663222312927246,-0.05137132853269577
1683119759732191500,21.69119140625,-0.05508613586425781,-0.1618739366531372,0.17583517730236053
1683119759750030000,21.709030029296876,-0.25397205352783203,-0.35945314168930054,-0.22377604246139526
1683119759767868400,21.726868408203124,-0.0348663330078125,0.14691108465194702,-0.013554345816373825
1683119759785710600,21.744710693359377,-0.14872360229492188,-0.05897444486618042,-0.10461260378360748
1683119759803544800,21.762544921875,-0.10080909729003906,0.2406417727470398,-0.06144894286990166
1683119759821380000,21.780380126953126,0.11186885833740234,0.11938220262527466,0.08751987665891647
1683119759839209000,21.798208984375,0.19356155395507812,0.02533644437789917,-0.045666225254535675
1683119759857059600,21.8160595703125,-0.35388660430908203,-0.5176862478256226,0.028381068259477615
1683119759874897700,21.833897705078126,-0.23148059844970703,0.273820698261261,-0.2075100988149643
1683119759892736000,21.851736083984374,0.20699596405029297,-0.2935951352119446,0.16560693085193634
