time,seconds_elapsed,z,y,x
1683140835479261200,0.09926123046875,9.768698692321777,0.2757728099822998,0.009571290574967861
1683140835497100500,0.1171005859375,9.8207426071167,0.30987054109573364,0.04307080805301666
1683140835514951400,0.134951416015625,9.687342643737793,0.2955136001110077,0.15194423496723175
1683140835532789500,0.15278955078125,9.835099220275879,0.3433700501918793,-0.018544375896453857
1683140835550624300,0.170624267578125,9.753743171691895,0.3242274820804596,0.09032905846834183
1683140835568470500,0.188470458984375,9.81117057800293,0.33858439326286316,0.11006984114646912
1683140835586305300,0.20630517578125,9.725627899169922,0.33379876613616943,0.08075776696205139
1683140835604145200,0.224145263671875,9.644869804382324,0.28534409403800964,0.023330021649599075
1683140835621983000,0.24198291015625,9.849455833435059,0.33379876613616943,0.09571290761232376
1683140835639823600,0.25982373046875,9.687342643737793,0.3194418251514435,0.06161518394947052
1683140835657661400,0.277661376953125,9.79681396484375,0.3433700501918793,0.08614161610603333
1683140835675501600,0.29550146484375,9.81117057800293,0.3194418251514435,0.03349951654672623
1683140835693324000,0.313323974609375,9.792028427124023,0.3433700501918793,0.11425728350877762
1683140835711183400,0.331183349609375,9.79681396484375,0.28594231605529785,0.1333998590707779
1683140835729017300,0.349017333984375,9.707083702087402,0.3284149169921875,-0.02871387079358101
1683140835746857500,0.366857421875,9.863214492797852,0.2667997181415558,0.04366901144385338
1683140835764695800,0.38469580078125,9.753743171691895,0.3194418251514435,0.1333998590707779
1683140835782535700,0.40253564453125,9.801599502563477,0.26201409101486206,-0.008973085321485996
1683140835800373800,0.420373779296875,9.859027862548828,0.381655216217041,0.005383851006627083
1683140835818214000,0.4382138671875,9.744172096252441,0.2907279431819916,0.14775680005550385
1683140835836048600,0.456048583984375,9.76391315460205,0.3194418251514435,0.05742774158716202
1683140835853895000,0.47389501953125,9.640084266662598,0.3188436031341553,0.08973085135221481
1683140835871729400,0.4917294921875,9.644869804382324,0.30927231907844543,0.07537391036748886
1683140835889569800,0.50956982421875,9.763314247131348,0.3481557071208954,0.20458634197711945
1683140835907389200,0.52738916015625,9.749555587768555,0.3236292600631714,-0.0526420995593071
1683140835925249000,0.5452490234375,9.815957069396973,0.3529413342475891,0.07178468257188797
1683140835943085600,0.56308544921875,9.768099784851074,0.31465616822242737,0.09990034252405167
1683140835960926200,0.58092626953125,9.763314247131348,0.3290131092071533,0.10468599200248718
1683140835978764000,0.598763916015625,9.730413436889648,0.2715853750705719,0.0526420995593071
1683140835996604400,0.6166044921875,9.716055870056152,0.33858439326286316,0.06161518394947052
1683140836014441500,0.63444140625,9.906285285949707,0.2715853750705719,0.014955141581594944
1683140836032281900,0.65228173828125,9.749555587768555,0.3481557071208954,0.05742774158716202
1683140836050120200,0.6701201171875,9.835099220275879,0.2907279431819916,0.029312077909708023
1683140836067960600,0.687960693359375,9.801599502563477,0.36251261830329895,0.062213387340307236
1683140836085797600,0.705797607421875,9.725627899169922,0.2955136001110077,0.11904292553663254
1683140836103635500,0.723635498046875,9.801599502563477,0.2907279431819916,0.03349951654672623
1683140836121479000,0.74147900390625,9.672985076904297,0.30508488416671753,0.09511470049619675
1683140836139316700,0.759316650390625,9.76391315460205,0.3002992272377014,0
1683140836157153800,0.77715380859375,9.739386558532715,0.31465616822242737,0.11904292553663254
1683140836174994200,0.794994140625,9.683155059814453,0.36251261830329895,0.018544375896453857
1683140836192832500,0.81283251953125,9.696913719177246,0.33379876613616943,0.12861421704292297
1683140836210673000,0.8306728515625,9.630513191223145,0.3433700501918793,0.12323036789894104
1683140836228510000,0.848510009765625,9.868000984191895,0.3433700501918793,0.1339980661869049
1683140836246350300,0.866350341796875,9.7064847946167,0.28534409403800964,0.009571290574967861
1683140836264185900,0.884185791015625,9.753743171691895,0.30987054109573364,0.09032905846834183
1683140836282031900,0.902031982421875,9.844670295715332,0.3002992272377014,0.019740786403417587
1683140836299866000,0.9198662109375,9.67777156829834,0.3768695592880249,0.08075776696205139
1683140836317706500,0.93770654296875,9.777671813964844,0.2907279431819916,0.12861421704292297
1683140836335541000,0.955541015625,9.739984512329102,0.33858439326286316,0.004785645287483931
1683140836353386800,0.97338671875,9.829715728759766,0.2763710021972656,0.14835500717163086
1683140836371220700,0.991220703125,9.759127616882324,0.31465616822242737,0.014356935396790504
1683140836389062700,1.009062744140625,9.696913719177246,0.28115665912628174,0.07597211748361588
1683140836406900700,1.026900634765625,9.777671813964844,0.33379876613616943,0.07178468257188797
1683140836424738300,1.04473828125,9.716055870056152,0.2907279431819916,0.02871387079358101
1683140836442581500,1.06258154296875,9.768698692321777,0.36251261830329895,0.0526420995593071
1683140836460412700,1.08041259765625,9.716055870056152,0.2907279431819916,0.09032905846834183
1683140836478250200,1.098250244140625,9.644869804382324,0.28594231605529785,0.06640082597732544
1683140836496094700,1.1160947265625,9.777671813964844,0.3290131092071533,0.07657032459974289
1683140836513938000,1.13393798828125,9.592227935791016,0.30927231907844543,0.037088751792907715
1683140836531772200,1.151772216796875,9.725028991699219,0.36251261830329895,0.16151553392410278
1683140836549613000,1.169613037109375,9.81117057800293,0.3290131092071533,0.0005982056609354913
1683140836567441000,1.18744091796875,9.758528709411621,0.3720839321613312,0.12382857501506805
1683140836585282300,1.2052822265625,9.772886276245117,0.2955136001110077,0.12861421704292297
1683140836603131600,1.223131591796875,9.754341125488281,0.3290131092071533,0.02871387079358101
1683140836620969700,1.2409697265625,9.906285285949707,0.2667997181415558,0.048454657196998596
1683140836638809900,1.258809814453125,9.735198974609375,0.33379876613616943,0.04307080805301666
1683140836656647700,1.276647705078125,9.806385040283203,0.2763710021972656,0.04785645380616188
1683140836674487800,1.29448779296875,9.801599502563477,0.3529413342475891,0.07178468257188797
1683140836692316700,1.312316650390625,9.7064847946167,0.2907279431819916,0.10468599200248718
1683140836710165200,1.330165283203125,9.830313682556152,0.33858439326286316,0.04785645380616188
1683140836728004600,1.348004638671875,9.658628463745117,0.31465616822242737,0.10408778488636017
1683140836745844000,1.365843994140625,9.768099784851074,0.28115665912628174,0.038285162299871445
1683140836763682300,1.383682373046875,9.792028427124023,0.30987054109573364,0.08135596662759781
1683140836781515300,1.401515380859375,9.683155059814453,0.3290131092071533,-0.0005982056609354913
1683140836799360000,1.419360107421875,9.744172096252441,0.3433700501918793,0.14297115802764893
1683140836817189000,1.437189208984375,9.67777156829834,0.3529413342475891,0.06161518394947052
1683140836835038500,1.45503857421875,9.758528709411621,0.3481557071208954,0.15732808411121368
1683140836852879000,1.472879150390625,9.649057388305664,0.30508488416671753,0.09930214285850525
1683140836870716700,1.490716552734375,9.801599502563477,0.31465616822242737,0.062213387340307236
1683140836888556800,1.508556884765625,9.93978500366211,0.2763710021972656,-0.017946170642971992
1683140836906392600,1.526392578125,9.69212818145752,0.3290131092071533,0.06161518394947052
1683140836924238300,1.54423828125,9.815957069396973,0.28115665912628174,0.038285162299871445
1683140836942072800,1.56207275390625,9.773484230041504,0.36729827523231506,0.03349951654672623
1683140836959913000,1.579912841796875,9.768099784851074,0.28594231605529785,0.14775680005550385
1683140836977739500,1.597739501953125,9.801599502563477,0.3242274820804596,0.0005982056609354913
1683140836995592000,1.615592041015625,9.672985076904297,0.30508488416671753,0.11844471842050552
1683140837013425700,1.63342578125,9.787242889404297,0.28115665912628174,0
1683140837031273200,1.651273193359375,9.67777156829834,0.30987054109573364,0.08075776696205139
1683140837049107500,1.669107421875,9.711270332336426,0.3481557071208954,0.08554340898990631
1683140837066947800,1.68694775390625,9.768099784851074,0.33858439326286316,0.08614161610603333
1683140837084786000,1.704785888671875,9.701699256896973,0.36251261830329895,0.08075776696205139
1683140837102626000,1.7226259765625,9.815957069396973,0.33379876613616943,0.14356936514377594
1683140837120464000,1.7404638671875,9.611370086669922,0.2949153780937195,0.03768695518374443
1683140837138303200,1.75830322265625,9.8207426071167,0.3194418251514435,0.11485548317432404
1683140837156143600,1.7761435546875,9.863813400268555,0.3002992272377014,-0.04187439754605293
1683140837173982500,1.793982421875,9.7064847946167,0.36251261830329895,0.09511470049619675
1683140837191817000,1.81181689453125,9.79681396484375,0.28594231605529785,0.06699903309345245
1683140837209661200,1.8296611328125,9.744770050048828,0.38644084334373474,0.052043892443180084
1683140837227498200,1.847498291015625,9.824930191040039,0.28115665912628174,0.16749759018421173
1683140837245339400,1.86533935546875,9.744770050048828,0.31465616822242737,-0.04785645380616188
1683140837263177000,1.883177001953125,9.801599502563477,0.2763710021972656,0.062213387340307236
1683140837281020400,1.9010205078125,9.839884757995605,0.3002992272377014,0.024526432156562805
1683140837298855200,1.918855224609375,9.701699256896973,0.28594231605529785,0.047258246690034866
1683140837316695300,1.9366953125,9.749555587768555,0.3433700501918793,0.05742774158716202
1683140837334533400,1.954533447265625,9.711270332336426,0.30987054109573364,0.03349951654672623
1683140837352373800,1.972373779296875,9.744770050048828,0.3529413342475891,0.07118647545576096
1683140837370211800,1.9902119140625,9.744172096252441,0.3242274820804596,0.16689938306808472
1683140837388050000,2.0080498046875,9.64965534210205,0.2907279431819916,0.018544375896453857
1683140837405892400,2.025892333984375,9.859027862548828,0.33379876613616943,0.06281159073114395
1683140837423730200,2.043730224609375,9.739984512329102,0.31465616822242737,0.04785645380616188
1683140837441567700,2.061567626953125,9.711270332336426,0.3529413342475891,0.10468599200248718
1683140837459396900,2.07939697265625,9.792028427124023,0.2955136001110077,0.04785645380616188
1683140837477247000,2.0972470703125,9.801599502563477,0.3481557071208954,0.05742774158716202
1683140837495087400,2.11508740234375,9.844072341918945,0.28594231605529785,0.12921242415905
1683140837512924700,2.132924560546875,9.711270332336426,0.3242274820804596,0.02392822690308094
1683140837530764800,2.150764892578125,9.887741088867188,0.2715853750705719,-0.02273181453347206
1683140837548603000,2.168602783203125,9.806385040283203,0.3290131092071533,0.10049854964017868
1683140837566443300,2.186443359375,9.716055870056152,0.28594231605529785,0.06161518394947052
1683140837584280800,2.20428076171875,9.81117057800293,0.36251261830329895,0.0005982056609354913
1683140837602122000,2.2221220703125,9.69212818145752,0.30987054109573364,0.12382857501506805
1683140837619960000,2.2399599609375,9.806385040283203,0.30987054109573364,0.024526432156562805
1683140837637799000,2.257798828125,9.658628463745117,0.3242274820804596,0.11844471842050552
1683140837655639000,2.27563916015625,9.625727653503418,0.3002992272377014,0.018544375896453857
1683140837673478100,2.29347802734375,9.768099784851074,0.3481557071208954,0.11425728350877762
1683140837691316200,2.311316162109375,9.654440879821777,0.3577269911766052,0.07118647545576096
1683140837709156900,2.329156982421875,9.744172096252441,0.3481557071208954,0.1381855010986328
1683140837726994700,2.34699462890625,9.659226417541504,0.33379876613616943,0.04247260093688965
1683140837744835000,2.3648349609375,9.777671813964844,0.3194418251514435,0.1333998590707779
1683140837762673200,2.382673095703125,9.758528709411621,0.2763710021972656,0.05742774158716202
1683140837780513800,2.400513671875,9.683155059814453,0.33379876613616943,0.01375873014330864
1683140837798350800,2.418350830078125,9.858428955078125,0.2763710021972656,0.048454657196998596
1683140837816188700,2.436188720703125,9.735198974609375,0.3768695592880249,0.052043892443180084
1683140837834033200,2.454033203125,9.806385040283203,0.2715853750705719,0.07178468257188797
1683140837851865600,2.471865478515625,9.768698692321777,0.3577269911766052,0.009571290574967861
1683140837869707800,2.489707763671875,9.701699256896973,0.2907279431819916,0.11425728350877762
1683140837887547400,2.50754736328125,9.8207426071167,0.2763710021972656,0.048454657196998596
1683140837905387800,2.5253876953125,9.64965534210205,0.28594231605529785,0.047258246690034866
1683140837923227100,2.54322705078125,9.69212818145752,0.31465616822242737,0.06640082597732544
1683140837941064000,2.56106396484375,9.744770050048828,0.3194418251514435,0.08135596662759781
1683140837958904800,2.57890478515625,9.701699256896973,0.3720839321613312,0.07597211748361588
1683140837976743200,2.5967431640625,9.67777156829834,0.33379876613616943,0.1094716340303421
1683140837994583800,2.614583740234375,9.620942115783691,0.3194418251514435,0.07058826833963394
1683140838012420900,2.6324208984375,9.806385040283203,0.3535395562648773,0.1621137410402298
1683140838030259500,2.650259521484375,9.739984512329102,0.2763710021972656,0.019142581149935722
1683140838048102100,2.66810205078125,9.739984512329102,0.3481557071208954,0.0526420995593071
1683140838065940200,2.685940185546875,9.878170013427734,0.2907279431819916,0.0005982056609354913
1683140838083777500,2.703777587890625,9.701699256896973,0.36729827523231506,0.12382857501506805
1683140838101618400,2.721618408203125,9.758528709411621,0.2955136001110077,0.08135596662759781
1683140838119444700,2.73944482421875,9.682557106018066,0.33379876613616943,0.04247260093688965
1683140838137294600,2.757294677734375,9.768099784851074,0.2763710021972656,0.11485548317432404
1683140838155137500,2.775137451171875,9.830313682556152,0.2907279431819916,0.048454657196998596
1683140838172975400,2.792975341796875,9.720842361450195,0.2907279431819916,0.02871387079358101
1683140838190813200,2.810813232421875,9.777671813964844,0.30987054109573364,0.03349951654672623
1683140838208650800,2.828650634765625,9.687342643737793,0.3194418251514435,0.14297115802764893
1683140838226482400,2.846482421875,9.716055870056152,0.3577269911766052,0.047258246690034866
1683140838244332000,2.86433203125,9.611370086669922,0.30987054109573364,0.1423729509115219
1683140838262170400,2.88217041015625,9.606584548950195,0.28594231605529785,0.047258246690034866
1683140838280011000,2.900010986328125,9.848857879638672,0.3152543902397156,0.11964113265275955
1683140838297836800,2.9178369140625,9.64965534210205,0.3002992272377014,-0.019740786403417587
1683140838315686100,2.93568603515625,9.7064847946167,0.3481557071208954,0.09511470049619675
1683140838333529900,2.95352978515625,9.76391315460205,0.3290131092071533,0.062213387340307236
1683140838351367700,2.97136767578125,9.711270332336426,0.36251261830329895,0.11425728350877762
1683140838369205500,2.98920556640625,9.725028991699219,0.2907279431819916,0.1381855010986328
1683140838387045600,3.007045654296875,9.716055870056152,0.3194418251514435,-0.014356935396790504
1683140838404884200,3.02488427734375,9.882357597351074,0.2763710021972656,0.05802594870328903
1683140838422724400,3.042724365234375,9.711270332336426,0.31465616822242737,0.04785645380616188
1683140838440562400,3.0605625,9.739984512329102,0.28115665912628174,0.004785645287483931
1683140838458402800,3.07840283203125,9.763314247131348,0.36251261830329895,0.09571290761232376
1683140838476240600,3.09624072265625,9.701699256896973,0.30987054109573364,0.11904292553663254
1683140838494081500,3.11408154296875,9.787242889404297,0.33379876613616943,0.04307080805301666
1683140838511907800,3.131907958984375,9.634700775146484,0.3002992272377014,0.11844471842050552
1683140838529759500,3.149759521484375,9.67777156829834,0.2715853750705719,0.03290131315588951
1683140838547598000,3.16759814453125,9.78245735168457,0.3290131092071533,0.07178468257188797
1683140838565435400,3.185435302734375,9.64965534210205,0.3290131092071533,0.008973085321485996
1683140838583278800,3.20327880859375,9.744770050048828,0.3529413342475891,0.1094716340303421
1683140838601116400,3.221116455078125,9.69212818145752,0.3529413342475891,0.11904292553663254
1683140838618954500,3.23895458984375,9.753743171691895,0.36311084032058716,0.12382857501506805
1683140838636785700,3.25678564453125,9.663414001464844,0.3002992272377014,0.137587308883667
1683140838654633500,3.274633544921875,9.7064847946167,0.30508488416671753,0.038285162299871445
1683140838672460000,3.2924599609375,9.920642852783203,0.2476571500301361,-0.013160524889826775
1683140838690313700,3.310313720703125,9.687342643737793,0.3433700501918793,0.0568295381963253
1683140838708152600,3.328152587890625,9.806385040283203,0.28115665912628174,0.03888336941599846
1683140838725990000,3.345989990234375,9.759127616882324,0.3577269911766052,0.05742774158716202
1683140838743830500,3.36383056640625,9.7064847946167,0.28115665912628174,0.10468599200248718
1683140838761658000,3.381658203125,9.79681396484375,0.3290131092071533,0.02871387079358101
1683140838779509500,3.399509521484375,9.663414001464844,0.3002992272377014,0.14715859293937683
1683140838797346000,3.417345947265625,9.772886276245117,0.28115665912628174,0.02392822690308094
1683140838815188500,3.4351884765625,9.792028427124023,0.3290131092071533,0.038285162299871445
1683140838833025800,3.45302587890625,9.730413436889648,0.3433700501918793,0.062213387340307236
1683140838850866200,3.4708662109375,9.701699256896973,0.33858439326286316,0.08554340898990631
1683140838868692200,3.488692138671875,9.658628463745117,0.3290131092071533,0.07597211748361588
1683140838886545000,3.506544921875,9.81117057800293,0.3535395562648773,0.15314064919948578
1683140838904383000,3.524383056640625,9.644271850585938,0.2955136001110077,0.08554340898990631
1683140838922218800,3.54221875,9.730413436889648,0.3290131092071533,0.09511470049619675
1683140838940061400,3.5600615234375,9.92542839050293,0.2763710021972656,-0.02751746028661728
1683140838957901300,3.5779013671875,9.725627899169922,0.35832518339157104,0.1094716340303421
1683140838975739600,3.59573974609375,9.801599502563477,0.28115665912628174,0.029312077909708023
1683140838993576400,3.613576416015625,9.768698692321777,0.36251261830329895,0.03349951654672623
1683140839011418600,3.631418701171875,9.805787086486816,0.27696922421455383,0.16271193325519562
1683140839029255700,3.649255615234375,9.759127616882324,0.31465616822242737,0.019142581149935722
1683140839047100200,3.66710009765625,9.672985076904297,0.3002992272377014,0.09511470049619675
1683140839064937500,3.6849375,9.772886276245117,0.3002992272377014,0.038285162299871445
1683140839082771700,3.702771728515625,9.67777156829834,0.3290131092071533,0.08075776696205139
1683140839100620000,3.7206201171875,9.716055870056152,0.3529413342475891,0.06640082597732544
1683140839118453800,3.738453857421875,9.69212818145752,0.31465616822242737,0.14297115802764893
1683140839136295200,3.756295166015625,9.640084266662598,0.3290131092071533,0.0568295381963253
1683140839154131200,3.774131103515625,9.787242889404297,0.3248256742954254,0.16689938306808472
1683140839171968300,3.79196826171875,9.597013473510742,0.30508488416671753,0.07537391036748886
1683140839189810400,3.809810546875,9.777671813964844,0.33439695835113525,0.07178468257188797
1683140839207652600,3.827652587890625,9.863813400268555,0.3290131092071533,-0.008973085321485996
1683140839225489400,3.845489501953125,9.739386558532715,0.372682124376297,0.1381855010986328
1683140839243330600,3.86333056640625,9.748957633972168,0.2907279431819916,0.11425728350877762
1683140839261168400,3.88116845703125,9.725627899169922,0.3529413342475891,0.03349951654672623
1683140839279003600,3.899003662109375,9.848857879638672,0.2626122832298279,0.1579262912273407
1683140839296846800,3.916846923828125,9.720842361450195,0.30987054109573364,0.004785645287483931
1683140839314684700,3.9346845703125,9.763314247131348,0.28115665912628174,0.02871387079358101
1683140839332528600,3.952528564453125,9.772886276245117,0.33439695835113525,0.09092725813388824
1683140839350366500,3.970366455078125,9.672985076904297,0.30508488416671753,0.08075776696205139
1683140839368203800,3.988203857421875,9.773484230041504,0.3678964674472809,0.062213387340307236
1683140839386045000,4.006044921875,9.644271850585938,0.3194418251514435,0.1136590763926506
1683140839403872300,4.023872314453125,9.701699256896973,0.2907279431819916,0.0526420995593071
1683140839421724200,4.04172412109375,9.772886276245117,0.3248256742954254,0.10049854964017868
1683140839439560000,4.059559814453125,9.640084266662598,0.31465616822242737,0.004187439568340778
1683140839457403000,4.07740283203125,9.777671813964844,0.3439682424068451,0.1052841991186142
1683140839475241200,4.0952412109375,9.735198974609375,0.3487538993358612,0.09032905846834183
1683140839493068800,4.11306884765625,9.711270332336426,0.3774677813053131,0.1094716340303421
1683140839510906600,4.13090673828125,9.663414001464844,0.30987054109573364,0.14715859293937683
1683140839528759000,4.148759033203125,9.744770050048828,0.3439682424068451,0.07657032459974289
1683140839546597000,4.16659716796875,9.967901229858398,0.27696922421455383,0.03469592705368996
1683140839564424400,4.184424560546875,9.744770050048828,0.33858439326286316,0.009571290574967861
1683140839582278700,4.202278564453125,9.854242324829102,0.25244277715682983,0.014955141581594944
1683140839600116500,4.220116455078125,9.763314247131348,0.372682124376297,0.10049854964017868
1683140839617946400,4.2379462890625,9.739386558532715,0.28115665912628174,0.07178468257188797
1683140839635796000,4.2557958984375,9.815957069396973,0.3487538993358612,0.010169495828449726
1683140839653632300,4.27363232421875,9.663414001464844,0.30508488416671753,0.15672987699508667
1683140839671474700,4.291474609375,9.79681396484375,0.28594231605529785,0.03409772366285324
1683140839689312500,4.3093125,9.744770050048828,0.3290131092071533,0.07657032459974289
1683140839707152600,4.327152587890625,9.687342643737793,0.33858439326286316,0.07597211748361588
1683140839724990500,4.344990478515625,9.759127616882324,0.3487538993358612,0.07657032459974289
1683140839742831400,4.362831298828125,9.69212818145752,0.3577269911766052,0.1094716340303421
1683140839760654800,4.38065478515625,9.772886276245117,0.3439682424068451,0.1381855010986328
1683140839778513400,4.398513427734375,9.630513191223145,0.3002992272377014,0.0568295381963253
1683140839796348000,4.416347900390625,9.78245735168457,0.3200400173664093,0.08135596662759781
1683140839814188800,4.434188720703125,9.891928672790527,0.2913261651992798,0.0011964113218709826
1683140839832026600,4.452026611328125,9.69212818145752,0.36251261830329895,0.06640082597732544
1683140839849867300,4.4698671875,9.844670295715332,0.28175488114356995,0.03409772366285324
1683140839867705000,4.487705078125,9.787242889404297,0.38703906536102295,0.07178468257188797
1683140839885545700,4.505545654296875,9.839286804199219,0.28175488114356995,0.10049854964017868
1683140839903384300,4.52338427734375,9.787840843200684,0.3242274820804596,-0.03768695518374443
1683140839921207600,4.54120751953125,9.748957633972168,0.2667997181415558,0.062213387340307236
1683140839939062500,4.5590625,9.825528144836426,0.28175488114356995,0.06759724020957947
1683140839956903200,4.576903076171875,9.659226417541504,0.3002992272377014,0.009571290574967861
1683140839974741500,4.594741455078125,9.682557106018066,0.35832518339157104,0.1094716340303421
1683140839992582100,4.61258203125,9.720842361450195,0.3248256742954254,0.12861421704292297
1683140840010420000,4.630419921875,9.773484230041504,0.3529413342475891,0.014356935396790504
1683140840028260900,4.6482607421875,9.787242889404297,0.3439682424068451,0.11964113265275955
1683140840046098700,4.6660986328125,9.66819953918457,0.28115665912628174,0.03290131315588951
1683140840063939800,4.68393994140625,9.835099220275879,0.33439695835113525,0.09092725813388824
1683140840081771800,4.701771728515625,9.783055305480957,0.2907279431819916,-0.028115665540099144
1683140840099619800,4.719619873046875,9.749555587768555,0.36311084032058716,0.09990034252405167
1683140840117455400,4.737455322265625,9.806385040283203,0.3200400173664093,0.05742774158716202
1683140840135298000,4.755298095703125,9.787242889404297,0.3774677813053131,0.1381855010986328
1683140840153134600,4.773134521484375,9.835099220275879,0.3008974492549896,0.08673982322216034
1683140840170962200,4.790962158203125,9.735198974609375,0.30987054109573364,0.014356935396790504
1683140840188809700,4.808809814453125,9.806385040283203,0.2721835672855377,0.06699903309345245
1683140840206659000,4.8266591796875,9.773484230041504,0.30987054109573364,-0.01375873014330864
1683140840224492300,4.8444921875,9.65384292602539,0.2907279431819916,0.11425728350877762
1683140840242318000,4.862318115234375,9.759127616882324,0.3487538993358612,0.03349951654672623
1683140840260174300,4.88017431640625,9.687342643737793,0.3248256742954254,0.17587246000766754
1683140840278012000,4.898011962890625,9.754341125488281,0.33918261528015137,0.05742774158716202
1683140840295849700,4.915849609375,9.663414001464844,0.3242274820804596,0.09990034252405167
1683140840313688300,4.933688232421875,9.630513191223145,0.28594231605529785,0.06161518394947052
1683140840331529000,4.951529052734375,9.773484230041504,0.3439682424068451,0.03349951654672623
1683140840349372700,4.96937255859375,9.625727653503418,0.33379876613616943,0.04247260093688965
1683140840367203800,4.987203857421875,9.739386558532715,0.3439682424068451,0.1333998590707779
1683140840385047600,5.005047607421875,9.739386558532715,0.33439695835113525,0.11425728350877762
1683140840402883600,5.022883544921875,9.754341125488281,0.3439682424068451,0.08135596662759781
1683140840420723700,5.0407236328125,9.748957633972168,0.27696922421455383,0.1333998590707779
1683140840438567400,5.0585673828125,9.69212818145752,0.3290131092071533,0.06640082597732544
1683140840456405200,5.0764052734375,9.949356079101562,0.2626122832298279,-0.013160524889826775
1683140840474243800,5.094243896484375,9.759127616882324,0.3535395562648773,0.038285162299871445
1683140840492084200,5.112084228515625,9.801599502563477,0.2626122832298279,0.07178468257188797
1683140840509922300,5.12992236328125,9.759127616882324,0.36311084032058716,0.038285162299871445
1683140840527762700,5.1477626953125,9.672985076904297,0.2907279431819916,0.08554340898990631
1683140840545601500,5.1656015625,9.801599502563477,0.2961117923259735,0.07178468257188797
1683140840563442200,5.183442138671875,9.672985076904297,0.3002992272377014,0.04247260093688965
1683140840581279500,5.201279541015625,9.687342643737793,0.2955136001110077,0.06640082597732544
1683140840599120400,5.219120361328125,9.735198974609375,0.3290131092071533,0.04307080805301666
1683140840616952300,5.236952392578125,9.644869804382324,0.36251261830329895,0.07597211748361588
1683140840634799400,5.25479931640625,9.696913719177246,0.3439682424068451,0.12861421704292297
1683140840652637400,5.272637451171875,9.67777156829834,0.33439695835113525,0.1094716340303421
1683140840670477800,5.290477783203125,9.825528144836426,0.3487538993358612,0.12442677468061447
1683140840688316400,5.30831640625,9.66819953918457,0.2763710021972656,0.09032905846834183
1683140840706157300,5.3261572265625,9.7064847946167,0.3242274820804596,0.06161518394947052
1683140840723995000,5.343994873046875,9.892526626586914,0.2721835672855377,-0.0323031060397625
1683140840741832000,5.36183203125,9.7064847946167,0.35832518339157104,0.10468599200248718
1683140840759673600,5.379673583984375,9.815957069396973,0.2913261651992798,0.053240302950143814
1683140840777514500,5.397514404296875,9.749555587768555,0.35832518339157104,0.038285162299871445
1683140840795352600,5.4153525390625,9.792028427124023,0.28175488114356995,0.12442677468061447
1683140840813193200,5.433193115234375,9.787242889404297,0.33439695835113525,0.024526432156562805
1683140840831027000,5.45102685546875,9.720842361450195,0.2715853750705719,0.038285162299871445
1683140840848872400,5.46887255859375,9.792028427124023,0.3248256742954254,0.11006984114646912
1683140840866707000,5.48670703125,9.678369522094727,0.31465616822242737,0.009571290574967861
1683140840884554000,5.504553955078125,9.716055870056152,0.3678964674472809,0.1094716340303421
1683140840902384400,5.52238427734375,9.69212818145752,0.30508488416671753,0.07597211748361588
1683140840920230000,5.54022998046875,9.716055870056152,0.30987054109573364,-0.009571290574967861
1683140840938056000,5.558055908203125,9.801599502563477,0.3439682424068451,0.14835500717163086
1683140840955908400,5.575908447265625,9.64965534210205,0.3002992272377014,0.004187439568340778
1683140840973747200,5.593747314453125,9.730413436889648,0.36311084032058716,0.1333998590707779
1683140840991587000,5.611587158203125,9.77826976776123,0.3200400173664093,-0.004187439568340778
1683140841009425200,5.629425048828125,9.720842361450195,0.372682124376297,0.1333998590707779
1683140841027266000,5.64726611328125,9.748957633972168,0.28654050827026367,0.1052841991186142
1683140841045096700,5.6650966796875,9.787840843200684,0.33918261528015137,-0.018544375896453857
1683140841062945300,5.6829453125,9.92542839050293,0.27696922421455383,0.0771685317158699
1683140841080783000,5.700783203125,9.76391315460205,0.31046873331069946,0.02871387079358101
1683140841098624000,5.7186240234375,9.806385040283203,0.2715853750705719,0.0005982056609354913
1683140841116461800,5.7364619140625,9.801599502563477,0.3487538993358612,0.07657032459974289
1683140841134303000,5.754302978515625,9.758528709411621,0.2913261651992798,0.10049854964017868
1683140841152140500,5.772140625,9.81117057800293,0.36311084032058716,0.029312077909708023
1683140841169964300,5.78996435546875,9.639486312866211,0.31046873331069946,0.12801600992679596
1683140841187819800,5.80781982421875,9.787242889404297,0.2913261651992798,0.03888336941599846
1683140841205660700,5.82566064453125,9.758528709411621,0.3200400173664093,0.1381855010986328
1683140841223498500,5.84349853515625,9.673583984375,0.33379876613616943,0.014356935396790504
1683140841241339100,5.861339111328125,9.787242889404297,0.3439682424068451,0.12442677468061447
1683140841259174000,5.879173828125,9.687342643737793,0.33858439326286316,0.047258246690034866
1683140841277015000,5.89701513671875,9.787242889404297,0.3152543902397156,0.04785645380616188
1683140841294853400,5.914853271484375,9.67777156829834,0.3248256742954254,0.06640082597732544
1683140841312700000,5.932699951171875,9.801599502563477,0.32961133122444153,0.12921242415905
1683140841330535000,5.950534912109375,9.8871431350708,0.2913261651992798,0.03409772366285324
1683140841348375800,5.968375732421875,9.725627899169922,0.3439682424068451,0.03349951654672623
1683140841366213600,5.986213623046875,9.91107177734375,0.2626122832298279,0.039481572806835175
1683140841384051700,6.0040517578125,9.768698692321777,0.38703906536102295,0.07178468257188797
1683140841401891800,6.021891845703125,9.820143699645996,0.27696922421455383,0.10049854964017868
1683140841419733800,6.039733642578125,9.80219841003418,0.33918261528015137,-0.03290131315588951
1683140841437571600,6.057571533203125,9.716055870056152,0.28654050827026367,0.09990034252405167
1683140841455412500,6.07541259765625,9.825528144836426,0.2721835672855377,0.05802594870328903
1683140841473250800,6.093250732421875,9.664012908935547,0.31465616822242737,0.023330021649599075
1683140841491091500,6.111091552734375,9.658628463745117,0.33439695835113525,0.09990034252405167
1683140841508926500,6.128926513671875,9.716055870056152,0.3439682424068451,0.12382857501506805
1683140841526773000,6.14677294921875,9.748957633972168,0.35832518339157104,0.11006984114646912
1683140841544608500,6.1646083984375,9.749555587768555,0.3487538993358612,0.08135596662759781
1683140841562449200,6.18244921875,9.606584548950195,0.2955136001110077,0.08075776696205139
1683140841580275200,6.200275146484375,9.8207426071167,0.31046873331069946,0.08614161610603333
1683140841598128400,6.21812841796875,9.759127616882324,0.28115665912628174,-0.03768695518374443
1683140841615966500,6.235966552734375,9.701699256896973,0.3439682424068451,0.11904292553663254
1683140841633807000,6.25380712890625,9.8207426071167,0.3008974492549896,0.0005982056609354913
1683140841651645000,6.27164501953125,9.748957633972168,0.3774677813053131,0.12382857501506805
1683140841669485600,6.289485595703125,9.801599502563477,0.28654050827026367,0.11964113265275955
1683140841687323400,6.307323486328125,9.711270332336426,0.3242274820804596,0.004785645287483931
1683140841705153800,6.32515380859375,9.79681396484375,0.2721835672855377,0.12442677468061447
1683140841723003000,6.3430029296875,9.844670295715332,0.2961117923259735,0.03409772366285324
1683140841740842000,6.360842041015625,9.749555587768555,0.28654050827026367,0.02392822690308094
1683140841758683400,6.378683349609375,9.78245735168457,0.3248256742954254,0.062213387340307236
1683140841776522800,6.396522705078125,9.682557106018066,0.3200400173664093,0.12861421704292297
1683140841794349800,6.414349853515625,9.768099784851074,0.3487538993358612,0.06699903309345245
1683140841812206000,6.4322060546875,9.629914283752441,0.30568310618400574,0.12801600992679596
1683140841830031600,6.450031494140625,9.611370086669922,0.28115665912628174,0.01375873014330864
1683140841847867400,6.467867431640625,9.844072341918945,0.3248256742954254,0.11964113265275955
1683140841865720600,6.485720458984375,9.673583984375,0.31465616822242737,-0.009571290574967861
1683140841883559200,6.50355908203125,9.716055870056152,0.35832518339157104,0.1094716340303421
1683140841901397800,6.521397705078125,9.730413436889648,0.3248256742954254,0.05742774158716202
1683140841919238100,6.539238037109375,9.801599502563477,0.3487538993358612,0.08135596662759781
1683140841937067800,6.55706787109375,9.753743171691895,0.30568310618400574,0.11006984114646912
1683140841954917000,6.574917236328125,9.754341125488281,0.2961117923259735,0.0005982056609354913
1683140841972755700,6.592755615234375,9.906285285949707,0.2626122832298279,0.05383851006627083
1683140841990593500,6.610593505859375,9.69212818145752,0.3242274820804596,0
1683140842008437200,6.628437255859375,9.753743171691895,0.27696922421455383,0.0526420995593071
1683140842026274800,6.64627490234375,9.754341125488281,0.39182472229003906,0.09571290761232376
1683140842044113400,6.664113525390625,9.720243453979492,0.2961117923259735,0.14775680005550385
1683140842061954300,6.681954345703125,9.815957069396973,0.32961133122444153,0.029312077909708023
1683140842079792600,6.699792724609375,9.634700775146484,0.31046873331069946,0.12323036789894104
1683140842097632800,6.7176328125,9.720842361450195,0.28654050827026367,0.07178468257188797
1683140842115471400,6.735471435546875,9.79681396484375,0.3152543902397156,0.08614161610603333
1683140842133312300,6.753312255859375,9.749555587768555,0.3487538993358612,0
1683140842151149800,6.77114990234375,9.739386558532715,0.3439682424068451,0.12382857501506805
1683140842168991200,6.7889912109375,9.66819953918457,0.3535395562648773,0.09990034252405167
1683140842186829000,6.8068291015625,9.792028427124023,0.3487538993358612,0.10049854964017868
1683140842204670200,6.824670166015625,9.620343208312988,0.30568310618400574,0.1136590763926506
1683140842222497800,6.842497802734375,9.768698692321777,0.31046873331069946,0.02392822690308094
1683140842240348700,6.8603486328125,9.877572059631348,0.28175488114356995,0.053240302950143814
1683140842258187300,6.878187255859375,9.659226417541504,0.3774677813053131,0.06161518394947052
1683140842276025000,6.896025146484375,9.772886276245117,0.28175488114356995,0.07178468257188797
1683140842293866800,6.91386669921875,9.759127616882324,0.38703906536102295,0.08614161610603333
1683140842311709200,6.931709228515625,9.848857879638672,0.2913261651992798,0.16271193325519562
1683140842329545000,6.949544921875,9.787840843200684,0.33439695835113525,-0.04247260093688965
1683140842347374000,6.9673740234375,9.715457916259766,0.28175488114356995,0.10468599200248718
1683140842365225000,6.985224853515625,9.801599502563477,0.3008974492549896,0.06699903309345245
1683140842383065000,7.003065185546875,9.696913719177246,0.3008974492549896,0.04307080805301666
1683140842400899300,7.0208994140625,9.735198974609375,0.38225340843200684,0.062213387340307236
1683140842418748000,7.038747802734375,9.716055870056152,0.32961133122444153,0.11425728350877762
1683140842436581600,7.05658154296875,9.716055870056152,0.3535395562648773,0.09511470049619675
1683140842454423000,7.074423095703125,9.768099784851074,0.3439682424068451,0.11485548317432404
1683140842472261400,7.092261474609375,9.611370086669922,0.2907279431819916,0.047258246690034866
1683140842490099200,7.11009912109375,9.839884757995605,0.3248256742954254,0.05802594870328903
1683140842507940000,7.127940185546875,9.754341125488281,0.3248256742954254,0.0526420995593071
1683140842525783800,7.14578369140625,9.696913719177246,0.3678964674472809,0.07597211748361588
1683140842543619000,7.163619140625,9.711270332336426,0.3248256742954254,0.1094716340303421
1683140842561465000,7.181465087890625,9.763314247131348,0.35832518339157104,0.07178468257188797
1683140842579297800,7.1992978515625,9.882357597351074,0.2961117923259735,0.12502498924732208
1683140842597139200,7.21713916015625,9.744770050048828,0.32961133122444153,-0.018544375896453857
1683140842614977000,7.23497705078125,9.872786521911621,0.25304099917411804,-0.008374879136681557
1683140842632817700,7.252817626953125,9.81117057800293,0.3248256742954254,0.07178468257188797
1683140842650653400,7.2706533203125,9.711270332336426,0.27696922421455383,0.02392822690308094
1683140842668499500,7.28849951171875,9.735198974609375,0.3678964674472809,0.0526420995593071
1683140842686335200,7.306335205078125,9.66819953918457,0.3008974492549896,0.11904292553663254
1683140842704164000,7.3241640625,9.839884757995605,0.3152543902397156,0.08195417374372482
1683140842722013700,7.342013671875,9.649057388305664,0.3248256742954254,0.08554340898990631
1683140842739854800,7.359854736328125,9.620942115783691,0.28594231605529785,0.047258246690034866
1683140842757692400,7.3776923828125,9.787242889404297,0.3439682424068451,0.11485548317432404
1683140842775535400,7.395535400390625,9.678369522094727,0.3439682424068451,0.004785645287483931
1683140842793360600,7.413360595703125,9.696913719177246,0.3487538993358612,0.12861421704292297
1683140842811212500,7.431212646484375,9.672985076904297,0.3439682424068451,0.0568295381963253
1683140842829051400,7.449051513671875,9.834501266479492,0.33439695835113525,0.13878370821475983
1683140842846892300,7.466892333984375,9.735198974609375,0.28175488114356995,0.062213387340307236
1683140842864730000,7.484730224609375,9.687342643737793,0.32961133122444153,0.0526420995593071
1683140842882571300,7.5025712890625,9.891928672790527,0.28654050827026367,0.07238288223743439
1683140842900409600,7.52040966796875,9.773484230041504,0.33439695835113525,0.019740786403417587
1683140842918247200,7.5382470703125,9.830313682556152,0.2961117923259735,0.03409772366285324
1683140842936091100,7.556091064453125,9.787242889404297,0.3774677813053131,0.06699903309345245
1683140842953929000,7.573928955078125,9.739386558532715,0.2913261651992798,0.17168502509593964
1683140842971763200,7.59176318359375,9.801599502563477,0.3008974492549896,0.024526432156562805
1683140842989609000,7.60960888671875,9.658628463745117,0.3008974492549896,0.12861421704292297
1683140843007445000,7.627445068359375,9.701699256896973,0.3008974492549896,0.06699903309345245
1683140843025288200,7.6452880859375,9.777671813964844,0.31046873331069946,0.09092725813388824
1683140843043125500,7.66312548828125,9.759127616882324,0.3535395562648773,0.02392822690308094
1683140843060966700,7.680966552734375,9.663414001464844,0.33918261528015137,0.1381855010986328
1683140843078792400,7.69879248046875,9.634700775146484,0.3248256742954254,0.137587308883667
1683140843096645600,7.716645751953125,9.839884757995605,0.3439682424068451,0.09152546525001526
1683140843114483700,7.734483642578125,9.629914283752441,0.28175488114356995,0.08554340898990631
1683140843132324900,7.752324951171875,9.66819953918457,0.3535395562648773,0.12861421704292297
1683140843150162400,7.770162353515625,9.906285285949707,0.31046873331069946,-0.02273181453347206
1683140843168003000,7.788003173828125,9.777671813964844,0.3774677813053131,0.10049854964017868
1683140843185842700,7.8058427734375,9.78245735168457,0.2961117923259735,0.1052841991186142
1683140843203682800,7.823682861328125,9.730413436889648,0.3487538993358612,0.08614161610603333
1683140843221520600,7.841520751953125,9.882357597351074,0.2913261651992798,0.0771685317158699
1683140843239361500,7.859361572265625,9.744770050048828,0.2961117923259735,0.05742774158716202
1683140843257200400,7.877200439453125,9.67777156829834,0.2961117923259735,0.09032905846834183
1683140843275041000,7.895041015625,9.849455833435059,0.3248256742954254,0.029312077909708023
1683140843292878800,7.91287890625,9.735198974609375,0.30568310618400574,0.07657032459974289
1683140843310719500,7.930719482421875,9.792028427124023,0.3535395562648773,0.07657032459974289
1683140843328558000,7.94855810546875,9.649057388305664,0.3152543902397156,0.16151553392410278
1683140843346399500,7.9663994140625,9.735198974609375,0.3008974492549896,0.014356935396790504
1683140843364236800,7.98423681640625,9.78245735168457,0.3200400173664093,0.15314064919948578
1683140843382078200,8.002078125,9.587442398071289,0.3242274820804596,0.04247260093688965
1683140843399916500,8.01991650390625,9.815957069396973,0.3487538993358612,0.09571290761232376
1683140843417754600,8.037754638671874,9.806385040283203,0.35832518339157104,0.029312077909708023
1683140843435598300,8.055598388671875,9.753743171691895,0.36311084032058716,0.1621137410402298
1683140843453425200,8.073425048828126,9.69212818145752,0.31046873331069946,0.15254244208335876
1683140843471276300,8.0912763671875,9.815957069396973,0.3439682424068451,-0.01375873014330864
1683140843489115600,8.10911572265625,9.896714210510254,0.2721835672855377,0.13459627330303192
1683140843506953500,8.126953369140624,9.635298728942871,0.3248256742954254,0.0568295381963253
1683140843524794600,8.144794677734374,9.892526626586914,0.2626122832298279,-0.05623133108019829
1683140843542633200,8.16263330078125,9.8207426071167,0.36311084032058716,0.08135596662759781
1683140843560473900,8.180473876953124,9.777671813964844,0.2913261651992798,0.11964113265275955
1683140843578312000,8.19831201171875,9.768698692321777,0.33439695835113525,0.024526432156562805
1683140843596137700,8.2161376953125,9.66819953918457,0.3008974492549896,0.10468599200248718
1683140843613994200,8.233994140625,9.830313682556152,0.2721835672855377,0.053240302950143814
1683140843631828200,8.251828125,9.687342643737793,0.31046873331069946,0.04307080805301666
1683140843649666800,8.269666748046875,9.682557106018066,0.33439695835113525,0.06640082597732544
1683140843667514000,8.28751416015625,9.744770050048828,0.3487538993358612,0.09092725813388824
1683140843685349400,8.305349365234376,9.682557106018066,0.35832518339157104,0.09032905846834183
1683140843703190000,8.32318994140625,9.763314247131348,0.33918261528015137,0.1339980661869049
1683140843721028400,8.3410283203125,9.66819953918457,0.2961117923259735,0.09032905846834183
1683140843738861600,8.358861572265624,9.835099220275879,0.3200400173664093,0.03409772366285324
1683140843756707600,8.37670751953125,9.815957069396973,0.2626122832298279,0.024526432156562805
1683140843774548700,8.394548828125,9.663414001464844,0.35832518339157104,0.11904292553663254
1683140843792386600,8.412386474609375,9.878170013427734,0.28654050827026367,-0.02751746028661728
1683140843810227500,8.4302275390625,9.792028427124023,0.38703906536102295,0.09092725813388824
1683140843828066300,8.44806640625,9.844072341918945,0.27696922421455383,0.14835500717163086
1683140843845895000,8.46589501953125,9.76391315460205,0.3248256742954254,-0.008973085321485996
1683140843863744800,8.483744873046875,9.787242889404297,0.27696922421455383,0.03409772366285324
1683140843881586000,8.5015859375,9.844670295715332,0.27696922421455383,0.04366901144385338
1683140843899424500,8.519424560546875,9.720842361450195,0.28654050827026367,0.02871387079358101
1683140843917265700,8.537265625,9.734601020812988,0.33918261528015137,0.11006984114646912
1683140843935103000,8.55510302734375,9.67777156829834,0.3248256742954254,0.06161518394947052
1683140843952944000,8.572944091796876,9.720842361450195,0.35832518339157104,0.11425728350877762
1683140843970782700,8.59078271484375,9.682557106018066,0.31046873331069946,0.09990034252405167
1683140843988619800,8.608619873046875,9.625727653503418,0.2955136001110077,-0.019142581149935722
1683140844006464800,8.62646484375,9.820143699645996,0.32961133122444153,0.14356936514377594
1683140844024303000,8.64430322265625,9.687342643737793,0.30568310618400574,0.019142581149935722
1683140844042135300,8.66213525390625,9.739984512329102,0.3678964674472809,0.08614161610603333
1683140844059982000,8.679982177734376,9.768099784851074,0.32961133122444153,0.10049854964017868
1683140844077819600,8.697819580078125,9.763314247131348,0.36311084032058716,0.08135596662759781
1683140844095660800,8.715660888671875,9.787242889404297,0.28654050827026367,0.14356936514377594
1683140844113499400,8.73349951171875,9.716055870056152,0.31046873331069946,0.004785645287483931
1683140844131340300,8.75134033203125,9.90149974822998,0.25782662630081177,0.029910283163189888
1683140844149178600,8.7691787109375,9.777671813964844,0.3152543902397156,0.05742774158716202
1683140844167020000,8.78702001953125,9.787242889404297,0.28175488114356995,0.014955141581594944
1683140844184856600,8.804856689453125,9.754341125488281,0.36311084032058716,0.06699903309345245
1683140844202698500,8.822698486328125,9.744172096252441,0.2913261651992798,0.09571290761232376
1683140844220522800,8.840522705078126,9.825528144836426,0.33439695835113525,0.04366901144385338
1683140844238375700,8.858375732421875,9.663414001464844,0.31046873331069946,0.15254244208335876
1683140844256215800,8.8762158203125,9.711270332336426,0.27696922421455383,0.019142581149935722
1683140844274056700,8.894056640625,9.8207426071167,0.33439695835113525,0.06281159073114395
1683140844291889000,8.911888916015625,9.696913719177246,0.32961133122444153,0.0526420995593071
1683140844309737500,8.929737548828125,9.696913719177246,0.35832518339157104,0.09511470049619675
1683140844327574500,8.947574462890625,9.7064847946167,0.33918261528015137,0.07657032459974289
1683140844345403400,8.9654033203125,9.81535816192627,0.33918261528015137,0.14835500717163086
1683140844363253000,8.9832529296875,9.682557106018066,0.30568310618400574,0.08075776696205139
1683140844381094700,9.0010947265625,9.720842361450195,0.3152543902397156,0.08614161610603333
1683140844398932700,9.0189326171875,9.915857315063477,0.267397940158844,-0.05563312768936157
1683140844416773600,9.036773681640625,9.701699256896973,0.3535395562648773,0.09032905846834183
1683140844434611700,9.05461181640625,9.8207426071167,0.2961117923259735,0.053240302950143814
1683140844452452600,9.07245263671875,9.787242889404297,0.38225340843200684,0.10049854964017868
1683140844470294500,9.09029443359375,9.753743171691895,0.31046873331069946,0.13878370821475983
1683140844488120600,9.10812060546875,9.792028427124023,0.3248256742954254,0.06699903309345245
1683140844505958700,9.125958740234376,9.65384292602539,0.30568310618400574,0.11904292553663254
1683140844523811300,9.143811279296875,9.773484230041504,0.2913261651992798,-0.008973085321485996
1683140844541649700,9.161649658203125,9.69212818145752,0.3200400173664093,0.10468599200248718
1683140844559490800,9.17949072265625,9.725627899169922,0.35832518339157104,0.0526420995593071
1683140844577327900,9.197327880859374,9.729815483093262,0.33918261528015137,0.15732808411121368
1683140844595170800,9.2151708984375,9.663414001464844,0.33918261528015137,0.06640082597732544
1683140844613008000,9.2330078125,9.787242889404297,0.3397808074951172,0.16749759018421173
1683140844630849000,9.25084912109375,9.625727653503418,0.3008974492549896,0.06640082597732544
1683140844648687400,9.268687255859374,9.744770050048828,0.33918261528015137,0.02392822690308094
1683140844666525200,9.286525146484376,9.801599502563477,0.3248256742954254,0.029312077909708023
1683140844684369700,9.30436962890625,9.725627899169922,0.372682124376297,0.1333998590707779
1683140844702204200,9.3222041015625,9.806385040283203,0.2961117923259735,0.11964113265275955
1683140844720048000,9.340048095703125,9.783055305480957,0.3774677813053131,0.038285162299871445
1683140844737874700,9.357874755859376,9.863214492797852,0.2871387302875519,0.17228323221206665
1683140844755726000,9.37572607421875,9.768698692321777,0.3152543902397156,0.0005982056609354913
1683140844773563000,9.39356298828125,9.735198974609375,0.28175488114356995,0.009571290574967861
1683140844791406800,9.41140673828125,9.777671813964844,0.3152543902397156,0.08614161610603333
1683140844809244400,9.429244384765624,9.729815483093262,0.30568310618400574,0.09571290761232376
1683140844827071700,9.44707177734375,9.772886276245117,0.3678964674472809,0.11006984114646912
1683140844844924200,9.464924072265624,9.649057388305664,0.32961133122444153,0.07597211748361588
1683140844862762500,9.482762451171874,9.753743171691895,0.3248256742954254,0.09092725813388824
1683140844880603400,9.500603271484374,9.744172096252441,0.3248256742954254,0.1333998590707779
1683140844898442000,9.51844189453125,9.625727653503418,0.2907279431819916,-0.038285162299871445
1683140844916282600,9.53628271484375,9.787242889404297,0.3487538993358612,0.14356936514377594
1683140844934105600,9.554105712890625,9.749555587768555,0.33439695835113525,0.014356935396790504
1683140844951962000,9.571962158203124,9.78245735168457,0.3732803463935852,0.1621137410402298
1683140844969796400,9.58979638671875,9.69212818145752,0.3152543902397156,0.062213387340307236
1683140844987641300,9.607641357421874,9.772886276245117,0.3439682424068451,0.09571290761232376
1683140845005467400,9.62546728515625,9.858428955078125,0.28235307335853577,0.14416755735874176
1683140845023320300,9.6433203125,9.673583984375,0.33918261528015137,-0.02392822690308094
1683140845041144800,9.661144775390625,9.81117057800293,0.2913261651992798,0.048454657196998596
1683140845059003000,9.6790029296875,9.806385040283203,0.3535395562648773,0.1052841991186142
1683140845076832300,9.696832275390625,9.801599502563477,0.28175488114356995,0.11964113265275955
1683140845094678800,9.7146787109375,9.759127616882324,0.372682124376297,-0.018544375896453857
1683140845112517400,9.732517333984376,9.67777156829834,0.3008974492549896,0.14775680005550385
1683140845130355200,9.750355224609375,9.858428955078125,0.2961117923259735,0.05802594870328903
1683140845148199200,9.76819921875,9.625727653503418,0.31046873331069946,0.04247260093688965
1683140845166037500,9.78603759765625,9.630513191223145,0.3248256742954254,0.07597211748361588
1683140845183874600,9.80387451171875,9.79681396484375,0.3439682424068451,0.1339980661869049
1683140845201715000,9.82171484375,9.735198974609375,0.36311084032058716,0.1052841991186142
1683140845219557600,9.8395576171875,9.711270332336426,0.3535395562648773,0.07657032459974289
1683140845237394700,9.857394775390626,9.644271850585938,0.32961133122444153,0.11425728350877762
1683140845255235000,9.875235107421876,9.839286804199219,0.32961133122444153,0.11964113265275955
1683140845273075200,9.8930751953125,9.749555587768555,0.2721835672855377,0.014955141581594944
1683140845290913000,9.9109130859375,9.7064847946167,0.3439682424068451,0.07657032459974289
1683140845308744000,9.928743896484375,9.90149974822998,0.28654050827026367,-0.02273181453347206
1683140845326593000,9.946593017578126,9.734601020812988,0.372682124376297,0.12861421704292297
1683140845344434200,9.96443408203125,9.792028427124023,0.2913261651992798,0.06759724020957947
1683140845362271500,9.982271484375,9.735198974609375,0.3487538993358612,0.019142581149935722
1683140845380112600,10.000112548828126,9.810572624206543,0.27696922421455383,0.1339980661869049
1683140845397951500,10.017951416015626,9.79681396484375,0.30568310618400574,0.010169495828449726
1683140845415792400,10.03579248046875,9.672985076904297,0.3008974492549896,0.07597211748361588
1683140845433625900,10.0536259765625,9.787242889404297,0.3152543902397156,0.08135596662759781
1683140845451465200,10.07146533203125,9.725627899169922,0.32961133122444153,0.08135596662759781
1683140845469307600,10.0893076171875,9.777671813964844,0.3439682424068451,0.07657032459974289
1683140845487150800,10.10715087890625,9.682557106018066,0.3200400173664093,0.09032905846834183
1683140845504988700,10.12498876953125,9.672985076904297,0.3008974492549896,0.07118647545576096
1683140845522829800,10.142829833984376,9.844072341918945,0.33020952343940735,0.15314064919948578
1683140845540668200,10.160668212890625,9.659226417541504,0.30568310618400574,-0.019142581149935722
1683140845558509600,10.178509521484376,9.748957633972168,0.3535395562648773,0.12921242415905
1683140845576347100,10.19634716796875,9.79681396484375,0.32961133122444153,0.053240302950143814
1683140845594176500,10.214176513671875,9.81117057800293,0.3535395562648773,0.07657032459974289
1683140845612027000,10.23202685546875,9.78245735168457,0.30568310618400574,0.09571290761232376
1683140845629868000,10.249867919921876,9.78245735168457,0.32961133122444153,0.07178468257188797
1683140845647705600,10.26770556640625,9.94397258758545,0.27756741642951965,0.09690931439399719
1683140845665543400,10.28554345703125,9.768698692321777,0.3248256742954254,0.0005982056609354913
1683140845683388400,10.303388427734374,9.835099220275879,0.267397940158844,0.03888336941599846
1683140845701224400,10.321224365234375,9.777671813964844,0.3487538993358612,0.08135596662759781
1683140845719066000,10.339066162109376,9.763314247131348,0.27696922421455383,0.07178468257188797
1683140845736905200,10.3569052734375,9.849455833435059,0.3678964674472809,0.005383851006627083
1683140845754743800,10.374743896484375,9.66819953918457,0.3200400173664093,0.15254244208335876
1683140845772584700,10.392584716796875,9.78245735168457,0.28175488114356995,0.053240302950143814
1683140845790422800,10.4104228515625,9.78245735168457,0.33439695835113525,0.08614161610603333
1683140845808268000,10.42826806640625,9.682557106018066,0.32961133122444153,0.07118647545576096
1683140845826102300,10.446102294921875,9.758528709411621,0.35832518339157104,0.08614161610603333
1683140845843943700,10.463943603515625,9.720842361450195,0.35832518339157104,0.09571290761232376
1683140845861777700,10.481777587890624,9.801599502563477,0.33918261528015137,0.14356936514377594
1683140845879622400,10.499622314453125,9.649057388305664,0.30568310618400574,0.07597211748361588
1683140845897460000,10.5174599609375,9.806385040283203,0.32961133122444153,0.08135596662759781
1683140845915303000,10.535302978515626,9.92542839050293,0.28654050827026367,0.005982056725770235
1683140845933128400,10.55312841796875,9.716055870056152,0.33918261528015137,0.07657032459974289
1683140845950979300,10.570979248046875,9.854242324829102,0.28175488114356995,0.03409772366285324
1683140845968807700,10.5888076171875,9.8207426071167,0.3774677813053131,0.05802594870328903
1683140845986660600,10.60666064453125,9.848857879638672,0.28654050827026367,0.12502498924732208
1683140846004498200,10.624498291015625,9.835099220275879,0.3008974492549896,-0.04187439754605293
1683140846022327600,10.64232763671875,9.69212818145752,0.28175488114356995,0.1333998590707779
1683140846040178200,10.66017822265625,9.8207426071167,0.2721835672855377,-0.017946170642971992
1683140846058016000,10.67801611328125,9.696913719177246,0.3200400173664093,0.1094716340303421
1683140846075856600,10.695856689453125,9.687342643737793,0.3487538993358612,0.11904292553663254
1683140846093698000,10.713697998046875,9.772886276245117,0.33439695835113525,0.06699903309345245
1683140846111535900,10.731535888671875,9.777671813964844,0.36311084032058716,0.07657032459974289
1683140846129375200,10.749375244140625,9.806385040283203,0.32961133122444153,0.1339980661869049
1683140846147217700,10.7672177734375,9.640084266662598,0.2913261651992798,0.019142581149935722
1683140846165044500,10.78504443359375,9.868000984191895,0.3206382393836975,0.12023933976888657
1683140846182895000,10.80289501953125,9.835099220275879,0.2961117923259735,-0.04187439754605293
1683140846200736000,10.820736083984375,9.730413436889648,0.3487538993358612,0.11425728350877762
1683140846218574000,10.838573974609375,9.815957069396973,0.2913261651992798,0.03409772366285324
1683140846236414700,10.856414794921875,9.792028427124023,0.3678964674472809,0.014955141581594944
1683140846254253600,10.874253662109375,9.863214492797852,0.2967100143432617,0.17706887423992157
1683140846272092200,10.892092041015625,9.797411918640137,0.30568310618400574,-0.03768695518374443
1683140846289931500,10.909931640625,9.8207426071167,0.2721835672855377,0.06759724020957947
1683140846307776300,10.9277763671875,9.8207426071167,0.2913261651992798,0.005383851006627083
1683140846325612000,10.945612060546875,9.7064847946167,0.28654050827026367,0.07178468257188797
1683140846343453200,10.963453125,9.758528709411621,0.3535395562648773,0.09092725813388824
1683140846361290800,10.981290771484375,9.748957633972168,0.30568310618400574,0.06699903309345245
1683140846379132000,10.9991318359375,9.835099220275879,0.36311084032058716,0.0771685317158699
1683140846396970800,11.016970703125,9.711270332336426,0.3248256742954254,0.12382857501506805
1683140846414811600,11.034811767578125,9.64965534210205,0.2961117923259735,0.02392822690308094
1683140846432649500,11.0526494140625,9.830313682556152,0.32961133122444153,0.10588239878416061
1683140846450490400,11.070490478515625,9.730413436889648,0.3200400173664093,0
1683140846468329200,11.0883291015625,9.753743171691895,0.3535395562648773,0.12442677468061447
1683140846486170000,11.106170166015625,9.744770050048828,0.33439695835113525,0.07657032459974289
1683140846504008200,11.12400830078125,9.801599502563477,0.33439695835113525,0.09571290761232376
1683140846521845200,11.14184521484375,9.81535816192627,0.2913261651992798,0.12442677468061447
1683140846539687700,11.159687744140625,9.754341125488281,0.31046873331069946,-0.018544375896453857
1683140846557528800,11.17752880859375,9.891928672790527,0.2626122832298279,0.05383851006627083
1683140846575366700,11.19536669921875,9.735198974609375,0.32961133122444153,0.019142581149935722
1683140846593196300,11.2131962890625,9.763314247131348,0.28175488114356995,0.03888336941599846
1683140846611046000,11.2310458984375,9.792028427124023,0.38225340843200684,0.08135596662759781
1683140846628887000,11.248886962890625,9.758528709411621,0.3008974492549896,0.16689938306808472
1683140846646722800,11.266722900390626,9.849455833435059,0.30568310618400574,0.014955141581594944
1683140846664568300,11.284568359375,9.649057388305664,0.30568310618400574,0.1333998590707779
1683140846682404600,11.302404541015624,9.66819953918457,0.2913261651992798,0.07118647545576096
1683140846700245500,11.32024560546875,9.835099220275879,0.3200400173664093,0.06281159073114395
1683140846718083300,11.338083251953124,9.744770050048828,0.35832518339157104,0.009571290574967861
1683140846735924500,11.355924560546875,9.734601020812988,0.3487538993358612,0.11904292553663254
1683140846753762800,11.3737626953125,9.66819953918457,0.3439682424068451,0.11904292553663254
1683140846771603700,11.391603759765625,9.824930191040039,0.35892340540885925,0.14835500717163086
1683140846789441800,11.40944189453125,9.682557106018066,0.28654050827026367,0.09990034252405167
1683140846807284000,11.427283935546875,9.744770050048828,0.3248256742954254,0.019142581149935722
1683140846825120300,11.445120361328126,9.920642852783203,0.2626122832298279,0.015553346835076809
1683140846842962700,11.462962646484375,9.716055870056152,0.3535395562648773,0.06699903309345245
1683140846860801000,11.480801025390624,9.81117057800293,0.2913261651992798,0.05802594870328903
1683140846878642000,11.498641845703125,9.768099784851074,0.36311084032058716,0.05742774158716202
1683140846896479700,11.516479736328124,9.81535816192627,0.30149564146995544,0.19142581522464752
1683140846914321200,11.534321044921874,9.815957069396973,0.3200400173664093,-0.004187439568340778
1683140846932159200,11.5521591796875,9.69212818145752,0.2913261651992798,0.1094716340303421
1683140846950000400,11.57000048828125,9.792028427124023,0.3152543902397156,0.07178468257188797
1683140846967838200,11.587838134765626,9.759127616882324,0.3008974492549896,0.03349951654672623
1683140846985680000,11.605679931640625,9.777671813964844,0.35832518339157104,0.0526420995593071
1683140847003517700,11.623517578125,9.711270332336426,0.3248256742954254,0.1333998590707779
1683140847021358800,11.64135888671875,9.696913719177246,0.33439695835113525,0.1094716340303421
1683140847039197000,11.659197021484376,9.839286804199219,0.33439695835113525,0.12442677468061447
1683140847057026300,11.6770263671875,9.635298728942871,0.2961117923259735,0.06640082597732544
1683140847074876200,11.694876220703126,9.734601020812988,0.35832518339157104,0.1333998590707779
1683140847092717000,11.712717041015624,9.877572059631348,0.3152543902397156,0.020338991656899452
1683140847110555400,11.730555419921876,9.792028427124023,0.38225340843200684,0.1052841991186142
1683140847128396300,11.748396240234374,9.79681396484375,0.3008974492549896,0.10049854964017868
1683140847146233900,11.76623388671875,9.768099784851074,0.3535395562648773,0.08614161610603333
1683140847164075800,11.78407568359375,9.92542839050293,0.28175488114356995,0.09212367236614227
1683140847181909800,11.80190966796875,9.753743171691895,0.30568310618400574,0.062213387340307236
1683140847199755000,11.819755126953124,9.768099784851074,0.28175488114356995,0.04785645380616188
1683140847217592800,11.8375927734375,9.863214492797852,0.3200400173664093,0.048454657196998596
1683140847235434000,11.85543408203125,9.768099784851074,0.2913261651992798,0.07657032459974289
1683140847253272600,11.8732724609375,9.81117057800293,0.3678964674472809,0.05802594870328903
1683140847271113500,11.891113525390624,9.65384292602539,0.3248256742954254,0.14775680005550385
1683140847288936700,11.908936767578124,9.787242889404297,0.30568310618400574,0.03888336941599846
1683140847306795800,11.926795654296875,9.768099784851074,0.3248256742954254,0.14835500717163086
1683140847324631300,11.94463134765625,9.64965534210205,0.31046873331069946,0.004785645287483931
1683140847342472000,11.962471923828126,9.806385040283203,0.3535395562648773,0.1339980661869049
1683140847360310000,11.98031005859375,9.76391315460205,0.3535395562648773,0.04307080805301666
1683140847378151000,11.99815087890625,9.787242889404297,0.3487538993358612,0.1052841991186142
1683140847395990000,12.015989990234376,9.711270332336426,0.3152543902397156,0.09990034252405167
1683140847413830100,12.033830078125,9.825528144836426,0.33439695835113525,0.05802594870328903
1683140847431665000,12.051664794921875,9.920642852783203,0.2913261651992798,0.06819544732570648
1683140847449512200,12.06951220703125,9.730413436889648,0.32961133122444153,0.06699903309345245
1683140847467347200,12.08734716796875,9.891928672790527,0.267397940158844,-0.013160524889826775
1683140847485190000,12.10518994140625,9.825528144836426,0.3678964674472809,0.11485548317432404
1683140847503026700,12.123026611328125,9.801599502563477,0.27696922421455383,0.1052841991186142
1683140847520868000,12.1408681640625,9.830313682556152,0.32961133122444153,-0.04187439754605293
1683140847538706700,12.158706787109375,9.725028991699219,0.2913261651992798,0.11485548317432404
1683140847556547300,12.17654736328125,9.891928672790527,0.27696922421455383,0.0011964113218709826
1683140847574385400,12.194385498046875,9.696913719177246,0.3152543902397156,0.09990034252405167
1683140847592226600,12.2122265625,9.672985076904297,0.32961133122444153,0.02392822690308094
1683140847610064600,12.230064697265625,9.758528709411621,0.3439682424068451,0.1052841991186142
1683140847627906300,12.24790625,9.725627899169922,0.3678964674472809,0.09571290761232376
1683140847645743900,12.265743896484375,9.815957069396973,0.33439695835113525,0.12921242415905
1683140847663585000,12.2835849609375,9.659226417541504,0.31046873331069946,0.019142581149935722
1683140847681423600,12.301423583984375,9.858428955078125,0.3008974492549896,0.12023933976888657
1683140847699264800,12.3192646484375,9.79681396484375,0.27696922421455383,0.0005982056609354913
1683140847717102000,12.33710205078125,9.711270332336426,0.3487538993358612,0.07178468257188797
1683140847734943200,12.354943115234375,9.868000984191895,0.3008974492549896,0.03888336941599846
1683140847752770000,12.37277001953125,9.768099784851074,0.3678964674472809,0.07657032459974289
1683140847770622700,12.390622802734375,9.863214492797852,0.28175488114356995,0.11545369029045105
1683140847788460500,12.40846044921875,9.787840843200684,0.32961133122444153,-0.03290131315588951
1683140847806290000,12.4262900390625,9.792028427124023,0.28175488114356995,0.06759724020957947
1683140847824140300,12.444140380859375,9.863214492797852,0.2913261651992798,0.04366901144385338
1683140847841981700,12.461981689453125,9.730413436889648,0.2961117923259735,0.07657032459974289
1683140847859819000,12.479819091796875,9.739984512329102,0.33439695835113525,0.03349951654672623
1683140847877659100,12.4976591796875,9.720842361450195,0.3248256742954254,0.11904292553663254
1683140847895500000,12.5155,9.801599502563477,0.372682124376297,0.09092725813388824
1683140847913339600,12.533339599609375,9.758528709411621,0.3200400173664093,0.11964113265275955
1683140847931177700,12.551177734375,9.664012908935547,0.2961117923259735,0.004785645287483931
1683140847949013000,12.569012939453126,9.877572059631348,0.3152543902397156,0.09152546525001526
1683140847966854700,12.586854736328124,9.701699256896973,0.2961117923259735,0.014356935396790504
1683140847984701400,12.604701416015626,9.7064847946167,0.36311084032058716,0.07178468257188797
1683140848002532600,12.62253271484375,9.748957633972168,0.3248256742954254,0.08614161610603333
1683140848020380700,12.640380615234376,9.758528709411621,0.36311084032058716,0.11485548317432404
1683140848038215200,12.658215087890625,9.834501266479492,0.2961117923259735,0.17706887423992157
1683140848056056600,12.676056640625,9.739984512329102,0.32961133122444153,-0.028115665540099144
1683140848073894400,12.693894287109375,9.882357597351074,0.2626122832298279,0.029910283163189888
1683140848091735600,12.711735595703125,9.78245735168457,0.31046873331069946,0.08614161610603333
1683140848109573600,12.72957373046875,9.744770050048828,0.28175488114356995,-0.028115665540099144
1683140848127414500,12.74741455078125,9.739984512329102,0.36311084032058716,0.10049854964017868
1683140848145253600,12.765253662109375,9.696913719177246,0.31046873331069946,0.14297115802764893
1683140848163093800,12.78309375,9.858428955078125,0.3248256742954254,0.1010967567563057
1683140848180932400,12.800932373046875,9.66819953918457,0.3152543902397156,0.06640082597732544
1683140848198770400,12.8187705078125,9.672985076904297,0.267397940158844,0.02392822690308094
1683140848216601600,12.8366015625,9.830313682556152,0.33439695835113525,0.11006984114646912
1683140848234442000,12.85444189453125,9.68794059753418,0.33918261528015137,-0.03349951654672623
1683140848252291000,12.872291015625,9.69212818145752,0.3535395562648773,0.14775680005550385
1683140848270128000,12.890128173828124,9.69212818145752,0.3487538993358612,0.07118647545576096
1683140848287969300,12.90796923828125,9.844072341918945,0.363709032535553,0.20099709928035736
1683140848305812500,12.9258125,9.701699256896973,0.30568310618400574,0.08554340898990631
1683140848323649300,12.943649169921875,9.711270332336426,0.3248256742954254,0.05742774158716202
1683140848341490400,12.961490478515625,9.915857315063477,0.2721835672855377,0.07776673883199692
1683140848359328000,12.979327880859374,9.768099784851074,0.32961133122444153,0.038285162299871445
1683140848377169400,12.99716943359375,9.839884757995605,0.2961117923259735,0.024526432156562805
1683140848395007700,13.0150078125,9.806385040283203,0.372682124376297,0.06699903309345245
1683140848412848600,13.0328486328125,9.78664493560791,0.2961117923259735,0.17228323221206665
1683140848430683400,13.050683349609375,9.801599502563477,0.3200400173664093,-0.004187439568340778
1683140848448529200,13.068529052734375,9.649057388305664,0.3248256742954254,0.12861421704292297
1683140848466367700,13.08636767578125,9.844670295715332,0.28175488114356995,0.019740786403417587
1683140848484207000,13.10420703125,9.787242889404297,0.3152543902397156,0.10049854964017868
1683140848502041000,13.122041015625,9.716055870056152,0.35832518339157104,0
1683140848519877600,13.139877685546875,9.7064847946167,0.33918261528015137,0.12861421704292297
1683140848537712400,13.15771240234375,9.7064847946167,0.3535395562648773,0.10468599200248718
1683140848555565000,13.17556494140625,9.877572059631348,0.3397808074951172,0.15314064919948578
1683140848573401600,13.193401611328126,9.66819953918457,0.3008974492549896,0.019142581149935722
1683140848591242000,13.211241943359376,9.787242889404297,0.31046873331069946,0.09571290761232376
1683140848609082400,13.229082275390626,9.882955551147461,0.3008974492549896,-0.003589233849197626
1683140848626923800,13.246923828125,9.711270332336426,0.36311084032058716,0.07118647545576096
1683140848644761300,13.26476123046875,9.801599502563477,0.28175488114356995,0.08614161610603333
1683140848662602200,13.282602294921874,9.787242889404297,0.36311084032058716,0.03349951654672623
1683140848680441000,13.300441162109376,9.90568733215332,0.2721835672855377,0.14416755735874176
1683140848698282200,13.3182822265625,9.777671813964844,0.3008974492549896,0.005383851006627083
1683140848716108000,13.33610791015625,9.763314247131348,0.2721835672855377,0.024526432156562805
1683140848733945300,13.3539453125,9.844670295715332,0.3152543902397156,0.05802594870328903
1683140848751795500,13.37179541015625,9.772886276245117,0.2961117923259735,0.06699903309345245
1683140848769640200,13.38964013671875,9.777671813964844,0.372682124376297,0.0526420995593071
1683140848787478000,13.40747802734375,9.67777156829834,0.3200400173664093,0.1094716340303421
1683140848805319000,13.42531884765625,9.801599502563477,0.3439682424068451,0.06699903309345245
1683140848823158000,13.443157958984376,9.81117057800293,0.3200400173664093,0.12921242415905
1683140848840998700,13.46099853515625,9.644869804382324,0.3008974492549896,0.04247260093688965
1683140848858836700,13.478836669921876,9.8207426071167,0.33918261528015137,0.07238288223743439
1683140848876677400,13.496677490234376,9.759127616882324,0.32961133122444153,0.03349951654672623
1683140848894504400,13.51450439453125,9.768099784851074,0.35832518339157104,0.14297115802764893
1683140848912355800,13.53235595703125,9.748957633972168,0.3248256742954254,0.1333998590707779
1683140848930193200,13.550193115234375,9.815957069396973,0.36311084032058716,0.019740786403417587
1683140848948038700,13.56803857421875,9.8871431350708,0.2961117923259735,0.13938191533088684
1683140848965873000,13.585872802734375,9.720842361450195,0.3200400173664093,0.03349951654672623
1683140848983716400,13.60371630859375,9.849455833435059,0.27696922421455383,-0.02751746028661728
1683140849001553400,13.621553466796875,9.792028427124023,0.3535395562648773,0.12442677468061447
1683140849019394300,13.639394287109376,9.792028427124023,0.28654050827026367,0.07178468257188797
1683140849037232600,13.657232666015625,9.825528144836426,0.35832518339157104,0.03409772366285324
1683140849055073300,13.6750732421875,9.696913719177246,0.3008974492549896,0.1094716340303421
1683140849072911400,13.692911376953125,9.854242324829102,0.28654050827026367,0.03888336941599846
1683140849090752300,13.710752197265625,9.69631576538086,0.32961133122444153,0.17647066712379456
1683140849108590600,13.728590576171875,9.739984512329102,0.30568310618400574,0.04307080805301666
1683140849126432000,13.746431884765625,9.863214492797852,0.3535395562648773,0.06759724020957947
1683140849144269800,13.764269775390625,9.768099784851074,0.3487538993358612,0.062213387340307236
1683140849162106000,13.782106201171874,9.768099784851074,0.3535395562648773,0.12921242415905
1683140849179949000,13.799948974609375,9.658628463745117,0.32961133122444153,0.052043892443180084
1683140849197790000,13.8177900390625,9.834501266479492,0.3200400173664093,0.13878370821475983
1683140849215628000,13.8356279296875,9.787242889404297,0.27696922421455383,0.04366901144385338
1683140849233470200,13.85347021484375,9.758528709411621,0.32961133122444153,0.09092725813388824
1683140849251306000,13.871305908203125,9.934999465942383,0.28654050827026367,-0.026919255033135414
1683140849269148200,13.889148193359375,9.772886276245117,0.372682124376297,0.07178468257188797
1683140849286986500,13.906986572265625,9.824930191040039,0.27696922421455383,0.09631111472845078
1683140849304827400,13.924827392578125,9.797411918640137,0.33918261528015137,-0.07537391036748886
1683140849322665500,13.94266552734375,9.768099784851074,0.2913261651992798,0.11964113265275955
1683140849340506400,13.96050634765625,9.877572059631348,0.27696922421455383,0.010767702013254166
1683140849358344700,13.9783447265625,9.696913719177246,0.3152543902397156,0.11425728350877762
1683140849376185600,13.996185546875,9.701699256896973,0.33439695835113525,0.04785645380616188
1683140849394024000,14.01402392578125,9.734601020812988,0.3200400173664093,0.11425728350877762
1683140849411861000,14.031861083984374,9.758528709411621,0.36311084032058716,0.08135596662759781
1683140849429703000,14.049702880859375,9.744172096252441,0.32961133122444153,0.09571290761232376
1683140849447544000,14.0675439453125,9.635298728942871,0.3152543902397156,0.06161518394947052
1683140849465381000,14.085381103515624,9.853643417358398,0.3248256742954254,0.15314064919948578
1683140849483224000,14.10322412109375,9.701699256896973,0.3008974492549896,0.062213387340307236
1683140849501049600,14.121049560546876,9.792028427124023,0.33439695835113525,0.07657032459974289
1683140849518901200,14.1389013671875,9.92542839050293,0.30568310618400574,-0.02751746028661728
1683140849536740400,14.156740234375,9.79681396484375,0.372682124376297,0.1579262912273407
1683140849554581200,14.174581298828125,9.80100154876709,0.3008974492549896,0.17706887423992157
1683140849572419000,14.192419189453124,9.739984512329102,0.33918261528015137,-0.03768695518374443
1683140849590259700,14.210259765625,9.868000984191895,0.267397940158844,0.1579262912273407
1683140849608098600,14.2280986328125,9.735198974609375,0.3248256742954254,0.07657032459974289
1683140849625939500,14.245939453125,9.78245735168457,0.27696922421455383,0.010169495828449726
1683140849643777300,14.26377734375,9.825528144836426,0.33918261528015137,0.08135596662759781
1683140849661618400,14.281618408203125,9.734601020812988,0.30568310618400574,0.1381855010986328
1683140849679457300,14.299457275390624,9.801599502563477,0.3439682424068451,0.1052841991186142
1683140849697297000,14.317296875,9.663414001464844,0.3152543902397156,0.09032905846834183
1683140849715136500,14.335136474609374,9.682557106018066,0.25782662630081177,0.09032905846834183
1683140849732976600,14.3529765625,9.801599502563477,0.3439682424068451,0.16271193325519562
1683140849750815200,14.370815185546874,9.744770050048828,0.3152543902397156,-0.01375873014330864
1683140849768656100,14.38865625,9.792028427124023,0.3678964674472809,0.09571290761232376
1683140849786493400,14.406493408203126,9.787242889404297,0.32961133122444153,0.06699903309345245
1683140849804334800,14.4243349609375,9.78245735168457,0.3678964674472809,0.18125630915164948
1683140849822173700,14.442173583984374,9.716055870056152,0.3152543902397156,0.1094716340303421
1683140849840013800,14.460013916015624,9.748957633972168,0.3152543902397156,0.07178468257188797
1683140849857842200,14.47784228515625,9.93978500366211,0.24825534224510193,-0.01734796352684498
1683140849875682000,14.49568212890625,9.753743171691895,0.3248256742954254,0.09571290761232376
1683140849893529900,14.51352978515625,9.830313682556152,0.2626122832298279,-0.037088751792907715
1683140849911373600,14.53137353515625,9.759127616882324,0.38225340843200684,0.08614161610603333
1683140849929210000,14.549210205078126,9.768099784851074,0.28175488114356995,0.17647066712379456
1683140849947039500,14.56703955078125,9.859027862548828,0.32961133122444153,-0.04666004329919815
1683140849964889600,14.5848896484375,9.66819953918457,0.3200400173664093,0.12382857501506805
1683140849982730800,14.602730712890626,9.863214492797852,0.25782662630081177,0.015553346835076809
1683140850000568000,14.620568115234375,9.806385040283203,0.3248256742954254,0.06699903309345245
1683140850018403300,14.6384033203125,9.701699256896973,0.3439682424068451,0.02871387079358101
1683140850036247300,14.656247314453125,9.748957633972168,0.3535395562648773,0.11485548317432404
1683140850054088400,14.67408837890625,9.720842361450195,0.372682124376297,0.11904292553663254
1683140850071922000,14.691921875,9.877572059631348,0.33918261528015137,0.16271193325519562
1683140850089769700,14.709769775390624,9.682557106018066,0.30508488416671753,0.019142581149935722
1683140850107593700,14.72759375,9.801599502563477,0.3152543902397156,0.11964113265275955
1683140850125447000,14.745447021484376,9.872786521911621,0.2961117923259735,0.05802594870328903
1683140850143284200,14.7632841796875,9.739984512329102,0.3535395562648773,0.062213387340307236
1683140850161109200,14.781109130859376,9.877572059631348,0.28654050827026367,0.020338991656899452
1683140850178964000,14.7989638671875,9.806385040283203,0.38703906536102295,0.11006984114646912
1683140850196804900,14.816804931640625,9.858428955078125,0.2913261651992798,0.19142581522464752
1683140850214642400,14.834642333984375,9.80219841003418,0.3200400173664093,-0.03290131315588951
1683140850232489000,14.852489013671875,9.744172096252441,0.28654050827026367,0.11964113265275955
1683140850250322400,14.870322509765625,9.839884757995605,0.3008974492549896,0.07238288223743439
1683140850268163000,14.8881630859375,9.78245735168457,0.2913261651992798,0.04785645380616188
1683140850286000400,14.90600048828125,9.815957069396973,0.36311084032058716,0.029312077909708023
1683140850303841500,14.923841552734375,9.734601020812988,0.3200400173664093,0.12382857501506805
1683140850321680400,14.941680419921875,9.763314247131348,0.3535395562648773,0.15732808411121368
1683140850339521000,14.95952099609375,9.806385040283203,0.3439682424068451,0.1052841991186142
1683140850357358000,14.977358154296875,9.634700775146484,0.2715853750705719,0.07597211748361588
1683140850375200500,14.995200439453125,9.815957069396973,0.3535395562648773,0.11964113265275955
1683140850393031400,15.013031494140625,9.859027862548828,0.2961117923259735,-0.04187439754605293
1683140850410879000,15.03087890625,9.79681396484375,0.372682124376297,0.10049854964017868
1683140850428717000,15.048717041015625,9.815957069396973,0.31046873331069946,0.08614161610603333
1683140850446557700,15.0665576171875,9.792028427124023,0.36311084032058716,0.13878370821475983
1683140850464396300,15.084396240234375,9.882357597351074,0.30568310618400574,0.10588239878416061
1683140850482237200,15.1022373046875,9.739984512329102,0.31046873331069946,0.04785645380616188
1683140850500075300,15.1200751953125,9.801599502563477,0.28654050827026367,0.08135596662759781
1683140850517915600,15.13791552734375,9.906285285949707,0.3008974492549896,0.02512463741004467
1683140850535754200,15.155754150390624,9.825528144836426,0.28175488114356995,0.03888336941599846
1683140850553595100,15.17359521484375,9.8207426071167,0.35832518339157104,0.053240302950143814
1683140850571433000,15.191432861328124,9.69631576538086,0.31046873331069946,0.16689938306808472
1683140850589259000,15.209259033203125,9.849455833435059,0.33439695835113525,0.048454657196998596
1683140850607116300,15.2271162109375,9.696913719177246,0.3152543902397156,0.14297115802764893
1683140850624953300,15.244953369140624,9.620942115783691,0.3200400173664093,0.09990034252405167
1683140850642791400,15.26279150390625,9.896714210510254,0.33439695835113525,0.10588239878416061
1683140850660631800,15.2806318359375,9.787840843200684,0.3487538993358612,-0.004187439568340778
1683140850678470100,15.29847021484375,9.763314247131348,0.3439682424068451,0.15732808411121368
1683140850696311600,15.3163115234375,9.7064847946167,0.3200400173664093,0.1381855010986328
1683140850714146000,15.33414599609375,9.849455833435059,0.3439682424068451,0.06759724020957947
1683140850731993000,15.3519931640625,9.796216011047363,0.2626122832298279,0.15314064919948578
1683140850749828400,15.369828369140626,9.67777156829834,0.33918261528015137,0.04247260093688965
1683140850767669500,15.38766943359375,9.987641334533691,0.24825534224510193,-0.0364905446767807
1683140850785507000,15.405507080078126,9.78245735168457,0.3487538993358612,0.0526420995593071
1683140850803346400,15.423346435546875,9.853643417358398,0.28175488114356995,0.048454657196998596
1683140850821188000,15.44118798828125,9.777671813964844,0.3678964674472809,0.062213387340307236
1683140850839027200,15.459027099609376,9.739386558532715,0.2961117923259735,0.1333998590707779
1683140850856865000,15.476864990234375,9.844072341918945,0.28175488114356995,0.06759724020957947
1683140850874706000,15.494705810546876,9.66819953918457,0.3008974492549896,0.08075776696205139
1683140850892544500,15.51254443359375,9.78245735168457,0.2961117923259735,0.0526420995593071
1683140850910385000,15.530385009765626,9.801599502563477,0.3248256742954254,0.08135596662759781
1683140850928223200,15.54822314453125,9.759127616882324,0.3535395562648773,0.05742774158716202
1683140850946064400,15.566064453125,9.7064847946167,0.3248256742954254,0.09990034252405167
1683140850963902200,15.583902099609375,9.66819953918457,0.33918261528015137,0.08554340898990631
1683140850981748200,15.601748291015625,9.863214492797852,0.3439682424068451,0.15314064919948578
1683140850999581200,15.619581298828125,9.711270332336426,0.2763710021972656,-0.009571290574967861
1683140851017420800,15.6374208984375,9.753743171691895,0.3439682424068451,0.11964113265275955
1683140851035261200,15.65526123046875,9.882955551147461,0.2961117923259735,-0.037088751792907715
1683140851053082600,15.67308251953125,9.739386558532715,0.3774677813053131,0.12861421704292297
1683140851070927400,15.69092724609375,9.829715728759766,0.28175488114356995,0.11485548317432404
1683140851088777700,15.70877783203125,9.797411918640137,0.33439695835113525,-0.03290131315588951
1683140851106606600,15.726606689453124,9.863214492797852,0.28654050827026367,0.1339980661869049
1683140851124459300,15.744459228515625,9.815957069396973,0.3152543902397156,0.06281159073114395
1683140851142292500,15.76229248046875,9.735198974609375,0.2961117923259735,0.04785645380616188
1683140851160133400,15.78013330078125,9.801599502563477,0.3200400173664093,0.1052841991186142
1683140851177969200,15.79796923828125,9.748957633972168,0.3200400173664093,0.09092725813388824
1683140851195817000,15.81581689453125,9.815957069396973,0.3535395562648773,0.08135596662759781
1683140851213654500,15.833654541015624,9.69212818145752,0.31046873331069946,0.09032905846834183
1683140851231497000,15.8514970703125,9.701699256896973,0.3002992272377014,0.03349951654672623
1683140851249334300,15.869334228515624,9.882357597351074,0.32961133122444153,0.11545369029045105
1683140851267175000,15.8871748046875,9.668798446655273,0.30987054109573364,0.009571290574967861
1683140851285013000,15.905012939453124,9.730413436889648,0.36311084032058716,0.09032905846834183
1683140851302842400,15.92284228515625,9.792028427124023,0.3439682424068451,0.06699903309345245
1683140851320692000,15.94069189453125,9.787242889404297,0.372682124376297,0.13878370821475983
1683140851338533000,15.958533203125,9.777671813964844,0.3008974492549896,0.15314064919948578
1683140851356370700,15.97637060546875,9.797411918640137,0.33439695835113525,-0.028115665540099144
1683140851374211600,15.994211669921874,9.939187049865723,0.2626122832298279,0.09212367236614227
1683140851392050000,16.0120498046875,9.754341125488281,0.30568310618400574,0.04785645380616188
1683140851409876500,16.02987646484375,9.77826976776123,0.28115665912628174,-0.018544375896453857
1683140851427732000,16.04773193359375,9.777671813964844,0.36311084032058716,0.12921242415905
1683140851445569800,16.06556982421875,9.744172096252441,0.3152543902397156,0.12382857501506805
1683140851463407900,16.083407958984374,9.859027862548828,0.36311084032058716,0.0771685317158699
1683140851481248500,16.10124853515625,9.644271850585938,0.3248256742954254,0.1094716340303421
1683140851499086600,16.119086669921874,9.753743171691895,0.27696922421455383,0.038285162299871445
1683140851516916000,16.136916015625,9.78245735168457,0.3535395562648773,0.17647066712379456
1683140851534765600,16.154765625,9.759127616882324,0.30987054109573364,-0.023330021649599075
1683140851552606500,16.1726064453125,9.81117057800293,0.3535395562648773,0.09571290761232376
1683140851570444300,16.1904443359375,9.772886276245117,0.3487538993358612,0.11006984114646912
1683140851588285700,16.20828564453125,9.801599502563477,0.3535395562648773,0.14356936514377594
1683140851606111700,16.22611181640625,9.672985076904297,0.30987054109573364,0.07597211748361588
1683140851623964400,16.24396435546875,9.758528709411621,0.33439695835113525,0.08135596662759781
1683140851641799200,16.261799072265624,9.968499183654785,0.25304099917411804,-0.0029910283628851175
1683140851659643400,16.279643310546874,9.748957633972168,0.33918261528015137,0.10049854964017868
1683140851677481500,16.2974814453125,9.854242324829102,0.2715853750705719,-0.04187439754605293
1683140851695321000,16.315321044921873,9.78245735168457,0.38225340843200684,0.1052841991186142
1683140851713162000,16.333161865234374,9.81535816192627,0.2721835672855377,0.14835500717163086
1683140851730999600,16.35099951171875,9.849455833435059,0.3200400173664093,-0.061016976833343506
1683140851748841500,16.368841552734374,9.687342643737793,0.30568310618400574,0.11904292553663254
1683140851766675700,16.38667578125,9.896714210510254,0.2626122832298279,0.010767702013254166
1683140851784522500,16.4045224609375,9.763314247131348,0.3152543902397156,0.07657032459974289
1683140851802355200,16.422355224609376,9.711270332336426,0.3529413342475891,0.038285162299871445
1683140851820201500,16.440201416015626,9.753743171691895,0.3439682424068451,0.11425728350877762
1683140851838038300,16.458038330078125,9.739984512329102,0.372682124376297,0.1094716340303421
1683140851855875800,16.475875732421876,9.877572059631348,0.32961133122444153,0.14835500717163086
1683140851873705000,16.493705078125,9.683155059814453,0.31465616822242737,0.004785645287483931
1683140851891552300,16.51155224609375,9.834501266479492,0.3200400173664093,0.11964113265275955
1683140851909395700,16.529395751953125,9.854242324829102,0.2961117923259735,0.03409772366285324
1683140851927236600,16.547236572265625,9.730413436889648,0.3535395562648773,0.062213387340307236
1683140851945074700,16.56507470703125,9.882357597351074,0.2913261651992798,0.04366901144385338
1683140851962913000,16.5829130859375,9.835099220275879,0.38703906536102295,0.07178468257188797
1683140851980754000,16.60075390625,9.8871431350708,0.28654050827026367,0.16271193325519562
1683140851998591500,16.618591552734376,9.749555587768555,0.2955136001110077,-0.0568295381963253
1683140852016432400,16.636432373046876,9.772886276245117,0.2913261651992798,0.07178468257188797
1683140852034268000,16.654267822265624,9.906285285949707,0.2913261651992798,0.04426721855998039
1683140852052111600,16.672111572265624,9.768099784851074,0.3008974492549896,0.06699903309345245
1683140852069937400,16.6899375,9.759127616882324,0.36311084032058716,0.03349951654672623
1683140852087790300,16.707790283203124,9.716055870056152,0.3248256742954254,0.12861421704292297
1683140852105628700,16.725628662109376,9.806385040283203,0.3439682424068451,0.07657032459974289
1683140852123466500,16.743466552734375,9.787242889404297,0.32961133122444153,0.11964113265275955
1683140852141310000,16.76131005859375,9.664012908935547,0.2907279431819916,0.023330021649599075
1683140852159148000,16.77914794921875,9.877572059631348,0.32961133122444153,0.1010967567563057
1683140852176986600,16.796986572265624,9.749555587768555,0.3248256742954254,0.05742774158716202
1683140852194827300,16.8148271484375,9.801599502563477,0.33918261528015137,0.06699903309345245
1683140852212664600,16.83266455078125,9.839884757995605,0.3248256742954254,0.04366901144385338
1683140852230504000,16.85050390625,9.834501266479492,0.3678964674472809,0.14356936514377594
1683140852248345300,16.868345458984376,9.863214492797852,0.3008974492549896,0.17228323221206665
1683140852266182700,16.8861826171875,9.754341125488281,0.33379876613616943,-0.009571290574967861
1683140852284024800,16.90402490234375,9.896714210510254,0.267397940158844,0.06759724020957947
1683140852301859600,16.921859619140626,9.8207426071167,0.32961133122444153,0.03888336941599846
1683140852319701500,16.939701416015627,9.777671813964844,0.28654050827026367,0.09092725813388824
1683140852337542400,16.95754248046875,9.830313682556152,0.3487538993358612,0.019740786403417587
1683140852355380200,16.975380126953127,9.720842361450195,0.30568310618400574,0.09511470049619675
1683140852373217500,16.993217529296874,9.872786521911621,0.30568310618400574,0.09631111472845078
1683140852391063800,17.011063720703124,9.69212818145752,0.3002992272377014,0.09990034252405167
1683140852408900000,17.028900146484375,9.65384292602539,0.2955136001110077,0.0568295381963253
1683140852426738000,17.046738037109375,9.830313682556152,0.3439682424068451,0.11964113265275955
1683140852444567000,17.064567138671876,9.749555587768555,0.3433700501918793,0.009571290574967861
1683140852462417400,17.08241748046875,9.772886276245117,0.3535395562648773,0.17168502509593964
1683140852480258300,17.10025830078125,9.682557106018066,0.3433700501918793,0.047258246690034866
1683140852498084400,17.11808447265625,9.806385040283203,0.33918261528015137,0.16271193325519562
1683140852515937500,17.1359375,9.792028427124023,0.267397940158844,0.08614161610603333
1683140852533763300,17.153763427734376,9.735198974609375,0.3242274820804596,-0.004785645287483931
1683140852551615200,17.171615234375,9.91107177734375,0.267397940158844,0.020338991656899452
1683140852569453300,17.189453369140626,9.768099784851074,0.3439682424068451,0.07657032459974289
1683140852587293200,17.207293212890626,9.863214492797852,0.28175488114356995,0.05802594870328903
1683140852605133600,17.225133544921874,9.806385040283203,0.3535395562648773,0.005383851006627083
1683140852622972700,17.24297265625,9.772886276245117,0.3008974492549896,0.11485548317432404
1683140852640811800,17.260811767578126,9.896714210510254,0.28175488114356995,0.03888336941599846
1683140852658652000,17.27865185546875,9.687342643737793,0.3002992272377014,0.11425728350877762
1683140852676490200,17.296490234375,9.725627899169922,0.2955136001110077,0.004785645287483931
1683140852694331100,17.3143310546875,9.763314247131348,0.33439695835113525,0.11964113265275955
1683140852712169000,17.3321689453125,9.758528709411621,0.3535395562648773,0.11425728350877762
1683140852730006500,17.350006591796873,9.76391315460205,0.3194418251514435,0.038285162299871445
1683140852747851000,17.36785107421875,9.69212818145752,0.3290131092071533,0.07118647545576096
1683140852765688600,17.3856884765625,9.92542839050293,0.3248256742954254,0.12023933976888657
1683140852783527000,17.40352685546875,9.701699256896973,0.2907279431819916,0.0526420995593071
1683140852801367000,17.421366943359374,9.69212818145752,0.33858439326286316,0.06640082597732544
1683140852819197200,17.439197265625,9.882357597351074,0.3152543902397156,0.024526432156562805
1683140852837046000,17.4570458984375,9.772886276245117,0.3774677813053131,0.17647066712379456
1683140852854883800,17.4748837890625,9.863214492797852,0.27696922421455383,0.029312077909708023
1683140852872724700,17.492724853515625,9.787840843200684,0.3529413342475891,-0.004187439568340778
1683140852890563000,17.51056298828125,9.90149974822998,0.2721835672855377,0.129810631275177
1683140852908403500,17.528403564453125,9.806385040283203,0.3152543902397156,0.06699903309345245
1683140852926239700,17.54623974609375,9.682557106018066,0.28594231605529785,0.019142581149935722
1683140852944084500,17.56408447265625,9.787242889404297,0.33918261528015137,0.09571290761232376
1683140852961916700,17.581916748046876,9.739386558532715,0.3152543902397156,0.17168502509593964
1683140852979761400,17.599761474609377,9.863813400268555,0.32961133122444153,-0.037088751792907715
1683140852997598200,17.61759814453125,9.725627899169922,0.3242274820804596,0.06699903309345245
1683140853015441700,17.635441650390625,9.792028427124023,0.2715853750705719,0.04785645380616188
1683140853033278200,17.6532783203125,9.858428955078125,0.33918261528015137,0.11964113265275955
1683140853051119400,17.671119384765625,9.625727653503418,0.2955136001110077,-0.024526432156562805
1683140853068957200,17.688957275390624,9.763314247131348,0.35832518339157104,0.14775680005550385
1683140853086797600,17.706797607421876,9.830313682556152,0.3439682424068451,0.07178468257188797
1683140853104636000,17.724635986328124,9.839884757995605,0.3487538993358612,0.08614161610603333
1683140853122476500,17.7424765625,9.777671813964844,0.31046873331069946,0.08614161610603333
1683140853140314600,17.760314697265624,9.815957069396973,0.3200400173664093,0.08135596662759781
1683140853158155300,17.7781552734375,9.972686767578125,0.2721835672855377,0.06340979784727097
1683140853175993300,17.795993408203124,9.749555587768555,0.3194418251514435,0.03349951654672623
1683140853193829400,17.813829345703127,9.849455833435059,0.28115665912628174,0.0005982056609354913
1683140853211671600,17.831671630859375,9.839884757995605,0.372682124376297,0.06759724020957947
1683140853229512400,17.849512451171876,9.739386558532715,0.2961117923259735,0.1621137410402298
1683140853247350500,17.8673505859375,9.825528144836426,0.3487538993358612,0.005383851006627083
1683140853265192700,17.885192626953124,9.663414001464844,0.3002992272377014,0.1333998590707779
1683140853283029500,17.903029541015623,9.801599502563477,0.27696922421455383,0.08614161610603333
1683140853300870400,17.920870361328124,9.844072341918945,0.3200400173664093,0.10049854964017868
1683140853318708500,17.93870849609375,9.754341125488281,0.33379876613616943,0.004785645287483931
1683140853336549000,17.956549072265624,9.8207426071167,0.3487538993358612,0.11485548317432404
1683140853354387000,17.974386962890627,9.720842361450195,0.35832518339157104,0.09990034252405167
1683140853372215800,17.9922158203125,9.806385040283203,0.3535395562648773,0.12442677468061447
1683140853390063000,18.01006298828125,9.67777156829834,0.30987054109573364,0.12861421704292297
1683140853407893800,18.027893798828124,9.806385040283203,0.31465616822242737,0.024526432156562805
1683140853425744600,18.04574462890625,9.934999465942383,0.2961117923259735,0.058624155819416046
1683140853443585500,18.06358544921875,9.701699256896973,0.3433700501918793,0.0568295381963253
1683140853461423400,18.08142333984375,9.835099220275879,0.28594231605529785,0.0005982056609354913
1683140853479264500,18.099264404296875,9.79681396484375,0.38703906536102295,0.11964113265275955
1683140853497102300,18.117102294921875,9.858428955078125,0.3008974492549896,0.17228323221206665
1683140853514942700,18.134942626953126,9.8207426071167,0.3194418251514435,-0.03768695518374443
1683140853532780800,18.15278076171875,9.710672378540039,0.2907279431819916,0.1381855010986328
1683140853550622000,18.1706220703125,9.849455833435059,0.2913261651992798,0.053240302950143814
1683140853568460000,18.1884599609375,9.777671813964844,0.31046873331069946,0.06699903309345245
1683140853586300200,18.206300048828126,9.792028427124023,0.35832518339157104,0.04785645380616188
1683140853604138200,18.22413818359375,9.79681396484375,0.33439695835113525,0.12442677468061447
1683140853621979400,18.2419794921875,9.744172096252441,0.36311084032058716,0.14775680005550385
1683140853639816700,18.259816650390626,9.81117057800293,0.33918261528015137,0.11006984114646912
1683140853657654500,18.277654541015625,9.639486312866211,0.2763710021972656,0.09032905846834183
1683140853675499000,18.2954990234375,9.81117057800293,0.33918261528015137,0.11964113265275955
1683140853693326600,18.31332666015625,9.878170013427734,0.28115665912628174,-0.02751746028661728
1683140853711177200,18.33117724609375,9.792028427124023,0.372682124376297,0.08135596662759781
1683140853729015600,18.349015625,9.868000984191895,0.3008974492549896,0.06281159073114395
1683140853746853400,18.366853271484374,9.787242889404297,0.38225340843200684,0.15732808411121368
1683140853764694000,18.384694091796874,9.853643417358398,0.3008974492549896,0.11006984114646912
1683140853782532400,18.402532470703125,9.749555587768555,0.3194418251514435,0.04785645380616188
1683140853800372700,18.420372802734374,9.806385040283203,0.25722843408584595,0.03888336941599846
1683140853818198800,18.43819873046875,9.859027862548828,0.31046873331069946,0.019740786403417587
1683140853836051700,18.4560517578125,9.725028991699219,0.28115665912628174,0.09990034252405167
1683140853853889300,18.47388916015625,9.76391315460205,0.3481557071208954,0.038285162299871445
1683140853871730400,18.49173046875,9.720842361450195,0.3290131092071533,0.11904292553663254
1683140853889568500,18.509568603515625,9.8207426071167,0.3439682424068451,0.10049854964017868
1683140853907391500,18.5273916015625,9.730413436889648,0.33379876613616943,0.09032905846834183
1683140853925247700,18.545247802734377,9.644271850585938,0.2955136001110077,0.08075776696205139
1683140853943087600,18.563087646484377,9.853643417358398,0.3487538993358612,0.14356936514377594
1683140853960926000,18.580926025390625,9.787840843200684,0.31465616822242737,-0.018544375896453857
1683140853978766600,18.5987666015625,9.801599502563477,0.3487538993358612,0.11006984114646912
1683140853996604000,18.61660400390625,9.772886276245117,0.32961133122444153,0.09092725813388824
1683140854014444800,18.63444482421875,9.825528144836426,0.3487538993358612,0.1339980661869049
1683140854032283100,18.652283203125,9.834501266479492,0.2961117923259735,0.11485548317432404
1683140854050124000,18.6701240234375,9.720842361450195,0.3194418251514435,0.04785645380616188
1683140854067961300,18.68796142578125,9.872786521911621,0.267397940158844,0.053240302950143814
1683140854085802200,18.70580224609375,9.8207426071167,0.31465616822242737,0.062213387340307236
1683140854103637800,18.7236376953125,9.863813400268555,0.2907279431819916,0.005383851006627083
1683140854121484300,18.741484375,9.835099220275879,0.3678964674472809,0.062213387340307236
1683140854139318500,18.759318603515624,9.725028991699219,0.3008974492549896,0.1621137410402298
1683140854157159400,18.777159423828124,9.868000984191895,0.30568310618400574,0.04366901144385338
1683140854174997500,18.79499755859375,9.672985076904297,0.2955136001110077,0.1333998590707779
1683140854192838400,18.81283837890625,9.69212818145752,0.28115665912628174,0.03349951654672623
1683140854210676200,18.83067626953125,9.830313682556152,0.33918261528015137,0.09571290761232376
1683140854228517000,18.84851708984375,9.744770050048828,0.3529413342475891,0.038285162299871445
1683140854246355200,18.866355224609375,9.749555587768555,0.3433700501918793,0.09092725813388824
1683140854264196000,18.884196044921875,9.672985076904297,0.33379876613616943,0.08554340898990631
1683140854282028800,18.90202880859375,9.872786521911621,0.32961133122444153,0.11006984114646912
1683140854299874300,18.919874267578123,9.749555587768555,0.3002992272377014,0.06699903309345245
1683140854317706500,18.93770654296875,9.772886276245117,0.3002992272377014,0.02871387079358101
1683140854335541800,18.955541748046876,9.93978500366211,0.2721835672855377,0.020338991656899452
1683140854353390600,18.973390625,9.725627899169922,0.36729827523231506,0.04307080805301666
1683140854371225600,18.9912255859375,9.79681396484375,0.2955136001110077,0.10049854964017868
1683140854389070000,19.009070068359375,9.768698692321777,0.36251261830329895,0.0526420995593071
1683140854406905000,19.026905029296874,9.820143699645996,0.28654050827026367,0.13878370821475983
1683140854424748300,19.044748291015626,9.849455833435059,0.3248256742954254,0.03888336941599846
1683140854442589200,19.062589111328126,9.701699256896973,0.30508488416671753,0.12861421704292297
1683140854460427300,19.08042724609375,9.777671813964844,0.3152543902397156,0.11006984114646912
1683140854478268200,19.09826806640625,9.79681396484375,0.2955136001110077,0.04785645380616188
1683140854496105700,19.116105712890626,9.830313682556152,0.36251261830329895,0.03888336941599846
1683140854513946000,19.133946044921874,9.748957633972168,0.32961133122444153,0.14297115802764893
1683140854531781000,19.151781005859377,9.672985076904297,0.3242274820804596,0.09990034252405167
1683140854549625300,19.169625244140626,9.872786521911621,0.33918261528015137,0.12442677468061447
1683140854567461400,19.18746142578125,9.69212818145752,0.28115665912628174,0.052043892443180084
1683140854585290500,19.20529052734375,9.76391315460205,0.3481557071208954,0.062213387340307236
1683140854603142000,19.223141845703125,9.859027862548828,0.3248256742954254,0.04366901144385338
1683140854620985600,19.240985595703126,9.772886276245117,0.38703906536102295,0.12861421704292297
1683140854638819000,19.258819091796877,9.78245735168457,0.30508488416671753,0.07657032459974289
1683140854656660700,19.27666064453125,9.768698692321777,0.33379876613616943,0.0526420995593071
1683140854674498800,19.294498779296877,9.906285285949707,0.27696922421455383,0.11545369029045105
1683140854692339500,19.31233935546875,9.79681396484375,0.31465616822242737,0.038285162299871445
1683140854710177000,19.330177001953125,9.79681396484375,0.28594231605529785,0.019740786403417587
1683140854728018000,19.348017822265625,9.830313682556152,0.3439682424068451,0.08135596662759781
1683140854745856500,19.3658564453125,9.725028991699219,0.30987054109573364,0.12382857501506805
1683140854763697200,19.383697265625,9.859027862548828,0.3481557071208954,-0.008973085321485996
1683140854781534700,19.40153466796875,9.720842361450195,0.3242274820804596,0.09511470049619675
1683140854799375000,19.419375,9.815957069396973,0.2715853750705719,0.019740786403417587
1683140854817213700,19.437213623046876,9.824930191040039,0.3248256742954254,0.1339980661869049
1683140854835053800,19.4550537109375,9.644869804382324,0.30987054109573364,-0.019740786403417587
1683140854852892000,19.472891845703124,9.78245735168457,0.35832518339157104,0.15254244208335876
1683140854870732300,19.490732177734376,9.768698692321777,0.3529413342475891,0.04785645380616188
1683140854888563700,19.508563720703126,9.834501266479492,0.3678964674472809,0.17706887423992157
1683140854906411500,19.52641162109375,9.711270332336426,0.3194418251514435,0.07597211748361588
1683140854924249300,19.544249267578124,9.78245735168457,0.3290131092071533,0.08614161610603333
1683140854942089500,19.56208935546875,9.934999465942383,0.2721835672855377,0.08195417374372482
1683140854959927600,19.579927490234375,9.730413436889648,0.3481557071208954,0.019142581149935722
1683140854977767400,19.597767333984375,9.844670295715332,0.2667997181415558,0.03409772366285324
1683140854995607600,19.615607666015624,9.81117057800293,0.372682124376297,0.09092725813388824
1683140855013444400,19.6334443359375,9.815957069396973,0.3002992272377014,0.11964113265275955
1683140855031284500,19.651284423828123,9.835099220275879,0.33858439326286316,0.019740786403417587
1683140855049128700,19.669128662109376,9.67777156829834,0.31465616822242737,0.09511470049619675
1683140855066964000,19.6869638671875,9.872786521911621,0.28115665912628174,0.03888336941599846
1683140855084803800,19.704803955078123,9.753743171691895,0.3242274820804596,0.11425728350877762
1683140855102638800,19.722638916015626,9.720842361450195,0.33379876613616943,0.04307080805301666
1683140855120486000,19.74048583984375,9.815957069396973,0.35832518339157104,0.12442677468061447
1683140855138320600,19.758320556640626,9.754341125488281,0.3577269911766052,0.09032905846834183
1683140855156161000,19.7761611328125,9.815957069396973,0.33439695835113525,0.12921242415905
1683140855173999000,19.7939990234375,9.67777156829834,0.2955136001110077,0.06640082597732544
1683140855191836400,19.81183642578125,9.854242324829102,0.3194418251514435,0.06759724020957947
1683140855209677300,19.82967724609375,9.877572059631348,0.2763710021972656,0.029312077909708023
1683140855227515000,19.847514892578126,9.716055870056152,0.3577269911766052,0.10468599200248718
1683140855245359600,19.865359619140627,9.896714210510254,0.28594231605529785,0.005982056725770235
1683140855263197200,19.883197265625,9.835099220275879,0.38703906536102295,0.07657032459974289
1683140855281034800,19.90103466796875,9.891928672790527,0.28175488114356995,0.129810631275177
1683140855298875400,19.91887548828125,9.79262638092041,0.3194418251514435,-0.004187439568340778
1683140855316713500,19.93671337890625,9.759127616882324,0.2715853750705719,0.03349951654672623
1683140855334554000,19.95455419921875,9.891928672790527,0.2907279431819916,0.03888336941599846
1683140855352380200,19.972380126953126,9.739386558532715,0.3002992272377014,0.15254244208335876
1683140855370232600,19.990232666015626,9.787840843200684,0.3433700501918793,0.019142581149935722
1683140855388059400,20.008059326171875,9.78245735168457,0.3290131092071533,0.09092725813388824
1683140855405911300,20.025911376953125,9.835099220275879,0.36311084032058716,0.12921242415905
1683140855423748900,20.043748779296877,9.787242889404297,0.33858439326286316,0.10049854964017868
1683140855441590000,20.061590087890625,9.658628463745117,0.2955136001110077,0.07118647545576096
1683140855459428000,20.079427978515625,9.92542839050293,0.3248256742954254,0.06759724020957947
1683140855477268500,20.0972685546875,9.787242889404297,0.28594231605529785,0.005383851006627083
1683140855495106300,20.115106201171876,9.720842361450195,0.36729827523231506,0.1381855010986328
1683140855512946700,20.13294677734375,9.873384475708008,0.2907279431819916,-0.017946170642971992
1683140855530784000,20.150783935546876,9.8207426071167,0.3678964674472809,0.09571290761232376
1683140855548626200,20.168626220703125,9.915857315063477,0.267397940158844,0.11545369029045105
1683140855566463200,20.186463134765624,9.739984512329102,0.3290131092071533,0.014356935396790504
1683140855584301300,20.20430126953125,9.854242324829102,0.26201409101486206,0.010169495828449726
1683140855602145300,20.222145263671877,9.8207426071167,0.31465616822242737,0.08135596662759781
1683140855619982300,20.239982421875,9.763314247131348,0.2763710021972656,0.05742774158716202
1683140855637820200,20.257820068359376,9.844670295715332,0.35832518339157104,0.10049854964017868
1683140855655660800,20.275660888671876,9.716055870056152,0.3242274820804596,0.08075776696205139
1683140855673497600,20.29349755859375,9.825528144836426,0.3481557071208954,0.10049854964017868
1683140855691341000,20.311341064453124,9.716055870056152,0.2955136001110077,0.09032905846834183
1683140855709177300,20.32917724609375,9.668798446655273,0.28115665912628174,0.008973085321485996
1683140855727017500,20.347017578125,9.844072341918945,0.33439695835113525,0.12921242415905
1683140855744856600,20.364856689453124,9.7064847946167,0.31465616822242737,0.02392822690308094
1683140855762696700,20.38269677734375,9.78245735168457,0.3529413342475891,0.09092725813388824
1683140855780534300,20.4005341796875,9.753743171691895,0.33379876613616943,0.10468599200248718
1683140855798375200,20.418375244140623,9.835099220275879,0.3487538993358612,0.11964113265275955
1683140855816213500,20.436213623046875,9.801599502563477,0.2955136001110077,0.11964113265275955
1683140855834054000,20.454053955078123,9.744770050048828,0.31465616822242737,0.019142581149935722
1683140855851876600,20.471876708984375,9.949356079101562,0.26201409101486206,-0.003589233849197626
1683140855869732400,20.489732421875,9.768099784851074,0.33379876613616943,0.06699903309345245
1683140855887558700,20.50755859375,9.835099220275879,0.2763710021972656,0.005383851006627083
1683140855905411000,20.5254111328125,9.787242889404297,0.36251261830329895,0.062213387340307236
1683140855923248000,20.543248046875,9.748957633972168,0.30508488416671753,0.15732808411121368
1683140855941089000,20.561089111328126,9.858428955078125,0.30508488416671753,0.0771685317158699
1683140855958927400,20.57892724609375,9.663414001464844,0.2955136001110077,0.09990034252405167
1683140855976768000,20.59676806640625,9.753743171691895,0.2763710021972656,0.05742774158716202
1683140855994593800,20.61459375,9.772886276245117,0.3290131092071533,0.1381855010986328
1683140856012446000,20.632446044921874,9.759127616882324,0.33858439326286316,0.004785645287483931
1683140856030284300,20.6502841796875,9.768099784851074,0.3433700501918793,0.07178468257188797
1683140856048121900,20.668121826171873,9.716055870056152,0.3290131092071533,0.10468599200248718
1683140856065965000,20.685965087890626,9.839286804199219,0.3487538993358612,0.17706887423992157
1683140856083800300,20.70380029296875,9.654440879821777,0.28115665912628174,0.023330021649599075
1683140856101644500,20.72164453125,9.744770050048828,0.3433700501918793,0.10468599200248718
1683140856119482000,20.739482177734374,9.93978500366211,0.2763710021972656,-0.017946170642971992
1683140856137318700,20.757318603515625,9.79681396484375,0.372682124376297,0.12442677468061447
1683140856155160600,20.77516064453125,9.835099220275879,0.2955136001110077,0.014955141581594944
1683140856172997600,20.79299755859375,9.76391315460205,0.36729827523231506,0.07178468257188797
1683140856190835700,20.810835693359376,9.848857879638672,0.28175488114356995,0.16271193325519562
1683140856208679000,20.828678955078125,9.80219841003418,0.3242274820804596,-0.018544375896453857
1683140856226516700,20.846516845703125,9.687342643737793,0.30987054109573364,0.11904292553663254
1683140856244355300,20.864355224609376,9.854242324829102,0.3194418251514435,0.05802594870328903
1683140856262191400,20.88219140625,9.753743171691895,0.3242274820804596,0.1333998590707779
1683140856280033000,20.900032958984376,9.76391315460205,0.3720839321613312,0.038285162299871445
1683140856297864400,20.917864501953126,9.687342643737793,0.3290131092071533,0.12382857501506805
1683140856315711700,20.935711669921876,9.749555587768555,0.31465616822242737,0.062213387340307236
1683140856333549800,20.9535498046875,9.848857879638672,0.3290131092071533,0.1052841991186142
1683140856351381500,20.971381591796874,9.644869804382324,0.2955136001110077,0.018544375896453857
1683140856369230600,20.989230712890624,9.806385040283203,0.3433700501918793,0.13878370821475983
1683140856387069200,21.007069091796875,9.835099220275879,0.3481557071208954,0.03409772366285324
1683140856404909800,21.024909912109376,9.81117057800293,0.36251261830329895,0.11006984114646912
1683140856422747100,21.0427470703125,9.81117057800293,0.3002992272377014,0.0526420995593071
1683140856440587500,21.06058740234375,9.835099220275879,0.3433700501918793,0.048454657196998596
1683140856458425900,21.07842578125,9.924830436706543,0.28654050827026367,0.16331014037132263
1683140856476266200,21.096266357421875,9.707083702087402,0.3194418251514435,-0.02871387079358101
1683140856494104300,21.114104248046875,9.806385040283203,0.28115665912628174,0.062213387340307236
1683140856511944400,21.1319443359375,9.849455833435059,0.36311084032058716,0.10049854964017868
1683140856529782500,21.149782470703126,9.777671813964844,0.3002992272377014,0.1333998590707779
1683140856547620600,21.16762060546875,9.81117057800293,0.3720839321613312,0.005383851006627083
1683140856565464000,21.185464111328123,9.658628463745117,0.30987054109573364,0.15194423496723175
1683140856583302400,21.203302490234375,9.844670295715332,0.28594231605529785,0.053240302950143814
1683140856601126700,21.221126708984375,9.744770050048828,0.33379876613616943,0.07657032459974289
1683140856618980400,21.23898046875,9.663414001464844,0.31465616822242737,0.06161518394947052
1683140856636817400,21.2568173828125,9.859027862548828,0.3535395562648773,0.09092725813388824
1683140856654658000,21.274657958984374,9.749555587768555,0.36251261830329895,0.07597211748361588
1683140856672496400,21.292496337890626,9.777671813964844,0.3577269911766052,0.1094716340303421
1683140856690336800,21.310336669921874,9.687342643737793,0.31465616822242737,0.09990034252405167
1683140856708174000,21.328174072265625,9.849455833435059,0.3194418251514435,0.07657032459974289
1683140856726003200,21.346003173828127,9.906285285949707,0.2955136001110077,0.03409772366285324
1683140856743853000,21.36385302734375,9.716055870056152,0.3481557071208954,0.09032905846834183
1683140856761694000,21.38169384765625,9.92542839050293,0.2763710021972656,0.005982056725770235
1683140856779531500,21.399531494140625,9.835099220275879,0.3768695592880249,0.09571290761232376
1683140856797371400,21.417371337890625,9.848857879638672,0.28115665912628174,0.11485548317432404
1683140856815199200,21.43519921875,9.845269203186035,0.33379876613616943,-0.09451649338006973
1683140856833051100,21.453051025390625,9.768099784851074,0.3002992272377014,0.1052841991186142
1683140856850888400,21.470888427734376,9.944570541381836,0.2715853750705719,0.029910283163189888
1683140856868729000,21.48872900390625,9.687342643737793,0.30508488416671753,0.09511470049619675
1683140856886566700,21.506566650390624,9.69212818145752,0.3242274820804596,0.014356935396790504
1683140856904407800,21.52440771484375,9.772886276245117,0.33379876613616943,0.11425728350877762
1683140856922245000,21.5422451171875,9.772886276245117,0.3577269911766052,0.11425728350877762
1683140856940085500,21.56008544921875,9.79681396484375,0.3242274820804596,0.06699903309345245
1683140856957923300,21.57792333984375,9.672985076904297,0.30987054109573364,0.052043892443180084
1683140856975752400,21.59575244140625,9.915857315063477,0.3248256742954254,0.129810631275177
1683140856993602000,21.61360205078125,9.792028427124023,0.28115665912628174,0.005383851006627083
1683140857011442200,21.631442138671876,9.735198974609375,0.33379876613616943,0.10468599200248718
1683140857029281500,21.649281494140624,9.877572059631348,0.3002992272377014,0.03409772366285324
1683140857047120400,21.667120361328124,9.78245735168457,0.3768695592880249,0.11904292553663254
1683140857064958000,21.6849580078125,9.872786521911621,0.2763710021972656,0.11485548317432404
1683140857082799600,21.702799560546875,9.77826976776123,0.3242274820804596,-0.028115665540099144
1683140857100637200,21.72063720703125,9.877572059631348,0.2667997181415558,0.048454657196998596
1683140857118477600,21.7384775390625,9.839884757995605,0.2955136001110077,0.08135596662759781
1683140857136315400,21.7563154296875,9.7064847946167,0.28594231605529785,0.004785645287483931
1683140857154153000,21.774153076171874,9.754341125488281,0.3529413342475891,0.09032905846834183
1683140857171997000,21.791996826171875,9.739386558532715,0.30508488416671753,0.14775680005550385
1683140857189822500,21.809822509765624,9.863813400268555,0.33858439326286316,-0.018544375896453857
1683140857207671800,21.827671875,9.711270332336426,0.3242274820804596,0.09511470049619675
1683140857225512700,21.8455126953125,9.735198974609375,0.2667997181415558,0.02871387079358101
1683140857243351000,21.86335107421875,9.858428955078125,0.33918261528015137,0.12442677468061447
1683140857261191200,21.881191162109374,9.64965534210205,0.3044866919517517,-0.019740786403417587
1683140857279029000,21.899029052734374,9.753743171691895,0.36729827523231506,0.1333998590707779
1683140857296869600,21.91686962890625,9.81117057800293,0.3290131092071533,0.09571290761232376
1683140857314707700,21.934707763671874,9.844670295715332,0.3481557071208954,0.08614161610603333
1683140857332547800,21.9525478515625,9.81117057800293,0.3002992272377014,0.10049854964017868
1683140857350382800,21.9703828125,9.787242889404297,0.31465616822242737,0.038285162299871445
1683140857368226600,21.9882265625,9.944570541381836,0.25722843408584595,0.03469592705368996
1683140857386064400,22.006064453125,9.773484230041504,0.3194418251514435,0.04307080805301666
1683140857403904800,22.02390478515625,9.830313682556152,0.2763710021972656,0.019740786403417587
1683140857421746700,22.04174658203125,9.825528144836426,0.3720839321613312,0.08614161610603333
1683140857439582500,22.05958251953125,9.734601020812988,0.30987054109573364,0.14297115802764893
1683140857457422600,22.077422607421877,9.835099220275879,0.31465616822242737,0.07178468257188797
1683140857475260000,22.095260009765624,9.663414001464844,0.30508488416671753,0.1094716340303421
1683140857493088800,22.1130888671875,9.758528709411621,0.2715853750705719,0.04307080805301666
1683140857510939400,22.130939453125,9.79681396484375,0.3242274820804596,0.12442677468061447
1683140857528777700,22.14877783203125,9.739984512329102,0.3290131092071533,0.004785645287483931
1683140857546618600,22.16661865234375,9.792028427124023,0.3481557071208954,0.09571290761232376
1683140857564455400,22.184455322265624,9.730413436889648,0.3577269911766052,0.11904292553663254
1683140857582296600,22.202296630859376,9.8207426071167,0.3433700501918793,0.15732808411121368
1683140857600134700,22.220134765625,9.672985076904297,0.30508488416671753,0.052043892443180084
1683140857617965600,22.237965576171874,9.754341125488281,0.3433700501918793,0.08554340898990631
1683140857635812400,22.255812255859375,9.958928108215332,0.26201409101486206,0.03469592705368996
1683140857653652200,22.27365234375,9.79681396484375,0.3481557071208954,0.05742774158716202
1683140857671490800,22.29149072265625,9.887741088867188,0.2907279431819916,0.0005982056609354913
1683140857689332000,22.30933203125,9.8207426071167,0.381655216217041,0.09092725813388824
1683140857707169000,22.3271689453125,9.839286804199219,0.30508488416671753,0.14356936514377594
1683140857724999200,22.344999267578125,9.835099220275879,0.30987054109573364,0.06699903309345245
1683140857742848000,22.362847900390626,9.720842361450195,0.2955136001110077,0.07597211748361588
1683140857760688600,22.380688720703127,9.830313682556152,0.28594231605529785,0.05742774158716202
1683140857778515000,22.398514892578124,9.730413436889648,0.30508488416671753,0.09511470049619675
1683140857796369400,22.416369384765623,9.811769485473633,0.33379876613616943,-0.023330021649599075
1683140857814204700,22.43420458984375,9.748957633972168,0.3481557071208954,0.1094716340303421
1683140857832044500,22.45204443359375,9.768099784851074,0.3290131092071533,0.07657032459974289
1683140857849882400,22.46988232421875,9.820143699645996,0.3194418251514435,0.14835500717163086
1683140857867723300,22.48772314453125,9.620942115783691,0.28534409403800964,0.008973085321485996
1683140857885559300,22.505559326171873,9.79681396484375,0.3433700501918793,0.1052841991186142
1683140857903403500,22.523403564453126,9.873384475708008,0.31465616822242737,0.0005982056609354913
1683140857921239000,22.541239013671873,9.792028427124023,0.38644084334373474,0.15732808411121368
1683140857939080000,22.559079833984374,9.79681396484375,0.2955136001110077,0.02392822690308094
1683140857956917800,22.576917724609373,9.801599502563477,0.3768695592880249,0.09092725813388824
1683140857974758400,22.59475830078125,9.896116256713867,0.30568310618400574,0.1866401731967926
1683140857992595700,22.612595703125,9.830313682556152,0.3194418251514435,-0.008973085321485996
1683140858010436000,22.63043603515625,9.863813400268555,0.2763710021972656,0.014955141581594944
1683140858028274200,22.648274169921876,9.8871431350708,0.2907279431819916,0.06281159073114395
