time,seconds_elapsed,z,y,x
1683134453984998000,0.133997802734375,-0.021651268005371094,0.05193150043487549,-0.05937027931213379
1683134454002838800,0.1518388671875,-0.08692169189453125,-0.10507440567016602,0.032145172357559204
1683134454020682000,0.169681884765625,-0.029264450073242188,0.18142223358154297,-0.0919642448425293
1683134454038521900,0.18752197265625,-0.00127410888671875,-0.0021587610244750977,0.10533469915390015
1683134454056349400,0.205349365234375,-0.03172779083251953,0.15236878395080566,-0.12800705432891846
1683134454074201000,0.223201171875,0.04163551330566406,-0.1033792495727539,0.1639484167098999
1683134454092038000,0.241037841796875,-0.06373405456542969,0.1531440019607544,-0.1305643916130066
1683134454109882400,0.25888232421875,0.020662307739257812,-0.053007304668426514,0.12876105308532715
1683134454127721000,0.276720947265625,-0.02380847930908203,0.09561872482299805,-0.09441733360290527
1683134454145559600,0.2945595703125,0.05532550811767578,-0.033729493618011475,0.13163113594055176
1683134454163396600,0.312396728515625,-0.09010887145996094,0.09033018350601196,-0.08003443479537964
1683134454181232400,0.330232421875,0.029859542846679688,0.08338028192520142,0.03461349010467529
1683134454199079200,0.3480791015625,-0.005450248718261719,-0.06453990936279297,0.02162271738052368
1683134454216918300,0.365918212890625,-0.03707599639892578,0.06452089548110962,-0.007406830787658691
1683134454234757000,0.383757080078125,-0.057689666748046875,-0.0732235312461853,0.017404019832611084
1683134454252598300,0.401598388671875,-0.05454540252685547,0.1410841941833496,-0.07756376266479492
1683134454270436600,0.4194365234375,-0.025671958923339844,-0.04444152116775513,0.07256287336349487
1683134454288275700,0.437275634765625,-0.01673412322998047,0.1704186201095581,-0.0681767463684082
1683134454306112500,0.455112548828125,0.011487007141113281,-0.03144359588623047,0.11865741014480591
1683134454323958300,0.472958251953125,-0.028642654418945312,0.16030371189117432,-0.1271316409111023
1683134454341793500,0.49079345703125,0.06252193450927734,-0.11223375797271729,0.1627604365348816
1683134454359634200,0.50863427734375,-0.023593902587890625,0.08079785108566284,-0.08036118745803833
1683134454377476000,0.52647607421875,0.013212203979492188,-0.05068248510360718,0.107852041721344
1683134454395314700,0.544314697265625,-0.07337379455566406,0.13291609287261963,-0.09740453958511353
1683134454413154000,0.562154052734375,0.06699275970458984,0.026962459087371826,0.07239395380020142
1683134454430987000,0.579987060546875,-0.027225494384765625,0.007465779781341553,-0.007514297962188721
1683134454448824300,0.59782421875,-0.020102500915527344,0.12891215085983276,-0.0168343186378479
1683134454466673700,0.615673583984375,-0.02007770538330078,-0.10248517990112305,0.02175426483154297
1683134454484512300,0.63351220703125,-0.03859424591064453,0.09126543998718262,-0.05340355634689331
1683134454502352100,0.65135205078125,-0.05018901824951172,-0.07686591148376465,0.048059701919555664
1683134454520180200,0.66918017578125,-0.04566764831542969,0.1875343918800354,-0.10477042198181152
1683134454538032000,0.6870322265625,-0.0044841766357421875,-0.04343116283416748,0.12535592913627625
1683134454555864000,0.704864013671875,-0.014026641845703125,0.16996395587921143,-0.11901575326919556
1683134454573710600,0.722710693359375,0.08060359954833984,-0.06313884258270264,0.17735224962234497
1683134454591550700,0.74055078125,-0.08153152465820312,0.11166518926620483,-0.12685030698776245
1683134454609389800,0.758389892578125,0.023220062255859375,-0.07263225317001343,0.12100023031234741
1683134454627229700,0.776229736328125,-0.0245819091796875,0.09477418661117554,-0.09273332357406616
1683134454645069000,0.794069091796875,0.03236961364746094,-0.01625591516494751,0.1275087594985962
1683134454662909000,0.811908935546875,-0.12302112579345703,0.08578407764434814,-0.06446570158004761
1683134454680737000,0.829737060546875,0.011732101440429688,0.09296268224716187,0.034060120582580566
1683134454698588000,0.847587890625,-0.0022420883178710938,-0.041198790073394775,0.02868640422821045
1683134454716425000,0.865425048828125,-0.039938926696777344,0.09686905145645142,-0.01893138885498047
1683134454734270200,0.883270263671875,-0.05005645751953125,-0.09180015325546265,0.032082438468933105
1683134454752106000,0.90110595703125,-0.04869270324707031,0.15877020359039307,-0.08760648965835571
1683134454769947600,0.91894775390625,-0.017551422119140625,-0.058072686195373535,0.07605767250061035
1683134454787785700,0.93678564453125,-0.02285289764404297,0.1749972701072693,-0.0784870982170105
1683134454805614300,0.9546142578125,-0.01212310791015625,-0.02426213026046753,0.13482671976089478
1683134454823465700,0.9724658203125,-0.02703857421875,0.16332793235778809,-0.1315174698829651
1683134454841304800,0.990304931640625,0.05837249755859375,-0.06604880094528198,0.17411857843399048
1683134454859144700,1.008144775390625,-0.044648170471191406,0.06933188438415527,-0.07839369773864746
1683134454876984000,1.025984130859375,-0.02144145965576172,-0.04300844669342041,0.09238550066947937
1683134454894824200,1.04382421875,-0.06177520751953125,0.11359161138534546,-0.10322397947311401
1683134454912667600,1.061667724609375,0.0651845932006836,0.01817190647125244,0.06808993220329285
1683134454930503400,1.07950341796875,-0.027669906616210938,0.0007157325744628906,0.007108330726623535
1683134454948342000,1.097342041015625,-0.011553764343261719,0.14124971628189087,-0.030309557914733887
1683134454966183400,1.115183349609375,-0.015570640563964844,-0.11230558156967163,0.04305112361907959
1683134454984021500,1.133021484375,-0.042644500732421875,0.09761291742324829,-0.05208861827850342
1683134455001861400,1.150861328125,-0.054236412048339844,-0.09278541803359985,0.05267941951751709
1683134455019701200,1.168701171875,-0.052597999572753906,0.17623507976531982,-0.10479366779327393
1683134455037528800,1.18652880859375,-0.013589859008789062,-0.05979585647583008,0.1036078929901123
1683134455055369000,1.204368896484375,-0.004427909851074219,0.1571723222732544,-0.11831402778625488
1683134455073215500,1.222215576171875,0.085357666015625,-0.055668413639068604,0.18233227729797363
1683134455091060000,1.24006005859375,-0.07344722747802734,0.10887408256530762,-0.13349932432174683
1683134455108899300,1.2578994140625,0.04598522186279297,-0.071505606174469,0.1270233392715454
1683134455126737400,1.2757373046875,-0.01585102081298828,0.07570445537567139,-0.07733911275863647
1683134455144579300,1.293579345703125,0.02437114715576172,-0.0031017065048217773,0.12365055084228516
1683134455162418000,1.31141796875,-0.1281757354736328,0.0903235673904419,-0.06265950202941895
1683134455180257800,1.3292578125,0.008320808410644531,0.09668236970901489,0.01654106378555298
1683134455198096600,1.3470966796875,-0.014025688171386719,-0.027278423309326172,0.025966227054595947
1683134455215937000,1.36493701171875,-0.053310394287109375,0.11263197660446167,-0.029100537300109863
1683134455233776000,1.382776123046875,-0.05018806457519531,-0.11657130718231201,0.036173105239868164
1683134455251612200,1.400612060546875,-0.042433738708496094,0.1556684970855713,-0.09842753410339355
1683134455269460000,1.4184599609375,-0.017827987670898438,-0.07406467199325562,0.07680439949035645
1683134455287295000,1.436294921875,-0.017507553100585938,0.16848212480545044,-0.07485657930374146
1683134455305134800,1.454134765625,0.0022077560424804688,-0.011644303798675537,0.1363687515258789
1683134455322974700,1.471974609375,-0.04297828674316406,0.16746258735656738,-0.13330984115600586
1683134455340813800,1.489813720703125,0.0597991943359375,-0.05928260087966919,0.1742674708366394
1683134455358653400,1.5076533203125,-0.04380607604980469,0.06613808870315552,-0.08088880777359009
1683134455376490200,1.525490234375,-0.03974151611328125,-0.0427778959274292,0.0755709707736969
1683134455394331400,1.543331298828125,-0.06507301330566406,0.07482492923736572,-0.09248137474060059
1683134455412172000,1.561172119140625,0.03411388397216797,0.03601557016372681,0.040677428245544434
1683134455430012200,1.57901220703125,-0.043272972106933594,0.0063086748123168945,0.013231635093688965
1683134455447854600,1.5968544921875,-0.023372650146484375,0.14022064208984375,-0.03703272342681885
1683134455465691600,1.614691650390625,0.006295204162597656,-0.10523539781570435,0.05108147859573364
1683134455483530200,1.6325302734375,-0.07114601135253906,0.11957502365112305,-0.06849277019500732
1683134455501370600,1.65037060546875,-0.05955314636230469,-0.09406185150146484,0.0636172890663147
1683134455519211500,1.66821142578125,-0.05373954772949219,0.1829175353050232,-0.11212927103042603
1683134455537051000,1.68605078125,0.000347137451171875,-0.0680621862411499,0.1062074601650238
1683134455554888700,1.703888671875,-0.00069427490234375,0.152726948261261,-0.1204642653465271
1683134455572729900,1.721729736328125,0.08220672607421875,-0.044993460178375244,0.1820707619190216
1683134455590568400,1.739568359375,-0.06935405731201172,0.09749186038970947,-0.133594810962677
1683134455608390100,1.75739013671875,0.030496597290039062,-0.07217448949813843,0.11636820435523987
1683134455626246700,1.77524658203125,-0.0018625259399414062,0.04971665143966675,-0.06362783908843994
1683134455644084200,1.793084228515625,0.012534141540527344,-0.0008587837219238281,0.08394598960876465
1683134455661929500,1.810929443359375,-0.11669445037841797,0.06299006938934326,-0.05482208728790283
1683134455679763500,1.828763427734375,0.0021076202392578125,0.10994929075241089,-0.0002478361129760742
1683134455697608200,1.846608154296875,-0.01891326904296875,-0.012219727039337158,0.04714122414588928
1683134455715441000,1.86444091796875,-0.051311492919921875,0.12958455085754395,-0.04621565341949463
1683134455733285600,1.88228564453125,-0.03259086608886719,-0.10903489589691162,0.059323132038116455
1683134455751124700,1.900124755859375,-0.03264617919921875,0.17350000143051147,-0.11020678281784058
1683134455768963000,1.917963134765625,-0.016411781311035156,-0.10255134105682373,0.0977659821510315
1683134455786805000,1.935804931640625,-0.019786834716796875,0.15950828790664673,-0.07213175296783447
1683134455804643300,1.953643310546875,0.02339935302734375,-0.015072107315063477,0.1441853642463684
1683134455822483200,1.971483154296875,-0.04905128479003906,0.1623329520225525,-0.12028855085372925
1683134455840321300,1.9893212890625,0.0650177001953125,-0.026321828365325928,0.17732709646224976
1683134455858163200,2.0071630859375,-0.04952812194824219,0.05500704050064087,-0.07543498277664185
1683134455876001300,2.025001220703125,-0.05272483825683594,-0.024777710437774658,0.06657719612121582
1683134455893841400,2.04284130859375,-0.06979846954345703,0.04076027870178223,-0.07934749126434326
1683134455911680500,2.060680419921875,0.010999679565429688,0.026045620441436768,0.03607451915740967
1683134455929508900,2.0785087890625,-0.057333946228027344,0.01309889554977417,0.01968085765838623
1683134455947360000,2.096360107421875,-0.04791259765625,0.13311845064163208,-0.050559937953948975
1683134455965200100,2.1142001953125,0.0009288787841796875,-0.1035962700843811,0.06439834833145142
1683134455983039500,2.13203955078125,-0.06484603881835938,0.14045941829681396,-0.08513098955154419
1683134456000878600,2.149878662109375,-0.04141712188720703,-0.1123695969581604,0.09545651078224182
1683134456018713600,2.167713623046875,-0.050998687744140625,0.18036478757858276,-0.13009560108184814
1683134456036558300,2.185558349609375,0.0073394775390625,-0.07192826271057129,0.10943359136581421
1683134456054394400,2.203394287109375,-0.009870529174804688,0.1485065221786499,-0.10317391157150269
1683134456072240000,2.221240234375,0.07593059539794922,-0.03403592109680176,0.16869047284126282
1683134456090075600,2.23907568359375,-0.08739089965820312,0.09519940614700317,-0.13498008251190186
1683134456107918000,2.25691796875,0.025613784790039062,-0.05861163139343262,0.11470973491668701
1683134456125755600,2.274755615234375,0.029386520385742188,0.020550429821014404,-0.04904872179031372
1683134456143592400,2.292592529296875,0.008502960205078125,0.012863337993621826,0.07687094807624817
1683134456161436700,2.310436767578125,-0.10602760314941406,0.04839128255844116,-0.03869974613189697
1683134456179276300,2.3282763671875,0.0001430511474609375,0.10781353712081909,-0.0014028549194335938
1683134456197114400,2.3461142578125,-0.013029098510742188,-0.005925595760345459,0.057973653078079224
1683134456214954200,2.363954345703125,-0.046959877014160156,0.1385362148284912,-0.06606477499008179
1683134456232789800,2.381789794921875,-0.02562713623046875,-0.1276140809059143,0.07151597738265991
1683134456250631700,2.399631591796875,-0.04045581817626953,0.1605757474899292,-0.1226009726524353
1683134456268474600,2.417474609375,-0.0026731491088867188,-0.11870050430297852,0.11500290036201477
1683134456286312200,2.435312255859375,-0.018770217895507812,0.16381210088729858,-0.08301937580108643
1683134456304151600,2.453151611328125,0.04088020324707031,-0.018516361713409424,0.14324229955673218
1683134456321992000,2.470991943359375,-0.05679035186767578,0.15944957733154297,-0.11849385499954224
1683134456339830500,2.48883056640625,0.06756210327148438,-0.016864001750946045,0.18109315633773804
1683134456357671000,2.5066708984375,-0.047776222229003906,0.05526548624038696,-0.06364846229553223
1683134456375510000,2.524510009765625,-0.05916881561279297,0.004018425941467285,0.06296217441558838
1683134456393349600,2.542349609375,-0.058307647705078125,0.014490842819213867,-0.07384413480758667
1683134456411187700,2.560187744140625,-0.009710311889648438,0.03905045986175537,0.03196817636489868
1683134456429030100,2.578030029296875,-0.059905052185058594,-0.00026863813400268555,0.025601625442504883
1683134456446868200,2.5958681640625,-0.04183483123779297,0.1419711709022522,-0.06434035301208496
1683134456464708000,2.6137080078125,-0.019188880920410156,-0.10848009586334229,0.07342249155044556
1683134456482547500,2.63154736328125,-0.058701515197753906,0.13793998956680298,-0.08429080247879028
1683134456500387300,2.64938720703125,-0.03818798065185547,-0.11468356847763062,0.09577780961990356
1683134456518225700,2.6672255859375,-0.03821277618408203,0.1702437400817871,-0.12905335426330566
1683134456536067600,2.685067626953125,0.0017023086547851562,-0.09025627374649048,0.123040109872818
1683134456553905400,2.702905517578125,-0.022611618041992188,0.13828766345977783,-0.09956938028335571
1683134456571737300,2.7207373046875,0.08076000213623047,-0.017258882522583008,0.1725359559059143
1683134456589585000,2.7385849609375,-0.10962390899658203,0.0998392105102539,-0.11629247665405273
1683134456607425000,2.756425048828125,0.0011234283447265625,-0.03440219163894653,0.12096798419952393
1683134456625262600,2.7742626953125,0.02156543731689453,-0.004570305347442627,-0.03907120227813721
1683134456643106800,2.79210693359375,0.000629425048828125,0.01302260160446167,0.05270582437515259
1683134456660943400,2.809943359375,-0.097625732421875,0.024741411209106445,-0.04277694225311279
1683134456678783200,2.827783203125,-0.023618698120117188,0.10435211658477783,-0.01867300271987915
1683134456696622300,2.845622314453125,-0.009490013122558594,0.005707859992980957,0.05646467208862305
1683134456714462200,2.863462158203125,-0.04290962219238281,0.13778996467590332,-0.0658254623413086
1683134456732300500,2.881300537109375,-0.03269195556640625,-0.11726480722427368,0.07459771633148193
1683134456750142700,2.899142822265625,-0.059256553649902344,0.16598379611968994,-0.11639571189880371
1683134456767969300,2.91696923828125,0.0028553009033203125,-0.13275748491287231,0.12465018033981323
1683134456785820400,2.9348203125,-0.017899513244628906,0.14327669143676758,-0.0943913459777832
1683134456803655200,2.9526552734375,0.035134315490722656,-0.028592586517333984,0.1350412368774414
1683134456821500000,2.9705,-0.056044578552246094,0.1596827507019043,-0.13113164901733398
1683134456839338800,2.9883388671875,0.08509254455566406,-0.016318023204803467,0.16569668054580688
1683134456857179100,3.00617919921875,-0.061603546142578125,0.05259215831756592,-0.06856411695480347
1683134456875018500,3.0240185546875,-0.036704063415527344,0.024519145488739014,0.06087425351142883
1683134456892858000,3.041858154296875,-0.03480339050292969,-0.0018528103828430176,-0.05312091112136841
1683134456910694400,3.0596943359375,-0.0014476776123046875,0.03985553979873657,0.029761075973510742
1683134456928526800,3.07752685546875,-0.07308197021484375,0.003747701644897461,0.02607804536819458
1683134456946377500,3.09537744140625,-0.04604148864746094,0.15230751037597656,-0.055691659450531006
1683134456964216800,3.113216796875,-0.03877067565917969,-0.07559096813201904,0.07757842540740967
1683134456982055400,3.131055419921875,-0.06155967712402344,0.15260690450668335,-0.08091312646865845
1683134456999883800,3.1488837890625,-0.04458332061767578,-0.10640901327133179,0.08345785737037659
1683134457017735000,3.16673486328125,-0.023677825927734375,0.15531963109970093,-0.13558870553970337
1683134457035575000,3.184574951171875,-0.011762619018554688,-0.10355806350708008,0.12114280462265015
1683134457053408800,3.20240869140625,-0.012551307678222656,0.13398867845535278,-0.10173320770263672
1683134457071253500,3.22025341796875,0.08527278900146484,-0.011503219604492188,0.14579719305038452
1683134457089093000,3.238093017578125,-0.13154888153076172,0.11742943525314331,-0.11134147644042969
1683134457106921000,3.2559208984375,-0.0033044815063476562,-0.01205211877822876,0.11017465591430664
1683134457124767200,3.273767333984375,-0.006893157958984375,-0.011624395847320557,-0.037117063999176025
1683134457142612700,3.29161279296875,-0.029848098754882812,0.023505568504333496,0.027272582054138184
1683134457160441900,3.30944189453125,-0.07565975189208984,-0.011618614196777344,-0.03984647989273071
1683134457178291000,3.327291015625,-0.038051605224609375,0.09903573989868164,-0.01930147409439087
1683134457196133400,3.34513330078125,-0.01207733154296875,-0.023943960666656494,0.05462738871574402
1683134457213970000,3.362969970703125,-0.050621986389160156,0.16109466552734375,-0.07504421472549438
1683134457231809800,3.380809814453125,-0.037171363830566406,-0.11412584781646729,0.09007793664932251
1683134457249649000,3.39864892578125,-0.05234527587890625,0.16415250301361084,-0.12330424785614014
1683134457267490300,3.416490234375,0.012406349182128906,-0.13415038585662842,0.12721681594848633
1683134457285328100,3.434328125,-0.036002159118652344,0.13428544998168945,-0.0929497480392456
1683134457303168000,3.45216796875,0.0257568359375,-0.04148465394973755,0.1328544318675995
1683134457321007900,3.4700078125,-0.04438591003417969,0.1577625274658203,-0.11868089437484741
1683134457338847000,3.487846923828125,0.11696052551269531,-0.015926837921142578,0.17559316754341125
1683134457356686600,3.5056865234375,-0.07116127014160156,0.05383843183517456,-0.07307469844818115
1683134457374521900,3.52352197265625,-0.023736953735351562,0.028487741947174072,0.05590668320655823
1683134457392366800,3.541366943359375,-0.03033447265625,-0.03522467613220215,-0.04375302791595459
1683134457410205200,3.559205078125,-0.00177001953125,0.04679518938064575,0.01832449436187744
1683134457428045000,3.577045166015625,-0.08354854583740234,-0.01797860860824585,0.013454973697662354
1683134457445879800,3.5948798828125,-0.05642986297607422,0.14302211999893188,-0.0589640736579895
1683134457463712500,3.61271240234375,-0.044119834899902344,-0.05779796838760376,0.07415908575057983
1683134457481563100,3.630563232421875,-0.054816246032714844,0.1534940004348755,-0.07763344049453735
1683134457499400400,3.648400390625,-0.03777599334716797,-0.09265851974487305,0.09300738573074341
1683134457517234000,3.66623388671875,-0.030991554260253906,0.14546585083007812,-0.13438886404037476
1683134457535083000,3.6840830078125,-0.015430450439453125,-0.11860966682434082,0.13244187831878662
1683134457552919800,3.701919921875,-0.015514373779296875,0.11925441026687622,-0.09676682949066162
1683134457570762800,3.7197626953125,0.06314373016357422,-0.036256253719329834,0.13330048322677612
1683134457588602400,3.737602294921875,-0.13811111450195312,0.12279456853866577,-0.10465949773788452
1683134457606441000,3.75544091796875,0.01829814910888672,0.011669814586639404,0.11273312568664551
1683134457624277500,3.773277587890625,-0.013156890869140625,-0.01807272434234619,-0.028168797492980957
1683134457642122800,3.791122802734375,-0.06196022033691406,0.030572175979614258,0.030087649822235107
1683134457659959300,3.808959228515625,-0.044808387756347656,-0.03147834539413452,-0.03583592176437378
1683134457677799200,3.826799072265625,-0.024600982666015625,0.08917587995529175,-0.02554178237915039
1683134457695633700,3.844633544921875,-0.02499675750732422,-0.013064026832580566,0.04116910696029663
1683134457713469000,3.862468994140625,-0.08002471923828125,0.16522103548049927,-0.08523112535476685
1683134457731317800,3.88031787109375,-0.056693077087402344,-0.0900125503540039,0.10128384828567505
1683134457749158100,3.898158203125,-0.04590320587158203,0.16112613677978516,-0.10979920625686646
1683134457766986000,3.915986083984375,0.015301704406738281,-0.13683944940567017,0.1457434892654419
1683134457784836600,3.933836669921875,-0.05309486389160156,0.12136679887771606,-0.11111730337142944
1683134457802672400,3.95167236328125,-0.0015821456909179688,-0.06848061084747314,0.127731591463089
1683134457820514600,3.9695146484375,-0.03426837921142578,0.1590191125869751,-0.12109947204589844
1683134457838337300,3.987337158203125,0.13471412658691406,-0.025557637214660645,0.15450811386108398
1683134457856196000,4.005196044921875,-0.10231304168701172,0.07359963655471802,-0.08903205394744873
1683134457874034400,4.023034423828125,-0.0062999725341796875,0.038389384746551514,0.05515319108963013
1683134457891873000,4.040873046875,-0.025945663452148438,-0.047218263149261475,-0.03100132942199707
1683134457909714400,4.05871435546875,-0.002437591552734375,0.023322343826293945,0.0123063325881958
1683134457927549700,4.0765498046875,-0.0890359878540039,-0.03979462385177612,0.0013666749000549316
1683134457945396500,4.094396484375,-0.05177783966064453,0.11459600925445557,-0.05160057544708252
1683134457963232500,4.112232421875,-0.03554058074951172,-0.04097616672515869,0.07440921664237976
1683134457981072000,4.13007177734375,-0.03341960906982422,0.15972793102264404,-0.08076202869415283
1683134457998911700,4.147911865234375,-0.011819839477539062,-0.10659754276275635,0.09948715567588806
1683134458016746200,4.165746337890625,-0.02922821044921875,0.16180449724197388,-0.14001178741455078
1683134458034596600,4.1835966796875,0.0066986083984375,-0.12620282173156738,0.13952702283859253
1683134458052429800,4.201429931640625,-0.010046005249023438,0.10450339317321777,-0.08978289365768433
1683134458070270200,4.219270263671875,0.0373077392578125,-0.062131643295288086,0.1394871175289154
1683134458088109600,4.237109619140625,-0.13413238525390625,0.1386433243751526,-0.10253548622131348
1683134458105949200,4.25494921875,0.03719615936279297,0.00772404670715332,0.10572367906570435
1683134458123789300,4.272789306640625,-0.016185760498046875,-0.005973696708679199,-0.026487290859222412
1683134458141626400,4.29062646484375,-0.09087085723876953,0.06277501583099365,0.03531026840209961
1683134458159468300,4.30846826171875,-0.033756256103515625,-0.06688171625137329,-0.026444077491760254
1683134458177308000,4.326307861328125,-0.015645980834960938,0.06429952383041382,-0.02986520528793335
1683134458195146500,4.344146484375,-0.04786205291748047,-0.03924518823623657,0.03334754705429077
1683134458212986000,4.361986083984375,-0.09297752380371094,0.15915828943252563,-0.09209334850311279
1683134458230826200,4.379826171875,-0.06649589538574219,-0.07236343622207642,0.08976811170578003
1683134458248666000,4.397666015625,-0.04823112487792969,0.1426483392715454,-0.11348587274551392
1683134458266505000,4.4155048828125,0.012858390808105469,-0.11909627914428711,0.1634964942932129
1683134458284344800,4.4333447265625,-0.06941413879394531,0.12911981344223022,-0.12166553735733032
1683134458302184200,4.45118408203125,-0.020116806030273438,-0.09581375122070312,0.13757550716400146
1683134458320024000,4.469024169921875,-0.026651382446289062,0.13559025526046753,-0.10911798477172852
1683134458337863400,4.486863525390625,0.10986518859863281,-0.035665929317474365,0.15200203657150269
1683134458355702800,4.504702880859375,-0.1200246810913086,0.07183611392974854,-0.09812569618225098
1683134458373542700,4.522542724609375,0.0007944107055664062,0.04050004482269287,0.06343743205070496
1683134458391382300,4.54038232421875,0.0051784515380859375,-0.05663639307022095,0.0055817365646362305
1683134458409222000,4.558221923828125,-0.02951812744140625,0.0370715856552124,0.013648450374603271
1683134458427060700,4.576060791015625,-0.10101890563964844,-0.04431915283203125,-0.013889133930206299
1683134458444902000,4.59390185546875,-0.05845832824707031,0.11006903648376465,-0.04120492935180664
1683134458462737200,4.611737060546875,-0.0126953125,-0.030043184757232666,0.06550019979476929
1683134458480567800,4.62956787109375,-0.012332916259765625,0.15527570247650146,-0.07130861282348633
1683134458498419700,4.647419677734375,-0.020692825317382812,-0.09991437196731567,0.11030328273773193
1683134458516259300,4.66525927734375,-0.034030914306640625,0.15351206064224243,-0.12599676847457886
1683134458534094300,4.68309423828125,0.023947715759277344,-0.15164953470230103,0.13875412940979004
1683134458551938000,4.70093798828125,-0.03276824951171875,0.09516000747680664,-0.10343796014785767
1683134458569778200,4.718778076171875,0.0107879638671875,-0.07536876201629639,0.1325482726097107
1683134458587617500,4.736617431640625,-0.0912628173828125,0.14157962799072266,-0.10993403196334839
1683134458605449200,4.75444921875,0.07951927185058594,-0.008421599864959717,0.12987658381462097
1683134458623296500,4.772296630859375,-0.04648780822753906,0.017744064331054688,-0.041194796562194824
1683134458641136400,4.790136474609375,-0.03413677215576172,0.06324082612991333,0.04181116819381714
1683134458658976300,4.807976318359375,-0.02213287353515625,-0.06865465641021729,-0.01969611644744873
1683134458676816000,4.82581591796875,-0.005513191223144531,0.0572628378868103,-0.007557988166809082
1683134458694654700,4.84365478515625,-0.05383777618408203,-0.054153621196746826,0.030067384243011475
1683134458712494300,4.861494384765625,-0.0809316635131836,0.15310001373291016,-0.0839083194732666
1683134458730334000,4.879333984375,-0.07783031463623047,-0.06861907243728638,0.086215078830719
1683134458748174600,4.897174560546875,-0.030959129333496094,0.14195764064788818,-0.10102874040603638
1683134458766013200,4.91501318359375,-0.0020294189453125,-0.09251320362091064,0.14273488521575928
1683134458783848400,4.932848388671875,-0.06743812561035156,0.1261940598487854,-0.12250041961669922
1683134458801692400,4.9506923828125,-0.015254974365234375,-0.10152047872543335,0.12599021196365356
1683134458819532500,4.968532470703125,-0.01860809326171875,0.12243974208831787,-0.09682470560073853
1683134458837371400,4.986371337890625,0.08562278747558594,-0.04718846082687378,0.14479473233222961
1683134458855206700,5.00420654296875,-0.12183666229248047,0.09501022100448608,-0.09496057033538818
1683134458873051000,5.02205078125,0.007042884826660156,0.027347207069396973,0.07075482606887817
1683134458890891000,5.03989111328125,-0.008500099182128906,-0.04546558856964111,0.0016068220138549805
1683134458908728600,5.057728515625,-0.06061267852783203,0.04588347673416138,0.015559792518615723
1683134458926570800,5.07557080078125,-0.0925588607788086,-0.05322563648223877,-0.0198671817779541
1683134458944409000,5.0934091796875,-0.04453277587890625,0.1033792495727539,-0.03268808126449585
1683134458962249000,5.1112490234375,-0.0072956085205078125,-0.03645831346511841,0.05928179621696472
1683134458980088000,5.129088134765625,-0.0390777587890625,0.14069771766662598,-0.06277412176132202
1683134458997928000,5.146927978515625,-0.041678428649902344,-0.09853756427764893,0.11642038822174072
1683134459015764700,5.1647646484375,-0.044147491455078125,0.15830647945404053,-0.12972891330718994
1683134459033608000,5.18260791015625,0.03272724151611328,-0.1353355050086975,0.14190611243247986
1683134459051443700,5.200443603515625,-0.055828094482421875,0.10965758562088013,-0.10478615760803223
1683134459069289500,5.21828955078125,-0.01909923553466797,-0.06400495767593384,0.13546860218048096
1683134459087126000,5.2361259765625,-0.05108356475830078,0.13043129444122314,-0.11031687259674072
1683134459104961300,5.253961181640625,0.10157012939453125,-0.019349634647369385,0.13601458072662354
1683134459122801400,5.271801513671875,-0.08397769927978516,0.03450208902359009,-0.05215698480606079
1683134459140646400,5.289646484375,-0.016147613525390625,0.05278337001800537,0.03893089294433594
1683134459158484500,5.307484375,-0.0023202896118164062,-0.07223272323608398,-0.014110326766967773
1683134459176320300,5.3253203125,-0.010910987854003906,0.05892360210418701,-0.007413208484649658
1683134459194162200,5.343162109375,-0.06424999237060547,-0.061788320541381836,0.015790343284606934
1683134459212004000,5.361004150390625,-0.06380271911621094,0.14059388637542725,-0.07037371397018433
1683134459229841400,5.37884130859375,-0.0731191635131836,-0.03907191753387451,0.08414870500564575
1683134459247684000,5.39668408203125,-0.05278587341308594,0.1550130844116211,-0.08567970991134644
1683134459265509600,5.414509521484375,-0.012746810913085938,-0.08532178401947021,0.12215301394462585
1683134459283361300,5.432361328125,-0.04981517791748047,0.14312094449996948,-0.1345221996307373
1683134459301189400,5.450189453125,0.014891624450683594,-0.11687833070755005,0.14491933584213257
1683134459319041000,5.468041015625,-0.02426910400390625,0.09801274538040161,-0.08869355916976929
1683134459336880000,5.485880126953125,0.039829254150390625,-0.04735475778579712,0.12159931659698486
1683134459354719500,5.503719482421875,-0.12731170654296875,0.11821591854095459,-0.10008811950683594
1683134459372559400,5.521559326171875,0.027029991149902344,0.027419567108154297,0.08325481414794922
1683134459390399500,5.5393994140625,-0.019919395446777344,-0.0188867449760437,-0.000964820384979248
1683134459408226300,5.557226318359375,-0.08182811737060547,0.06496530771255493,0.01907491683959961
1683134459426072800,5.57507275390625,-0.053244590759277344,-0.07316726446151733,-0.007062077522277832
1683134459443917000,5.5929169921875,-0.039272308349609375,0.10361999273300171,-0.03839749097824097
1683134459461759700,5.610759765625,-0.018871307373046875,-0.053044676780700684,0.06016039848327637
1683134459479596500,5.628596435546875,-0.06466960906982422,0.1534593105316162,-0.08802884817123413
1683134459497436400,5.6464365234375,-0.05589485168457031,-0.07340055704116821,0.10790205001831055
1683134459515276000,5.664276123046875,-0.042267799377441406,0.16062670946121216,-0.12319904565811157
1683134459533116200,5.6821162109375,0.02279186248779297,-0.13720345497131348,0.16341334581375122
1683134459550954000,5.6999541015625,-0.0808868408203125,0.10178589820861816,-0.11750322580337524
1683134459568796200,5.717796142578125,-0.03689861297607422,-0.06644362211227417,0.1380501091480255
1683134459586634500,5.735634521484375,-0.034821510314941406,0.1313457489013672,-0.1178596019744873
1683134459604474400,5.753474365234375,0.11664676666259766,-0.040158748626708984,0.1480170488357544
1683134459622313500,5.7713134765625,-0.1164999008178711,0.07179147005081177,-0.08360952138900757
1683134459640153600,5.789153564453125,-0.0011720657348632812,0.03676265478134155,0.042691707611083984
1683134459657993000,5.806992919921875,-0.012355804443359375,-0.07440871000289917,-0.009237706661224365
1683134459675821000,5.824821044921875,-0.016271591186523438,0.03968250751495361,-0.0005539059638977051
1683134459693672000,5.842671875,-0.0742349624633789,-0.0815550684928894,0.012328922748565674
1683134459711509800,5.860509765625,-0.08599853515625,0.1305910348892212,-0.0711107850074768
1683134459729353700,5.878353759765625,-0.05315971374511719,-0.04400932788848877,0.08460664749145508
1683134459747191300,5.89619140625,-0.04300117492675781,0.15089255571365356,-0.07514524459838867
1683134459765030400,5.914030517578125,-0.007115364074707031,-0.07396131753921509,0.10821670293807983
1683134459782870300,5.931870361328125,-0.043506622314453125,0.12610477209091187,-0.13070416450500488
1683134459800709600,5.949709716796875,0.03879070281982422,-0.13844716548919678,0.1342790126800537
1683134459818549800,5.9675498046875,-0.021599769592285156,0.08635640144348145,-0.08284878730773926
1683134459836389600,5.9853896484375,0.007756233215332031,-0.06234455108642578,0.11756062507629395
1683134459854227700,6.003227783203125,-0.11263656616210938,0.11752748489379883,-0.09732156991958618
1683134459872066800,6.02106689453125,0.04085063934326172,0.02023923397064209,0.07724970579147339
1683134459889909000,6.038908935546875,-0.025549888610839844,-0.02859431505203247,0.0073770880699157715
1683134459907747000,6.0567470703125,-0.08113765716552734,0.09661531448364258,-0.0037078261375427246
1683134459925587200,6.074587158203125,-0.043792724609375,-0.10031002759933472,0.012029051780700684
1683134459943426000,6.092426025390625,-0.046776771545410156,0.08308964967727661,-0.051241278648376465
1683134459961266200,6.11026611328125,-0.0390777587890625,-0.07807207107543945,0.053515851497650146
1683134459979105300,6.128105224609375,-0.06989002227783203,0.1525965929031372,-0.10563498735427856
1683134459996945200,6.145945068359375,-0.056405067443847656,-0.06578570604324341,0.11550122499465942
1683134460014785000,6.163784912109375,-0.03673076629638672,0.14856529235839844,-0.11617743968963623
1683134460032624400,6.181624267578125,0.038140296936035156,-0.1149899959564209,0.1694532036781311
1683134460050464000,6.199464111328125,-0.08215904235839844,0.10044676065444946,-0.1146288514137268
1683134460068304100,6.21730419921875,-0.0311431884765625,-0.07479774951934814,0.13830089569091797
1683134460086143000,6.23514306640625,-0.021528244018554688,0.1106906533241272,-0.10155582427978516
1683134460103983000,6.252983154296875,0.08065319061279297,-0.040897250175476074,0.13326957821846008
1683134460121822200,6.270822265625,-0.13466358184814453,0.05891507863998413,-0.07091343402862549
1683134460139662000,6.288662109375,0.00043773651123046875,0.06250166893005371,0.02318871021270752
1683134460157499000,6.306498779296875,-0.009214401245117188,-0.07521116733551025,0.01676928997039795
1683134460175341600,6.324341552734375,-0.038697242736816406,0.05635726451873779,-0.010543584823608398
1683134460193174800,6.3421748046875,-0.07700729370117188,-0.09434348344802856,0.02184295654296875
1683134460211021600,6.360021484375,-0.07831001281738281,0.14853549003601074,-0.07725799083709717
1683134460228860000,6.37785986328125,-0.042022705078125,-0.058293700218200684,0.07843464612960815
1683134460246700000,6.395699951171875,-0.04975414276123047,0.1506946086883545,-0.07989990711212158
1683134460264526800,6.41352685546875,-0.012558937072753906,-0.05720627307891846,0.13214045763015747
1683134460282378800,6.431378662109375,-0.05008125305175781,0.12988430261611938,-0.13799649477005005
1683134460300218600,6.449218505859375,0.04521369934082031,-0.1229981780052185,0.15305548906326294
1683134460318058500,6.46705859375,-0.030992507934570312,0.06998181343078613,-0.08636319637298584
1683134460335883300,6.48488330078125,-0.007569313049316406,-0.07098746299743652,0.0967782735824585
1683134460353740300,6.502740234375,-0.0881338119506836,0.10210001468658447,-0.09270000457763672
1683134460371577000,6.5205771484375,0.049414634704589844,0.021109282970428467,0.06679213047027588
1683134460389416700,6.538416748046875,-0.03468513488769531,-0.03261566162109375,0.0058103203773498535
1683134460407255800,6.556255859375,-0.06921577453613281,0.11155641078948975,-0.019654035568237305
1683134460425095400,6.574095458984375,-0.02907276153564453,-0.12958282232284546,0.0188179612159729
1683134460442935600,6.591935546875,-0.05055046081542969,0.0815461277961731,-0.06177091598510742
1683134460460775200,6.609775146484375,-0.052193641662597656,-0.0939408540725708,0.06087005138397217
1683134460478614300,6.6276142578125,-0.07555866241455078,0.16369646787643433,-0.10525065660476685
1683134460496454100,6.6454541015625,-0.03878593444824219,-0.06441891193389893,0.11595684289932251
1683134460514290400,6.66329052734375,-0.038491249084472656,0.15026915073394775,-0.12881237268447876
1683134460532133600,6.681133544921875,0.051428794860839844,-0.09658437967300415,0.17425799369812012
1683134460549961000,6.6989609375,-0.08784961700439453,0.08050847053527832,-0.12255662679672241
1683134460567814000,6.71681396484375,-0.009131431579589844,-0.07197308540344238,0.12305700778961182
1683134460585652200,6.73465234375,-0.03446197509765625,0.0697406530380249,-0.09059792757034302
1683134460603491800,6.752491943359375,0.034366607666015625,-0.04346102476119995,0.12473189830780029
1683134460621331200,6.770331298828125,-0.1308002471923828,0.06436401605606079,-0.05679529905319214
1683134460639165200,6.788165283203125,-0.0036859512329101562,0.07287919521331787,0.024746954441070557
1683134460657012000,6.806011962890625,-0.017175674438476562,-0.06467187404632568,0.035991549491882324
1683134460674850600,6.8238505859375,-0.04798603057861328,0.08573299646377563,-0.019289910793304443
1683134460692685800,6.841685791015625,-0.0714569091796875,-0.11097937822341919,0.025233983993530273
1683134460710529800,6.85952978515625,-0.07634735107421875,0.1491716504096985,-0.08971166610717773
1683134460728365300,6.877365234375,-0.03445720672607422,-0.0773400068283081,0.06867814064025879
1683134460746210000,6.8952099609375,-0.04311847686767578,0.15340757369995117,-0.07734262943267822
1683134460764045000,6.913045166015625,-0.008337020874023438,-0.048164963722229004,0.1261512041091919
1683134460781891000,6.93089111328125,-0.053345680236816406,0.13820934295654297,-0.13703054189682007
1683134460799727900,6.948727783203125,0.05197906494140625,-0.11252224445343018,0.16956180334091187
1683134460817567500,6.9665673828125,-0.04604625701904297,0.05498313903808594,-0.07948702573776245
1683134460835401700,6.984401611328125,-0.025287628173828125,-0.06409549713134766,0.09932059049606323
1683134460853243100,7.0022431640625,-0.08140277862548828,0.07789689302444458,-0.09428894519805908
1683134460871089200,7.020089111328125,0.04897880554199219,0.0006213784217834473,0.05278509855270386
1683134460888925000,7.037925048828125,-0.026645660400390625,-0.024016976356506348,0.01413053274154663
1683134460906766000,7.05576611328125,-0.03893852233886719,0.11839765310287476,-0.0466461181640625
1683134460924608800,7.07360888671875,-0.024048805236816406,-0.135187029838562,0.0340840220451355
1683134460942444300,7.0914443359375,-0.07484054565429688,0.09673303365707397,-0.074526846408844
1683134460960283100,7.109283203125,-0.05381488800048828,-0.11164891719818115,0.06905126571655273
1683134460978123800,7.127123779296875,-0.07519245147705078,0.1788988709449768,-0.10450410842895508
1683134460995963600,7.144963623046875,-0.029203414916992188,-0.06660068035125732,0.12359243631362915
1683134461013802800,7.162802734375,-0.02938556671142578,0.1354285478591919,-0.10968250036239624
1683134461031644000,7.180643798828125,0.07018566131591797,-0.08212929964065552,0.1696559190750122
1683134461049481000,7.19848095703125,-0.08469867706298828,0.0700727105140686,-0.13760948181152344
1683134461067321900,7.21632177734375,0.020369529724121094,-0.0820690393447876,0.11783909797668457
1683134461085161500,7.234161376953125,-0.02333831787109375,0.05880892276763916,-0.08290958404541016
1683134461103001000,7.2520009765625,0.010066986083984375,-0.02313750982284546,0.1112474799156189
1683134461120840200,7.269840087890625,-0.13557720184326172,0.05514448881149292,-0.05253469944000244
1683134461138680000,7.28768017578125,0.00002002716064453125,0.08794915676116943,0.02331453561782837
1683134461156508000,7.3055078125,-0.02924823760986328,-0.0511898398399353,0.039294421672821045
1683134461174348300,7.323348388671875,-0.0668649673461914,0.10442876815795898,-0.025952398777008057
1683134461192199400,7.341199462890625,-0.06653213500976562,-0.12325876951217651,0.04731100797653198
1683134461210037200,7.359037353515625,-0.06110572814941406,0.15464556217193604,-0.09510987997055054
1683134461227879400,7.37687939453125,-0.031744956970214844,-0.10799938440322876,0.07627665996551514
1683134461245718300,7.39471826171875,-0.04611015319824219,0.1516420841217041,-0.09127014875411987
1683134461263554300,7.41255419921875,-0.002960205078125,-0.03929698467254639,0.13959282636642456
1683134461281398800,7.430398681640625,-0.06405162811279297,0.12930601835250854,-0.1348533034324646
1683134461299227100,7.44822705078125,0.050689697265625,-0.07857978343963623,0.17531239986419678
1683134461317076700,7.46607666015625,-0.047379493713378906,0.04324305057525635,-0.06583178043365479
1683134461334915800,7.483915771484375,-0.03980255126953125,-0.055748820304870605,0.07931745052337646
1683134461352752000,7.501752197265625,-0.07910919189453125,0.0516132116317749,-0.0753709077835083
1683134461370595300,7.51959521484375,0.022539138793945312,0.014681339263916016,0.0394364595413208
1683134461388435000,7.53743505859375,-0.04813575744628906,-0.015579938888549805,0.017826080322265625
1683134461406262300,7.55526220703125,-0.0400390625,0.1187371015548706,-0.05710262060165405
1683134461424114000,7.573114013671875,-0.005026817321777344,-0.14114910364151,0.04728895425796509
1683134461441953800,7.590953857421875,-0.07990837097167969,0.11181360483169556,-0.08066856861114502
1683134461459794200,7.608794189453125,-0.051013946533203125,-0.1291522979736328,0.08649587631225586
1683134461477633000,7.626633056640625,-0.06837844848632812,0.15823978185653687,-0.10761010646820068
1683134461495472600,7.64447265625,-0.025444984436035156,-0.06895732879638672,0.11739891767501831
1683134461513312300,7.662312255859375,-0.030748367309570312,0.13555145263671875,-0.10759091377258301
1683134461531151000,7.680151123046875,0.06579399108886719,-0.07396793365478516,0.17790669202804565
1683134461548992300,7.6979921875,-0.0771942138671875,0.0738324522972107,-0.1336938738822937
1683134461566831400,7.715831298828125,0.030969619750976562,-0.07460784912109375,0.10925698280334473
1683134461584670700,7.733670654296875,-0.008075714111328125,0.017683982849121094,-0.06489717960357666
1683134461602511000,7.751510986328125,-0.0006608963012695312,-0.015471041202545166,0.08266109228134155
1683134461620349700,7.769349609375,-0.1361989974975586,0.040760040283203125,-0.04029303789138794
1683134461638189800,7.78718994140625,0.0026273727416992188,0.09380435943603516,-0.0005710124969482422
1683134461656033300,7.805033203125,-0.03367042541503906,-0.025561809539794922,0.055841147899627686
1683134461673857300,7.822857177734375,-0.06319522857666016,0.117012619972229,-0.04626113176345825
1683134461691708400,7.84070849609375,-0.07213115692138672,-0.12524110078811646,0.05851620435714722
1683134461709545500,7.85854541015625,-0.05443000793457031,0.15740561485290527,-0.11019670963287354
1683134461727390700,7.876390625,-0.028545379638671875,-0.12245678901672363,0.08628153800964355
1683134461745227500,7.8942275390625,-0.04177665710449219,0.15077155828475952,-0.08178436756134033
1683134461763062500,7.9120625,0.015446662902832031,-0.03678739070892334,0.1457260549068451
1683134461780909300,7.929909423828125,-0.061031341552734375,0.14220446348190308,-0.13600528240203857
1683134461798746000,7.94774609375,0.04296875,-0.05523139238357544,0.1727251410484314
1683134461816586200,7.965586181640625,-0.054088592529296875,0.03688371181488037,-0.07425713539123535
1683134461834425300,7.98342529296875,-0.06453514099121094,-0.047998011112213135,0.06833407282829285
1683134461852263700,8.001263671875,-0.06583023071289062,0.029979586601257324,-0.06719130277633667
1683134461870106400,8.0191064453125,0.013913154602050781,0.0191766619682312,0.031244993209838867
1683134461887944700,8.03694482421875,-0.0651397705078125,-0.02450615167617798,0.027932405471801758
1683134461905783800,8.05478369140625,-0.05066394805908203,0.11612808704376221,-0.0512545108795166
1683134461923618800,8.072618896484375,-0.014726638793945312,-0.13585221767425537,0.0644690990447998
1683134461941463300,8.09046337890625,-0.043972015380859375,0.1267075538635254,-0.0918397307395935
1683134461959303400,8.108303466796874,-0.024962425231933594,-0.13044703006744385,0.10823804140090942
1683134461977142500,8.126142578125,-0.054813385009765625,0.15551221370697021,-0.11841660737991333
1683134461994983200,8.143983154296874,-0.017388343811035156,-0.08425557613372803,0.10969382524490356
1683134462012816600,8.161816650390625,-0.024947166442871094,0.13098186254501343,-0.10736864805221558
1683134462030662000,8.179661865234374,0.06815433502197266,-0.044937968254089355,0.17189651727676392
1683134462048487700,8.19748779296875,-0.09859943389892578,0.06747108697891235,-0.12342172861099243
1683134462066342000,8.215341796875,0.011652946472167969,-0.07751625776290894,0.10636940598487854
1683134462084180700,8.2331806640625,0.006054878234863281,-0.010143458843231201,-0.03989279270172119
1683134462102021600,8.251021728515624,0.0013065338134765625,-0.009355247020721436,0.06833645701408386
1683134462119858000,8.26885791015625,-0.12033748626708984,0.03269147872924805,-0.04100215435028076
1683134462137699000,8.286698974609376,-0.008477210998535156,0.08344745635986328,-0.003219306468963623
1683134462155539000,8.3045390625,-0.019659042358398438,-0.02260202169418335,0.05393427610397339
1683134462173374000,8.3223740234375,-0.05928325653076172,0.12141221761703491,-0.05943256616592407
1683134462191218000,8.340218017578126,-0.05404853820800781,-0.13088345527648926,0.06176471710205078
1683134462209058000,8.35805810546875,-0.04733848571777344,0.16283822059631348,-0.114959716796875
1683134462226897400,8.3758974609375,-0.018468856811523438,-0.13649296760559082,0.10301953554153442
1683134462244732700,8.393732666015625,-0.03932762145996094,0.135614812374115,-0.09050273895263672
1683134462262574300,8.41157421875,0.028095245361328125,-0.0443572998046875,0.1510862112045288
1683134462280421400,8.42942138671875,-0.05584239959716797,0.14128297567367554,-0.1290987730026245
1683134462298255000,8.447255126953126,0.05813789367675781,-0.03755241632461548,0.15891030430793762
1683134462316097000,8.465096923828124,-0.051568031311035156,0.024794340133666992,-0.051857173442840576
1683134462333934800,8.482934814453126,-0.078216552734375,-0.029724538326263428,0.057072579860687256
1683134462351775000,8.50077490234375,-0.05418205261230469,-0.007195532321929932,-0.0676422119140625
1683134462369613600,8.518613525390625,-0.015511512756347656,0.026516377925872803,0.019224941730499268
1683134462387455500,8.53645556640625,-0.08095741271972656,-0.008076369762420654,0.025216281414031982
1683134462405293600,8.55429345703125,-0.06377315521240234,0.12431871891021729,-0.05177229642868042
1683134462423133700,8.5721337890625,-0.02129840850830078,-0.11561107635498047,0.07663297653198242
1683134462440973300,8.589973388671876,-0.0433349609375,0.12899863719940186,-0.08861792087554932
1683134462458813200,8.607813232421876,-0.040287017822265625,-0.12297695875167847,0.11029088497161865
1683134462476652000,8.625652099609376,-0.03649711608886719,0.16188108921051025,-0.12793344259262085
1683134462494487300,8.6434873046875,-0.009881973266601562,-0.10034483671188354,0.12029573321342468
1683134462512331300,8.661331298828125,-0.02977275848388672,0.1300194263458252,-0.10842198133468628
1683134462530162000,8.679161865234375,0.07898712158203125,-0.05147033929824829,0.17311668395996094
1683134462548010500,8.697010498046875,-0.11754989624023438,0.06852537393569946,-0.1183270812034607
1683134462565838800,8.7148388671875,0.009842872619628906,-0.05051606893539429,0.10448843240737915
1683134462583690200,8.732690185546875,0.010704994201660156,-0.034207284450531006,-0.028805077075958252
1683134462601530000,8.750530029296876,-0.005724906921386719,-0.0005086660385131836,0.057620346546173096
1683134462619356200,8.768356201171875,-0.09736156463623047,0.018407166004180908,-0.03768104314804077
1683134462637210000,8.786210205078126,-0.031097412109375,0.08761954307556152,-0.022908449172973633
1683134462655048700,8.804048583984375,-0.016214370727539062,-0.021609365940093994,0.06632545590400696
1683134462672888800,8.821888916015626,-0.04838085174560547,0.13108420372009277,-0.056625425815582275
1683134462690726700,8.8397265625,-0.043122291564941406,-0.1228300929069519,0.07917416095733643
1683134462708568600,8.857568603515626,-0.0443115234375,0.1587783694267273,-0.10874283313751221
1683134462726407400,8.875407470703125,-0.0019235610961914062,-0.15357017517089844,0.1234312653541565
1683134462744249300,8.893249267578126,-0.03138542175292969,0.13085401058197021,-0.09247457981109619
1683134462762086700,8.911086669921875,0.04361915588378906,-0.056481003761291504,0.13325771689414978
1683134462779925500,8.928925537109375,-0.058643341064453125,0.13328790664672852,-0.123684823513031
1683134462797766400,8.946766357421875,0.08277320861816406,-0.035643041133880615,0.1633836030960083
1683134462815601200,8.96460107421875,-0.05688953399658203,0.02404189109802246,-0.0667414665222168
1683134462833444600,8.982444580078125,-0.06698989868164062,-0.0019445419311523438,0.052443504333496094
1683134462851273000,9.00027294921875,-0.04471874237060547,-0.037998855113983154,-0.054759323596954346
1683134462869124600,9.01812451171875,-0.012905120849609375,0.02136850357055664,0.01604914665222168
1683134462886964200,9.035964111328125,-0.08026504516601562,-0.039841532707214355,0.032090961933135986
1683134462904800300,9.05380029296875,-0.06394100189208984,0.12852954864501953,-0.06291866302490234
1683134462922636800,9.07163671875,-0.0472412109375,-0.09438228607177734,0.07387799024581909
1683134462940481500,9.0894814453125,-0.049178123474121094,0.13326185941696167,-0.08806788921356201
1683134462958323000,9.107322998046875,-0.04668998718261719,-0.12840372323989868,0.11261957883834839
1683134462976162600,9.12516259765625,-0.03191184997558594,0.1488722562789917,-0.13257086277008057
1683134462993990100,9.142990234375,-0.0043792724609375,-0.12207931280136108,0.11357766389846802
1683134463011840500,9.160840576171875,-0.016775131225585938,0.11675018072128296,-0.10030633211135864
1683134463029682700,9.1786826171875,0.07214832305908203,-0.053270816802978516,0.1502666473388672
1683134463047520300,9.196520263671875,-0.14298057556152344,0.08620905876159668,-0.11276000738143921
1683134463065360000,9.21435986328125,0.005344390869140625,-0.03636246919631958,0.1048322319984436
1683134463083200000,9.232199951171875,0.007756233215332031,-0.04053598642349243,-0.014347672462463379
1683134463101039900,9.250039794921875,-0.03361988067626953,0.008280694484710693,0.03444111347198486
1683134463118879000,9.26787890625,-0.08063793182373047,-0.028703689575195312,-0.03518408536911011
1683134463136714200,9.28571435546875,-0.030999183654785156,0.08576738834381104,-0.03204435110092163
1683134463154558700,9.303558837890625,-0.00289154052734375,-0.0411301851272583,0.054679691791534424
1683134463172395300,9.321395263671874,-0.04246807098388672,0.13895010948181152,-0.07404196262359619
1683134463190241300,9.3392412109375,-0.038496971130371094,-0.12742799520492554,0.08511650562286377
1683134463208076000,9.357075927734375,-0.047492027282714844,0.15671372413635254,-0.12285459041595459
1683134463225918500,9.37491845703125,0.009571075439453125,-0.15112268924713135,0.14744651317596436
1683134463243753700,9.392753662109374,-0.033977508544921875,0.12974613904953003,-0.10096204280853271
1683134463261598200,9.41059814453125,0.02637195587158203,-0.06539225578308105,0.14296838641166687
1683134463279437000,9.42843701171875,-0.05049324035644531,0.13470149040222168,-0.1191299557685852
1683134463297275600,9.446275634765625,0.10173511505126953,-0.04830271005630493,0.1576172411441803
1683134463315116000,9.464115966796875,-0.057403564453125,0.016286611557006836,-0.0713157057762146
1683134463332950300,9.4819501953125,-0.032726287841796875,0.008959293365478516,0.04045933485031128
1683134463350794200,9.499794189453125,-0.0259857177734375,-0.05979377031326294,-0.04847842454910278
1683134463368634400,9.51763427734375,-0.005454063415527344,0.028185486793518066,0.011422336101531982
1683134463386473700,9.5354736328125,-0.06443119049072266,-0.033561646938323975,0.027739882469177246
1683134463404313000,9.55331298828125,-0.04537487030029297,0.12508505582809448,-0.05455183982849121
1683134463422153000,9.571153076171875,-0.05842781066894531,-0.07915329933166504,0.08141368627548218
1683134463439997200,9.5889970703125,-0.041950225830078125,0.1301957368850708,-0.08648282289505005
1683134463457821000,9.606821044921874,-0.01837921142578125,-0.11300170421600342,0.1072736382484436
1683134463475672000,9.624672119140625,-0.0283203125,0.12984663248062134,-0.13965582847595215
1683134463493511700,9.64251171875,0.0006504058837890625,-0.1314690113067627,0.13022074103355408
1683134463511351300,9.660351318359375,-0.016709327697753906,0.10190773010253906,-0.09643638134002686
1683134463529177900,9.678177734375,0.06807327270507812,-0.05645251274108887,0.1383575201034546
1683134463547033000,9.696033203125,-0.14605236053466797,0.08901768922805786,-0.10175681114196777
1683134463564870100,9.7138701171875,0.018655776977539062,-0.016396164894104004,0.1027289628982544
1683134463582706000,9.731705810546876,-0.005063056945800781,-0.03152585029602051,-0.01342839002609253
1683134463600538400,9.749538330078124,-0.05295372009277344,0.029465317726135254,0.029242098331451416
1683134463618389200,9.76738916015625,-0.06215190887451172,-0.06872427463531494,-0.028168976306915283
1683134463636228600,9.785228515625,-0.03507232666015625,0.07535988092422485,-0.03653311729431152
1683134463654063600,9.803063720703125,-0.015604019165039062,-0.06094938516616821,0.04212307929992676
1683134463671908400,9.820908447265625,-0.052643775939941406,0.1286296844482422,-0.08646470308303833
1683134463689747500,9.83874755859375,-0.046901702880859375,-0.1064760684967041,0.09598273038864136
1683134463707587000,9.856587158203125,-0.04057025909423828,0.14518588781356812,-0.11805897951126099
1683134463725427000,9.874427001953125,0.022850990295410156,-0.15375053882598877,0.1497400403022766
1683134463743267600,9.892267578125,-0.050217628479003906,0.11176937818527222,-0.10966384410858154
1683134463761105700,9.910105712890624,-0.009451866149902344,-0.08654695749282837,0.13586729764938354
1683134463778945000,9.927945068359374,-0.0320892333984375,0.12655335664749146,-0.12483346462249756
1683134463796786400,9.945786376953125,0.12457084655761719,-0.043060362339019775,0.15008968114852905
1683134463814625300,9.963625244140625,-0.09121894836425781,0.03218883275985718,-0.07466375827789307
1683134463832464400,9.98146435546875,-0.018865585327148438,0.01951134204864502,0.04143822193145752
1683134463850301700,9.9993017578125,-0.020455360412597656,-0.07634443044662476,-0.022109925746917725
1683134463868147200,10.017147216796875,-0.001148223876953125,0.015752077102661133,0.012668967247009277
1683134463885983700,10.034983642578124,-0.07720375061035156,-0.05306041240692139,0.023340702056884766
1683134463903818200,10.052818359375,-0.06351947784423828,0.12072527408599854,-0.06606030464172363
1683134463921662700,10.070662841796874,-0.05584716796875,-0.05683255195617676,0.08546173572540283
1683134463939490600,10.088490478515626,-0.029378890991210938,0.13783085346221924,-0.08517414331436157
1683134463957331200,10.106331298828126,-0.002655029296875,-0.11823135614395142,0.10511785745620728
1683134463975177000,10.124177001953125,-0.023809432983398438,0.12532752752304077,-0.13945764303207397
1683134463993021700,10.142021728515624,0.012691497802734375,-0.14393097162246704,0.13609164953231812
1683134464010861300,10.159861328125,-0.017971038818359375,0.07906770706176758,-0.09691005945205688
1683134464028699600,10.17769970703125,0.039778709411621094,-0.07118445634841919,0.12424039840698242
1683134464046541300,10.195541259765625,-0.13460540771484375,0.11538410186767578,-0.10367876291275024
1683134464064385500,10.213385498046875,0.03193378448486328,-0.005385220050811768,0.08719858527183533
1683134464082219800,10.2312197265625,-0.026770591735839844,-0.03661245107650757,-0.015197992324829102
1683134464100059400,10.249059326171874,-0.08093547821044922,0.048917949199676514,0.01972520351409912
1683134464117898200,10.266898193359374,-0.03618907928466797,-0.07992523908615112,-0.004940509796142578
1683134464135738600,10.284738525390624,-0.017511367797851562,0.06058770418167114,-0.03461867570877075
1683134464153579000,10.3025791015625,-0.03589916229248047,-0.05669516324996948,0.038057804107666016
1683134464171417300,10.320417236328124,-0.07143783569335938,0.1486072540283203,-0.09781002998352051
1683134464189257000,10.338257080078124,-0.04518413543701172,-0.09152400493621826,0.09844881296157837
1683134464207096800,10.356096923828124,-0.04014015197753906,0.1437969207763672,-0.1134415864944458
1683134464224928000,10.373927978515624,0.01825237274169922,-0.14268463850021362,0.16200217604637146
1683134464242776600,10.391776611328124,-0.06447792053222656,0.11007630825042725,-0.11820775270462036
1683134464260615400,10.409615478515626,-0.02700328826904297,-0.09976702928543091,0.13081830739974976
1683134464278455600,10.42745556640625,-0.019417762756347656,0.12175798416137695,-0.1152874231338501
1683134464296290600,10.44529052734375,0.12976360321044922,-0.059935152530670166,0.14687877893447876
1683134464314134800,10.463134765625,-0.10482978820800781,0.04784113168716431,-0.07900255918502808
1683134464331973600,10.4809736328125,0.0004138946533203125,0.038236916065216064,0.041786372661590576
1683134464349813000,10.49881298828125,-0.010991096496582031,-0.08499777317047119,-0.007611274719238281
1683134464367652900,10.51665283203125,-0.017698287963867188,0.0220145583152771,0.00010335445404052734
1683134464385481500,10.5344814453125,-0.07657718658447266,-0.07812625169754028,-0.0015741586685180664
1683134464403332400,10.552332275390626,-0.07841968536376953,0.10187864303588867,-0.07093280553817749
1683134464421153800,10.57015380859375,-0.04160594940185547,-0.05316537618637085,0.06922280788421631
1683134464439017700,10.588017822265625,-0.02793598175048828,0.1337929368019104,-0.08139389753341675
1683134464456837400,10.60583740234375,-0.002506256103515625,-0.09435611963272095,0.1079939603805542
1683134464474691000,10.623691162109376,-0.03135395050048828,0.13535195589065552,-0.13070440292358398
1683134464492530700,10.64153076171875,0.035347938537597656,-0.16349053382873535,0.13087868690490723
1683134464510370600,10.65937060546875,-0.012943267822265625,0.06226062774658203,-0.09760719537734985
1683134464528201500,10.677201416015626,0.015962600708007812,-0.08120167255401611,0.11978912353515625
1683134464546042000,10.6950419921875,-0.1206817626953125,0.1254698634147644,-0.10516631603240967
1683134464563890200,10.71289013671875,0.05140399932861328,-0.011721551418304443,0.0892300009727478
1683134464581728800,10.730728759765626,-0.03569602966308594,-0.03005439043045044,-0.014942348003387451
1683134464599568400,10.748568359375,-0.059600830078125,0.06692761182785034,0.004448652267456055
1683134464617408800,10.76640869140625,-0.028921127319335938,-0.11275392770767212,-0.008478939533233643
1683134464635247900,10.784247802734376,-0.015613555908203125,0.06071293354034424,-0.04585742950439453
1683134464653089000,10.802089111328126,-0.038421630859375,-0.07808536291122437,0.03535348176956177
1683134464670925000,10.819925048828125,-0.07249259948730469,0.14508360624313354,-0.08726561069488525
1683134464688768000,10.83776806640625,-0.04897117614746094,-0.07506102323532104,0.09397059679031372
1683134464706606300,10.8556064453125,-0.035770416259765625,0.13721275329589844,-0.12467032670974731
1683134464724446000,10.873446044921875,0.045475006103515625,-0.11025077104568481,0.1602308750152588
1683134464742286000,10.8912861328125,-0.08612632751464844,0.0979037880897522,-0.12681597471237183
1683134464760125000,10.909125,-0.025193214416503906,-0.10145014524459839,0.13116863369941711
1683134464777964800,10.92696484375,-0.010180473327636719,0.1079409122467041,-0.10540086030960083
1683134464795805000,10.944804931640626,0.0828695297241211,-0.06106644868850708,0.12966150045394897
1683134464813644800,10.962644775390626,-0.12570476531982422,0.045422375202178955,-0.08945608139038086
1683134464831483600,10.980483642578125,0.017843246459960938,0.027947723865509033,0.03951829671859741
1683134464849323300,10.9983232421875,-0.0015230178833007812,-0.08628273010253906,0.013275504112243652
1683134464867166200,11.016166259765624,-0.037642478942871094,0.02825450897216797,-0.012327849864959717
1683134464885003000,11.0340029296875,-0.08049964904785156,-0.09939569234848022,-0.0028271079063415527
1683134464902836200,11.051836181640626,-0.07853984832763672,0.10726213455200195,-0.07302200794219971
1683134464920682200,11.06968212890625,-0.02174663543701172,-0.060778796672821045,0.07664680480957031
1683134464938527000,11.08752685546875,-0.015062332153320312,0.13305062055587769,-0.07649439573287964
1683134464956358700,11.105358642578125,-0.007917404174804688,-0.0938100814819336,0.11065244674682617
1683134464974200800,11.123200927734375,-0.040111541748046875,0.13381248712539673,-0.13555747270584106
1683134464992039000,11.141038818359375,0.04986858367919922,-0.15506190061569214,0.13888728618621826
1683134465009881000,11.158881103515625,-0.03348827362060547,0.05568850040435791,-0.09521782398223877
1683134465027719700,11.1767197265625,0.006831169128417969,-0.09465932846069336,0.12011325359344482
1683134465045559600,11.1945595703125,-0.09793758392333984,0.10567265748977661,-0.10864013433456421
1683134465063396400,11.212396240234375,0.07493972778320312,-0.016282498836517334,0.09854751825332642
1683134465081241000,11.230240966796876,-0.038153648376464844,-0.021438241004943848,-0.014121770858764648
1683134465099079000,11.248078857421875,-0.042571067810058594,0.09129476547241211,-0.005091667175292969
1683134465116917800,11.265917724609375,-0.033995628356933594,-0.13201993703842163,-0.0008029937744140625
1683134465134757400,11.28375732421875,-0.014752388000488281,0.04168599843978882,-0.048343539237976074
1683134465152596700,11.3015966796875,-0.039048194885253906,-0.1052091121673584,0.02833479642868042
1683134465170436900,11.319436767578125,-0.071044921875,0.14044398069381714,-0.09408152103424072
1683134465188275200,11.337275146484375,-0.033576011657714844,-0.08184677362442017,0.09803956747055054
1683134465206116900,11.355116943359375,-0.02008056640625,0.137603759765625,-0.11889070272445679
1683134465223955500,11.37295556640625,0.06188678741455078,-0.09004038572311401,0.1645221710205078
1683134465241783600,11.390783447265624,-0.0970458984375,0.08772438764572144,-0.12785202264785767
1683134465259634400,11.408634521484375,-0.008428573608398438,-0.11927127838134766,0.12342411279678345
1683134465277474600,11.426474609375,-0.02282428741455078,0.08013468980789185,-0.10528087615966797
1683134465295314000,11.44431396484375,0.0414276123046875,-0.061099886894226074,0.12080645561218262
1683134465313160200,11.46216015625,-0.10700130462646484,0.05167263746261597,-0.08394676446914673
1683134465330993000,11.479992919921875,0.039946556091308594,0.03633087873458862,0.03781580924987793
1683134465348832800,11.497832763671875,0.003513336181640625,-0.06254804134368896,0.025143921375274658
1683134465366672400,11.51567236328125,-0.06145763397216797,0.061942458152770996,-0.01767832040786743
1683134465384500700,11.533500732421874,-0.0692901611328125,-0.11508268117904663,0.01175302267074585
1683134465402351600,11.5513515625,-0.05730438232421875,0.1088377833366394,-0.07522529363632202
1683134465420177700,11.569177734375,-0.02460765838623047,-0.0778965950012207,0.0684862732887268
1683134465438030800,11.58703076171875,-0.034691810607910156,0.14219534397125244,-0.08271479606628418
1683134465455856000,11.604856201171875,-0.025923728942871094,-0.07329469919204712,0.11858969926834106
1683134465473710000,11.6227099609375,-0.035157203674316406,0.13349568843841553,-0.13193875551223755
1683134465491550000,11.640550048828125,0.06499099731445312,-0.1270771026611328,0.15856695175170898
1683134465509389800,11.658389892578125,-0.04874897003173828,0.04717510938644409,-0.0963737964630127
1683134465527229200,11.676229248046875,-0.012254714965820312,-0.09651529788970947,0.11299097537994385
1683134465545068300,11.694068359375,-0.07069206237792969,0.07793468236923218,-0.10506778955459595
1683134465562905300,11.7119052734375,0.08042621612548828,-0.01605522632598877,0.079193115234375
1683134465580748000,11.729748046875,-0.05549144744873047,0.004281878471374512,-0.01067495346069336
1683134465598589000,11.7475888671875,-0.03020191192626953,0.10964298248291016,-0.02089846134185791
1683134465616426000,11.765426025390624,-0.03710460662841797,-0.13370096683502197,0.010677754878997803
1683134465634262300,11.78326220703125,-0.04210662841796875,0.04471331834793091,-0.050715625286102295
1683134465652104400,11.8011044921875,-0.058750152587890625,-0.13099879026412964,0.03785938024520874
1683134465669951000,11.818950927734376,-0.056113243103027344,0.13927435874938965,-0.09149378538131714
1683134465687785200,11.83678515625,-0.030843734741210938,-0.0892382264137268,0.09378212690353394
1683134465705625000,11.854625,-0.011145591735839844,0.12497687339782715,-0.11438930034637451
1683134465723464400,11.87246435546875,0.08083152770996094,-0.07615619897842407,0.1597132682800293
1683134465741304600,11.8903046875,-0.07789325714111328,0.09915626049041748,-0.13531112670898438
1683134465759146000,11.90814599609375,0.024049758911132812,-0.1233171820640564,0.10939893126487732
1683134465776984800,11.92598486328125,-0.030699729919433594,0.05853015184402466,-0.10016858577728271
1683134465794823700,11.94382373046875,0.014284133911132812,-0.05982249975204468,0.09876489639282227
1683134465812666600,11.96166650390625,-0.11231517791748047,0.05275297164916992,-0.07351416349411011
1683134465830509000,11.979509033203126,0.031655311584472656,0.026114702224731445,0.021460115909576416
1683134465848331800,11.997331787109376,-0.012264251708984375,-0.06249922513961792,0.028441905975341797
1683134465866183000,12.015182861328125,-0.06418704986572266,0.07249528169631958,-0.0362204909324646
1683134465884012500,12.033012451171874,-0.05690288543701172,-0.14380449056625366,0.01812046766281128
1683134465901864000,12.050864013671875,-0.057198524475097656,0.11141312122344971,-0.08677327632904053
1683134465919700200,12.0687001953125,-0.02888202667236328,-0.09898364543914795,0.06656676530838013
1683134465937540000,12.0865400390625,-0.0478668212890625,0.14637964963912964,-0.07887786626815796
1683134465955375400,12.104375244140625,-0.02455902099609375,-0.05691438913345337,0.12439048290252686
1683134465973219000,12.122218994140624,-0.04226112365722656,0.14144128561019897,-0.13730043172836304
1683134465991059200,12.14005908203125,0.05228614807128906,-0.09320175647735596,0.18078762292861938
1683134466008897500,12.1578974609375,-0.058533668518066406,0.05232131481170654,-0.09396469593048096
1683134466026739500,12.175739501953124,-0.024155616760253906,-0.08569931983947754,0.09421703219413757
1683134466044577500,12.19357763671875,-0.06147289276123047,0.059829533100128174,-0.10598868131637573
1683134466062417700,12.211417724609374,0.0697622299194336,-0.023538529872894287,0.06136578321456909
1683134466080256000,12.229256103515626,-0.05777931213378906,0.0006824135780334473,-0.0034050941467285156
1683134466098098400,12.247098388671875,-0.033481597900390625,0.1056894063949585,-0.028329670429229736
1683134466115934000,12.264933837890625,-0.025974273681640625,-0.12089872360229492,0.026689350605010986
1683134466133778000,12.28277783203125,-0.058783531188964844,0.07886475324630737,-0.05650991201400757
1683134466151612400,12.3006123046875,-0.07187271118164062,-0.1313633918762207,0.05785924196243286
1683134466169458700,12.318458740234375,-0.055037498474121094,0.13772737979888916,-0.1113387942314148
1683134466187294200,12.336294189453126,-0.010981559753417969,-0.1030685305595398,0.09820598363876343
1683134466205134000,12.354134033203126,0.007811546325683594,0.12379676103591919,-0.11203855276107788
1683134466222973700,12.3719736328125,0.07597923278808594,-0.06610232591629028,0.16676387190818787
1683134466240813800,12.389813720703126,-0.08244132995605469,0.07555902004241943,-0.1345791220664978
1683134466258652700,12.407652587890626,0.036421775817871094,-0.1122593879699707,0.11219757795333862
1683134466276488200,12.42548828125,-0.030029296875,0.030755221843719482,-0.07780390977859497
1683134466294332400,12.44333251953125,-0.005276679992675781,-0.057593703269958496,0.08847713470458984
1683134466312172500,12.461172607421876,-0.11244773864746094,0.04163450002670288,-0.06600147485733032
1683134466330010000,12.479010009765625,0.03319740295410156,0.013677239418029785,0.015186071395874023
1683134466347840800,12.4968408203125,-0.011631011962890625,-0.054771602153778076,0.03054910898208618
1683134466365691000,12.51469091796875,-0.059777259826660156,0.09730631113052368,-0.05550074577331543
1683134466383524900,12.53252490234375,-0.042082786560058594,-0.15815520286560059,0.04103386402130127
1683134466401368600,12.55036865234375,-0.05405139923095703,0.10803443193435669,-0.10130256414413452
1683134466419202000,12.5682021484375,-0.016340255737304688,-0.1333448886871338,0.07987254858016968
1683134466437049300,12.58604931640625,-0.031739234924316406,0.13469016551971436,-0.08011502027511597
1683134466454887200,12.60388720703125,-0.011590957641601562,-0.05558359622955322,0.12970876693725586
1683134466472729300,12.621729248046876,-0.044699668884277344,0.1496286392211914,-0.1315273642539978
1683134466490568200,12.639568115234376,0.06226539611816406,-0.051545798778533936,0.1934134066104889
1683134466508407600,12.657407470703125,-0.059528350830078125,0.050733745098114014,-0.09570562839508057
1683134466526248000,12.675248046875,-0.03642082214355469,-0.07651787996292114,0.09434574842453003
1683134466544086500,12.69308642578125,-0.05813121795654297,0.0210607647895813,-0.09289538860321045
1683134466561925400,12.71092529296875,0.04358482360839844,-0.019284546375274658,0.04392367601394653
1683134466579764700,12.7287646484375,-0.07497024536132812,-0.0012393593788146973,-0.010283887386322021
1683134466597609000,12.74660888671875,-0.02687835693359375,0.10131162405014038,-0.04109394550323486
1683134466615442700,12.764442626953125,-0.012090682983398438,-0.10733920335769653,0.043280720710754395
1683134466633281800,12.78228173828125,-0.06879425048828125,0.10438764095306396,-0.053056418895721436
1683134466651121700,12.80012158203125,-0.08026123046875,-0.1384718418121338,0.056711673736572266
1683134466668967700,12.8179677734375,-0.04957866668701172,0.13210278749465942,-0.10292571783065796
1683134466686803000,12.835802978515625,-0.015280723571777344,-0.126539409160614,0.0910341739654541
1683134466704630000,12.853630126953124,0.0030851364135742188,0.10757970809936523,-0.10848045349121094
1683134466722482400,12.871482421875,0.07587718963623047,-0.06636768579483032,0.16757923364639282
1683134466740322800,12.88932275390625,-0.0766897201538086,0.07698017358779907,-0.14023369550704956
1683134466758162000,12.907161865234375,0.0289306640625,-0.10268586874008179,0.1191365122795105
1683134466776001800,12.925001708984375,-0.026007652282714844,0.008983373641967773,-0.07284057140350342
1683134466793841400,12.94284130859375,-0.0011463165283203125,-0.04419231414794922,0.07397341728210449
1683134466811681300,12.960681396484375,-0.10131263732910156,0.02074885368347168,-0.05524176359176636
1683134466829520100,12.97852001953125,0.024438858032226562,0.02609884738922119,0.011056125164031982
1683134466847362000,12.996362060546875,-0.023697853088378906,-0.05351734161376953,0.04221087694168091
1683134466865199900,13.014199951171875,-0.06373882293701172,0.10338807106018066,-0.06430327892303467
1683134466883038500,13.03203857421875,-0.03217792510986328,-0.1701304316520691,0.046286046504974365
1683134466900879400,13.04987939453125,-0.0435333251953125,0.11085426807403564,-0.10512900352478027
1683134466918719000,13.067718994140625,0.006732940673828125,-0.15085607767105103,0.09063535928726196
1683134466936558000,13.08555810546875,-0.025522232055664062,0.12761270999908447,-0.08883965015411377
1683134466954398200,13.103398193359375,0.0054988861083984375,-0.07105934619903564,0.1174660325050354
1683134466972236300,13.121236328125,-0.03867530822753906,0.14034372568130493,-0.12700843811035156
1683134466990078000,13.139077880859375,0.08066749572753906,-0.060126662254333496,0.17805206775665283
1683134467007916500,13.15691650390625,-0.07332038879394531,0.05050712823867798,-0.09805625677108765
1683134467025756700,13.174756591796875,-0.03223133087158203,-0.04963326454162598,0.09477216005325317
1683134467043590700,13.192590576171876,-0.037375450134277344,-0.014099061489105225,-0.08255821466445923
1683134467061435100,13.21043505859375,0.029837608337402344,-0.020370423793792725,0.06252872943878174
1683134467079271200,13.228271240234376,-0.0801382064819336,0.007433176040649414,-0.011645913124084473
1683134467097120300,13.246120361328124,-0.02215576171875,0.10354417562484741,-0.04690808057785034
1683134467114952200,13.2639521484375,-0.017765045166015625,-0.09712737798690796,0.05156475305557251
1683134467132790000,13.2817900390625,-0.07226181030273438,0.12325185537338257,-0.06276649236679077
1683134467150633500,13.299633544921875,-0.06474494934082031,-0.13292914628982544,0.06386452913284302
1683134467168469800,13.3174697265625,-0.047504425048828125,0.1414031982421875,-0.11076056957244873
1683134467186313500,13.3353134765625,-0.02405834197998047,-0.15819847583770752,0.08550012111663818
1683134467204153300,13.3531533203125,0.007443428039550781,0.08399587869644165,-0.09617877006530762
1683134467221990100,13.370990234375,0.07830429077148438,-0.06720215082168579,0.14701592922210693
1683134467239831600,13.38883154296875,-0.08395195007324219,0.07986533641815186,-0.12311726808547974
1683134467257670700,13.406670654296875,0.02156543731689453,-0.06745094060897827,0.12984129786491394
1683134467275510300,13.42451025390625,-0.026808738708496094,-0.006928086280822754,-0.07108771800994873
1683134467293345500,13.442345458984375,-0.008400917053222656,-0.04311460256576538,0.05756866931915283
1683134467311190000,13.46018994140625,-0.08586788177490234,-0.004486978054046631,-0.06114917993545532
1683134467329029000,13.478029052734374,0.00992584228515625,0.02629268169403076,-0.001979053020477295
1683134467346868700,13.49586865234375,-0.038684844970703125,-0.039327383041381836,0.03925997018814087
1683134467364703700,13.513703857421875,-0.06157684326171875,0.12030375003814697,-0.06973230838775635
1683134467382548200,13.53154833984375,-0.03262805938720703,-0.16372042894363403,0.05251795053482056
1683134467400387600,13.5493876953125,-0.050209999084472656,0.11459028720855713,-0.10233432054519653
1683134467418226200,13.56722607421875,0.026358604431152344,-0.16683858633041382,0.10810625553131104
1683134467436067600,13.585067626953125,-0.0310821533203125,0.12104803323745728,-0.10578972101211548
1683134467453907000,13.602906982421874,0.011648178100585938,-0.08944153785705566,0.10673576593399048
1683134467471746000,13.62074609375,-0.043201446533203125,0.15057402849197388,-0.1226811408996582
1683134467489584600,13.638584716796874,0.09774971008300781,-0.043567121028900146,0.17858794331550598
1683134467507426000,13.656426025390624,-0.08920001983642578,0.04722881317138672,-0.10339862108230591
1683134467525265000,13.674264892578124,-0.0035505294799804688,-0.0289880633354187,0.10303649306297302
1683134467543104300,13.692104248046874,-0.0057697296142578125,-0.036660194396972656,-0.06336617469787598
1683134467560943600,13.709943603515624,0.028800010681152344,-0.020338773727416992,0.0618249773979187
1683134467578780200,13.7277802734375,-0.10137176513671875,-0.006000936031341553,-0.019705474376678467
1683134467596609800,13.74560986328125,-0.014298439025878906,0.10090416669845581,-0.03572988510131836
1683134467614455800,13.763455810546875,-0.019487380981445312,-0.07453352212905884,0.0553552508354187
1683134467632304600,13.7813046875,-0.06531810760498047,0.1308688521385193,-0.07432770729064941
1683134467650142000,13.799141845703126,-0.05473899841308594,-0.1384182572364807,0.07939654588699341
1683134467667970000,13.816969970703125,-0.03134918212890625,0.1534363031387329,-0.11868864297866821
1683134467685815800,13.83481591796875,-0.019164085388183594,-0.16714972257614136,0.09906777739524841
1683134467703660800,13.852660888671876,-0.004067420959472656,0.08887702226638794,-0.09539908170700073
1683134467721500200,13.870500244140626,0.06972789764404297,-0.07026606798171997,0.14084792137145996
1683134467739343000,13.888343017578125,-0.10232067108154297,0.11277669668197632,-0.12196588516235352
1683134467757168400,13.90616845703125,0.03371429443359375,-0.05142396688461304,0.13203033804893494
1683134467775019300,13.924019287109376,-0.0132598876953125,0.010678350925445557,-0.058741748332977295
1683134467792858400,13.9418583984375,-0.037502288818359375,-0.031462788581848145,0.05887436866760254
1683134467810697200,13.959697265625,-0.05747413635253906,-0.030830204486846924,-0.061484456062316895
1683134467828539000,13.977538818359376,0.022480010986328125,0.02213841676712036,-0.012752771377563477
1683134467846377500,13.99537744140625,-0.05373096466064453,-0.0502280592918396,0.037354886531829834
1683134467864205300,14.013205322265625,-0.07542800903320312,0.11579358577728271,-0.07415878772735596
1683134467882056700,14.031056640625,-0.03315448760986328,-0.14839035272598267,0.07337379455566406
1683134467899893000,14.04889306640625,-0.043816566467285156,0.12792754173278809,-0.10450619459152222
1683134467917738800,14.06673876953125,0.015575408935546875,-0.16050618886947632,0.12111079692840576
1683134467935571000,14.084571044921875,-0.030487060546875,0.11436450481414795,-0.10754269361495972
1683134467953415000,14.102414794921875,0.02875041961669922,-0.11855858564376831,0.0969240665435791
1683134467971254500,14.120254638671875,-0.03300666809082031,0.1356094479560852,-0.11570852994918823
1683134467989094000,14.138093994140625,0.10900020599365234,-0.0501287579536438,0.1634458303451538
1683134468006933800,14.155933837890625,-0.10007476806640625,0.05019015073776245,-0.11147350072860718
1683134468024773600,14.173773681640625,0.0030660629272460938,-0.04272407293319702,0.09768408536911011
1683134468042612200,14.1916123046875,0.016289710998535156,-0.04782909154891968,-0.027821063995361328
1683134468060451000,14.209451171875,0.013447761535644531,-0.003058493137359619,0.04772847890853882
1683134468078292500,14.22729248046875,-0.09380245208740234,-0.011430501937866211,-0.02271491289138794
1683134468096132900,14.2451328125,-0.011553764343261719,0.08503508567810059,-0.032614946365356445
1683134468113959200,14.262959228515625,-0.005808830261230469,-0.06197929382324219,0.06682872772216797
1683134468131809500,14.2808095703125,-0.0177154541015625,0.11989116668701172,-0.07800281047821045
1683134468149651700,14.298651611328125,-0.03175544738769531,-0.14623630046844482,0.09669381380081177
1683134468167490300,14.316490234375,-0.02865314483642578,0.15257161855697632,-0.12548941373825073
1683134468185329000,14.334328857421875,-0.011751174926757812,-0.1626225709915161,0.1188579797744751
1683134468203169000,14.3521689453125,-0.014393806457519531,0.0947350263595581,-0.0897260308265686
1683134468221009700,14.370009765625,0.069732666015625,-0.09411424398422241,0.12973517179489136
1683134468238847200,14.38784716796875,-0.08155059814453125,0.10633248090744019,-0.1164349913597107
1683134468256682800,14.405682861328126,0.056298255920410156,-0.049122631549835205,0.12805047631263733
1683134468274527500,14.423527587890625,-0.02142620086669922,-0.007242023944854736,-0.05037969350814819
1683134468292367000,14.4413671875,-0.06738471984863281,-0.013398706912994385,0.04799574613571167
1683134468310207000,14.45920703125,-0.030548095703125,-0.05307203531265259,-0.050965726375579834
1683134468328045800,14.4770458984375,0.0011425018310546875,0.03751248121261597,-0.009861111640930176
1683134468345885700,14.4948857421875,-0.05877399444580078,-0.054314255714416504,0.03750425577163696
1683134468363727400,14.512727294921875,-0.07536792755126953,0.10511916875839233,-0.07052934169769287
1683134468381562000,14.53056201171875,-0.04269599914550781,-0.1288667917251587,0.08474493026733398
1683134468399405000,14.548405029296875,-0.02094554901123047,0.12006253004074097,-0.10328978300094604
1683134468417244200,14.566244140625,-0.008263587951660156,-0.14850443601608276,0.1279665231704712
1683134468435083800,14.584083740234375,-0.04448699951171875,0.1070818305015564,-0.11983847618103027
1683134468452918800,14.601918701171876,0.009383201599121094,-0.12688308954238892,0.10523438453674316
1683134468470762200,14.61976220703125,-0.01848316192626953,0.12511301040649414,-0.11480677127838135
1683134468488593200,14.63759326171875,0.1035623550415039,-0.057568371295928955,0.1634940207004547
1683134468506441700,14.655441650390625,-0.11958885192871094,0.0622594952583313,-0.10389119386672974
1683134468524281900,14.67328173828125,0.011620521545410156,-0.02551901340484619,0.08488646149635315
1683134468542120700,14.69112060546875,0.020191192626953125,-0.05093729496002197,-0.014461696147918701
1683134468559960600,14.708960693359375,-0.006732940673828125,-0.0037079453468322754,0.03696238994598389
1683134468577800400,14.726800537109375,-0.09345149993896484,-0.029713153839111328,-0.03311890363693237
1683134468595640600,14.744640625,-0.026413917541503906,0.07812356948852539,-0.02911972999572754
1683134468613478400,14.762478515625,0.0068721771240234375,-0.045902371406555176,0.059689879417419434
1683134468631307000,14.78030712890625,-0.02149200439453125,0.13022935390472412,-0.071255624294281
1683134468649158400,14.798158447265624,-0.025491714477539062,-0.12751328945159912,0.0969318151473999
1683134468666990300,14.815990234375,-0.03627300262451172,0.13749700784683228,-0.12514132261276245
1683134468684825600,14.83382568359375,0.013906478881835938,-0.1617046594619751,0.12131467461585999
1683134468702673400,14.85167333984375,-0.014687538146972656,0.10153895616531372,-0.0992884635925293
1683134468720516600,14.8695166015625,0.053137779235839844,-0.09777981042861938,0.13626772165298462
1683134468738355500,14.88735546875,-0.05113506317138672,0.12109375,-0.10603708028793335
1683134468756196600,14.905196533203124,0.09012317657470703,-0.03778541088104248,0.14911401271820068
1683134468774023700,14.923023681640625,-0.04144001007080078,0.013453125953674316,-0.05807596445083618
1683134468791875000,14.940875,-0.035007476806640625,0.0028638839721679688,0.04365384578704834
1683134468809715200,14.958715087890624,-0.015431404113769531,-0.07024270296096802,-0.04533588886260986
1683134468827553500,14.976553466796876,0.0013284683227539062,0.03053528070449829,-0.0005131363868713379
1683134468845394000,14.994393798828124,-0.0649118423461914,-0.04665130376815796,0.022988557815551758
1683134468863233300,15.0122333984375,-0.07612800598144531,0.11440563201904297,-0.07319092750549316
1683134468881073400,15.030073486328124,-0.05583763122558594,-0.08941829204559326,0.08255839347839355
1683134468898912300,15.047912353515626,-0.04828166961669922,0.11650514602661133,-0.09770232439041138
1683134468916752100,15.065752197265626,-0.021307945251464844,-0.13451987504959106,0.12600186467170715
1683134468934591700,15.083591796875,-0.024267196655273438,0.10730987787246704,-0.13308000564575195
1683134468952431400,15.101431396484376,0.0067424774169921875,-0.15151232481002808,0.12204253673553467
1683134468970270700,15.119270751953126,-0.00606536865234375,0.09696382284164429,-0.10704481601715088
1683134468988098300,15.137098388671875,0.08298969268798828,-0.06476932764053345,0.13843899965286255
1683134469005949700,15.15494970703125,-0.13456153869628906,0.0811530351638794,-0.11158722639083862
1683134469023784700,15.17278466796875,0.008157730102539062,-0.01347583532333374,0.09634992480278015
1683134469041628700,15.190628662109376,0.01600360870361328,-0.04811662435531616,-0.012487530708312988
1683134469059468300,15.20846826171875,-0.03883075714111328,0.016226768493652344,0.026669561862945557
1683134469077308000,15.226307861328126,-0.0659170150756836,-0.0483437180519104,-0.028725802898406982
1683134469095143400,15.244143310546875,-0.031418800354003906,0.07762575149536133,-0.02528250217437744
1683134469112987000,15.26198681640625,0.005741119384765625,-0.04561418294906616,0.05536937713623047
1683134469130825000,15.279824951171875,-0.048796653747558594,0.1358475685119629,-0.07414954900741577
1683134469148665000,15.2976650390625,-0.04163169860839844,-0.12883257865905762,0.09728479385375977
1683134469166507300,15.31550732421875,-0.03880786895751953,0.13781940937042236,-0.12758415937423706
1683134469184333800,15.333333740234375,0.02250385284423828,-0.17727500200271606,0.12984633445739746
1683134469202185000,15.35118505859375,-0.03516387939453125,0.10194545984268188,-0.1009209156036377
1683134469220022800,15.369022705078125,0.016022682189941406,-0.08066171407699585,0.13844847679138184
1683134469237865700,15.38686572265625,-0.034117698669433594,0.1379075050354004,-0.13226985931396484
1683134469255698400,15.404698486328124,0.1258707046508789,-0.05466550588607788,0.16459885239601135
1683134469273543200,15.422543212890625,-0.08667850494384766,0.02997070550918579,-0.07389074563980103
1683134469291382500,15.440382568359375,0.00434112548828125,-0.004005789756774902,0.05946534872055054
1683134469309222000,15.458221923828125,-0.013991355895996094,-0.07470554113388062,-0.04266411066055298
1683134469327062300,15.476062255859375,-0.000347137451171875,-0.0038335323333740234,0.015121817588806152
1683134469344896800,15.493896728515624,-0.08387279510498047,-0.056440770626068115,0.009454727172851562
1683134469362737200,15.511737060546874,-0.04534149169921875,0.1149144172668457,-0.065188467502594
1683134469380580900,15.529580810546875,-0.044457435607910156,-0.07437920570373535,0.06602990627288818
1683134469398419700,15.547419677734375,-0.04289054870605469,0.1267707347869873,-0.0827033519744873
1683134469416255700,15.565255859375,-0.017007827758789062,-0.1297207474708557,0.09570291638374329
1683134469434095600,15.583095703125,-0.022231101989746094,0.1222224235534668,-0.12557756900787354
1683134469451940000,15.600940185546875,0.010759353637695312,-0.14777839183807373,0.13928264379501343
1683134469469779000,15.618779052734375,-0.017726898193359375,0.07956606149673462,-0.09094440937042236
1683134469487618800,15.636618896484375,0.05012035369873047,-0.07839751243591309,0.13513216376304626
1683134469505457400,15.65445751953125,-0.1295642852783203,0.11367040872573853,-0.11036419868469238
1683134469523297000,15.672297119140625,0.0421905517578125,-0.01734858751296997,0.0980609655380249
1683134469541136100,15.69013623046875,-0.0035123825073242188,-0.0427778959274292,-0.0349198579788208
1683134469558976000,15.70797607421875,-0.06922721862792969,0.02220052480697632,0.02865689992904663
1683134469576815900,15.72581591796875,-0.02817058563232422,-0.08654189109802246,-0.034503936767578125
1683134469594655200,15.7436552734375,-0.0011034011840820312,0.030498385429382324,-0.02631145715713501
1683134469612494800,15.761494873046875,-0.0420074462890625,-0.06598037481307983,0.03828006982803345
1683134469630334000,15.779333984375,-0.08118438720703125,0.12362700700759888,-0.0783185362815857
1683134469648160000,15.797159912109375,-0.05509757995605469,-0.11367106437683105,0.08909258246421814
1683134469666009000,15.815009033203125,-0.03537178039550781,0.13432765007019043,-0.11934548616409302
1683134469683836700,15.832836669921875,0.005336761474609375,-0.16410022974014282,0.13960757851600647
1683134469701686000,15.85068603515625,-0.05355072021484375,0.09336769580841064,-0.12091362476348877
1683134469719522300,15.868522216796874,0.00038814544677734375,-0.12135958671569824,0.12120038270950317
1683134469737372200,15.8863720703125,-0.013750076293945312,0.11476868391036987,-0.12328368425369263
1683134469755200500,15.904200439453126,0.1282520294189453,-0.07145100831985474,0.15551316738128662
1683134469773050600,15.922050537109374,-0.10109710693359375,0.055715858936309814,-0.09559112787246704
1683134469790888700,15.939888671875,0.018161773681640625,0.00516742467880249,0.06757581233978271
1683134469808731400,15.9577314453125,0.0066623687744140625,-0.07574039697647095,-0.018090486526489258
1683134469826566100,15.975566162109375,-0.0048999786376953125,0.0010808110237121582,0.019143342971801758
1683134469844411600,15.99341162109375,-0.08428192138671875,-0.05871707201004028,-0.023894786834716797
1683134469862248000,16.011248046875,-0.04273414611816406,0.08775520324707031,-0.051128923892974854
1683134469880088600,16.029088623046874,0.0011167526245117188,-0.06563901901245117,0.05721640586853027
1683134469897913300,16.046913330078127,-0.015513420104980469,0.12137824296951294,-0.080954909324646
1683134469915769900,16.064769775390626,-0.011300086975097656,-0.13251525163650513,0.09808367490768433
1683134469933605600,16.082605712890626,-0.034722328186035156,0.1419810652732849,-0.12670183181762695
1683134469951447600,16.100447509765626,0.02296924591064453,-0.17212677001953125,0.129684716463089
1683134469969285400,16.118285400390626,-0.012842178344726562,0.05935037136077881,-0.10304856300354004
1683134469987125500,16.13612548828125,0.034394264221191406,-0.10238254070281982,0.12696608901023865
1683134470004964600,16.153964599609374,-0.09108257293701172,0.11828404664993286,-0.118336021900177
1683134470022801000,16.17180078125,0.07681655883789062,-0.04078853130340576,0.12342101335525513
1683134470040643300,16.189643310546874,-0.043514251708984375,-0.008720815181732178,-0.05209082365036011
1683134470058483200,16.207483154296874,-0.04565143585205078,0.025484859943389893,0.037100136280059814
1683134470076322600,16.225322509765626,-0.0024080276489257812,-0.10099518299102783,-0.027990341186523438
1683134470094162700,16.24316259765625,0.007898330688476562,0.0355721116065979,-0.02061140537261963
1683134470112000500,16.26100048828125,-0.047499656677246094,-0.07763797044754028,0.020599186420440674
1683134470129842700,16.2788427734375,-0.0828542709350586,0.12706202268600464,-0.08200937509536743
1683134470147680800,16.2966806640625,-0.05486488342285156,-0.10348325967788696,0.09278655052185059
1683134470165521000,16.31452099609375,-0.025526046752929688,0.11944997310638428,-0.1081802248954773
1683134470183341300,16.33234130859375,0.0006074905395507812,-0.12774968147277832,0.15579092502593994
1683134470201188000,16.35018798828125,-0.05415534973144531,0.10195600986480713,-0.13293713331222534
1683134470219025700,16.368025634765626,0.0007638931274414062,-0.14811009168624878,0.11557099223136902
1683134470236879000,16.385879150390625,0.00004863739013671875,0.09085464477539062,-0.10069406032562256
1683134470254718000,16.403718017578125,0.100006103515625,-0.06283873319625854,0.1269344687461853
1683134470272558000,16.42155810546875,-0.12665462493896484,0.06278437376022339,-0.09143483638763428
1683134470290397400,16.4393974609375,0.01250457763671875,-0.0077936649322509766,0.08150219917297363
1683134470308236000,16.457236083984377,0.012845039367675781,-0.0645093321800232,0.010696113109588623
1683134470326077000,16.475076904296873,-0.039778709411621094,0.02505725622177124,0.010828733444213867
1683134470343916300,16.492916259765625,-0.07409286499023438,-0.0699111819267273,-0.0145377516746521
1683134470361755400,16.51075537109375,-0.03875541687011719,0.09076935052871704,-0.036022722721099854
1683134470379595300,16.52859521484375,0.01637744903564453,-0.058614373207092285,0.05386132001876831
1683134470397433900,16.546433837890625,-0.021305084228515625,0.12712353467941284,-0.08118295669555664
1683134470415275000,16.56427490234375,-0.03108978271484375,-0.11072391271591187,0.11127287149429321
1683134470433109000,16.58210888671875,-0.02964496612548828,0.1312066912651062,-0.11932611465454102
1683134470450950700,16.59995068359375,0.033199310302734375,-0.17462527751922607,0.14091789722442627
1683134470468795000,16.617794921875,-0.027146339416503906,0.09662771224975586,-0.10539895296096802
1683134470486632000,16.6356318359375,-0.00069427490234375,-0.09231674671173096,0.1411779522895813
1683134470504473000,16.65347314453125,-0.040396690368652344,0.1089295744895935,-0.1170009970664978
1683134470522310100,16.67131005859375,0.10771369934082031,-0.05579406023025513,0.13893550634384155
1683134470540150300,16.689150390625,-0.06717681884765625,0.008896470069885254,-0.05201464891433716
1683134470557990100,16.706990234375,-0.013983726501464844,0.030411243438720703,0.03402787446975708
1683134470575830000,16.724830078125,0.012420654296875,-0.0909041166305542,-0.02020972967147827
1683134470593669400,16.74266943359375,0.00070953369140625,0.03605765104293823,-0.005381941795349121
1683134470611508500,16.760508544921876,-0.06074047088623047,-0.07533085346221924,0.022786319255828857
1683134470629348600,16.7783486328125,-0.060009002685546875,0.123748779296875,-0.06852161884307861
1683134470647188200,16.796188232421876,-0.05611896514892578,-0.06992614269256592,0.0864226222038269
1683134470665027800,16.81402783203125,-0.047760009765625,0.11909300088882446,-0.0929294228553772
1683134470682857000,16.83185693359375,-0.0033254623413085938,-0.10853928327560425,0.10728347301483154
1683134470700706800,16.849706787109376,-0.027761459350585938,0.10948264598846436,-0.13384759426116943
1683134470718546000,16.8675458984375,0.026694297790527344,-0.14311742782592773,0.14288794994354248
1683134470736385800,16.8853857421875,-0.014685630798339844,0.09169965982437134,-0.09075504541397095
1683134470754219800,16.9032197265625,0.05492687225341797,-0.07749319076538086,0.13009631633758545
1683134470772064800,16.921064697265624,-0.12872982025146484,0.09591972827911377,-0.09881943464279175
1683134470789904100,16.938904052734376,0.04207897186279297,-0.014229655265808105,0.08322280645370483
1683134470807744000,16.956743896484376,-0.009634017944335938,-0.034533560276031494,-0.012338399887084961
1683134470825582800,16.974582763671876,-0.0825796127319336,0.03936028480529785,0.022541403770446777
1683134470843422700,16.992422607421876,-0.03563117980957031,-0.09392350912094116,-0.022070229053497314
1683134470861262300,17.010262451171876,-0.01351165771484375,0.0670512318611145,-0.042238056659698486
1683134470879100700,17.0281005859375,-0.009886741638183594,-0.08555334806442261,0.04208320379257202
1683134470896942000,17.045942138671876,-0.0793294906616211,0.13916242122650146,-0.09779536724090576
1683134470914765800,17.063765869140624,-0.04359722137451172,-0.09619367122650146,0.10645413398742676
1683134470932623400,17.081623291015624,-0.02706623077392578,0.12982946634292603,-0.12076705694198608
1683134470950461700,17.099461669921876,0.025959014892578125,-0.15892809629440308,0.15147113800048828
1683134470968294700,17.117294677734375,-0.06040382385253906,0.09435993432998657,-0.11342555284500122
1683134470986139400,17.135139404296876,-0.0013713836669921875,-0.11638617515563965,0.13522106409072876
1683134471003974000,17.152973876953126,-0.008889198303222656,0.10175180435180664,-0.10406053066253662
1683134471021822200,17.170822265625,0.1343069076538086,-0.0757831335067749,0.14086797833442688
1683134471039656700,17.18865673828125,-0.10073184967041016,0.042750656604766846,-0.08995521068572998
1683134471057496800,17.206496826171875,0.01676177978515625,0.013365507125854492,0.05221426486968994
1683134471075331600,17.22433154296875,-0.010438919067382812,-0.07812386751174927,-0.014770984649658203
1683134471093173800,17.242173828125,-0.009828567504882812,0.009611248970031738,0.009364485740661621
1683134471111017700,17.260017822265624,-0.08331108093261719,-0.07966214418411255,0.00012218952178955078
1683134471128853500,17.277853515625,-0.054798126220703125,0.09362298250198364,-0.05114185810089111
1683134471146695700,17.29569580078125,-0.015631675720214844,-0.07091343402862549,0.07595264911651611
1683134471164534300,17.3135341796875,-0.021657943725585938,0.12223637104034424,-0.06576800346374512
1683134471182373000,17.331373046875,-0.007579803466796875,-0.12674599885940552,0.10870736837387085
1683134471200212000,17.3492119140625,-0.018965721130371094,0.12326079607009888,-0.12997466325759888
1683134471218059300,17.367059326171876,0.019674301147460938,-0.16450154781341553,0.12702399492263794
1683134471235892500,17.384892578125,-0.01680469512939453,0.06934332847595215,-0.10044193267822266
1683134471253731300,17.4027314453125,0.02203369140625,-0.10035806894302368,0.12949159741401672
1683134471271571000,17.420571044921875,-0.1058187484741211,0.10978943109512329,-0.11493825912475586
1683134471289410800,17.438410888671875,0.07565593719482422,-0.04375898838043213,0.11958751082420349
1683134471307250700,17.456250732421875,-0.03430652618408203,-0.008967399597167969,-0.04609513282775879
1683134471325089500,17.474089599609375,-0.037308692932128906,0.037003159523010254,0.04482966661453247
1683134471342929000,17.491928955078127,-0.007008552551269531,-0.11362689733505249,-0.027131974697113037
1683134471360769800,17.509769775390627,-0.0017328262329101562,0.03161853551864624,-0.029150009155273438
1683134471378606300,17.5276064453125,-0.04771232604980469,-0.09576678276062012,0.027243852615356445
1683134471396443600,17.545443603515626,-0.08927059173583984,0.12107867002487183,-0.08652341365814209
1683134471414286800,17.563286865234375,-0.061748504638671875,-0.10201102495193481,0.09150618314743042
1683134471432126500,17.58112646484375,-0.02549457550048828,0.11387330293655396,-0.10617321729660034
1683134471449964300,17.59896435546875,0.012738227844238281,-0.11057525873184204,0.15926074981689453
1683134471467815700,17.616815673828125,-0.043969154357910156,0.10268795490264893,-0.12208819389343262
1683134471485645000,17.63464501953125,0.0029191970825195312,-0.1534944772720337,0.12485054135322571
1683134471503484400,17.652484375,0.00241851806640625,0.08960098028182983,-0.10282039642333984
1683134471521323000,17.670322998046874,0.0970449447631836,-0.06787991523742676,0.12871268391609192
1683134471539164400,17.688164306640626,-0.13277053833007812,0.06387311220169067,-0.09882897138595581
1683134471557003000,17.7060029296875,0.019507408142089844,-0.010290026664733887,0.07429343461990356
1683134471574842400,17.72384228515625,0.0050563812255859375,-0.06248641014099121,0.00892794132232666
1683134471592679000,17.741678955078125,-0.04638671875,0.024738013744354248,0.015717148780822754
1683134471610521300,17.759521240234374,-0.07515239715576172,-0.07747918367385864,-0.01671046018600464
1683134471628360200,17.777360107421874,-0.0288848876953125,0.07887095212936401,-0.027534902095794678
1683134471646201900,17.795201904296874,0.014925003051757812,-0.06930416822433472,0.05226564407348633
1683134471664028700,17.813028564453123,-0.04475688934326172,0.13643324375152588,-0.07423973083496094
1683134471681867300,17.8308671875,-0.031246185302734375,-0.1192636489868164,0.10409435629844666
1683134471699714800,17.84871484375,-0.02385425567626953,0.13597220182418823,-0.12923598289489746
1683134471717563100,17.866563232421875,0.036495208740234375,-0.18093258142471313,0.15177208185195923
1683134471735398700,17.884398681640626,-0.04195880889892578,0.0981559157371521,-0.10743141174316406
1683134471753237500,17.902237548828126,0.0044727325439453125,-0.08641105890274048,0.1452164351940155
1683134471771076000,17.920076171875,-0.03142261505126953,0.11646378040313721,-0.12326562404632568
1683134471788917800,17.937917724609374,0.13039398193359375,-0.051095426082611084,0.1524428129196167
1683134471806756000,17.955756103515625,-0.08786487579345703,0.041313111782073975,-0.07190924882888794
1683134471824595200,17.97359521484375,0.011033058166503906,0.00906229019165039,0.043313682079315186
1683134471842435000,17.99143505859375,0.0008687973022460938,-0.08757185935974121,-0.026733577251434326
1683134471860274700,18.009274658203125,0.007939338684082031,0.021490275859832764,0.01024317741394043
1683134471878114000,18.027114013671873,-0.07384586334228516,-0.07288068532943726,0.010348975658416748
1683134471895953700,18.04495361328125,-0.05006217956542969,0.10691583156585693,-0.07287633419036865
1683134471913790200,18.062790283203125,-0.030015945434570312,-0.0839611291885376,0.07575291395187378
1683134471931635700,18.0806357421875,-0.030267715454101562,0.12392902374267578,-0.07922917604446411
1683134471949472300,18.09847216796875,-0.005275726318359375,-0.11867713928222656,0.1022627055644989
1683134471967309000,18.11630908203125,-0.026348114013671875,0.11308330297470093,-0.12541818618774414
1683134471985153500,18.134153564453126,0.01731586456298828,-0.16127699613571167,0.13194584846496582
1683134472002990600,18.151990478515625,-0.0028352737426757812,0.071510910987854,-0.09922999143600464
1683134472020830000,18.169829833984377,0.03606224060058594,-0.10314053297042847,0.12823843955993652
1683134472038669300,18.18766943359375,-0.1259307861328125,0.11866021156311035,-0.11139005422592163
1683134472056508700,18.2055087890625,0.048938751220703125,-0.026380300521850586,0.1090606153011322
1683134472074348500,18.2233486328125,-0.0134735107421875,-0.029994547367095947,-0.030435919761657715
1683134472092187000,18.241186767578125,-0.06142425537109375,0.0238645076751709,0.04858076572418213
1683134472110028300,18.2590283203125,-0.022371292114257812,-0.1037832498550415,-0.032178401947021484
1683134472127867100,18.2768671875,0.009113311767578125,0.032894015312194824,-0.029775798320770264
1683134472145706800,18.294706787109376,-0.04101276397705078,-0.07497745752334595,0.030534446239471436
1683134472163538200,18.3125380859375,-0.08350753784179688,0.12566035985946655,-0.07540720701217651
1683134472181388000,18.330387939453125,-0.05338573455810547,-0.11066043376922607,0.08658766746520996
1683134472199225300,18.348225341796876,-0.03357410430908203,0.12446486949920654,-0.11420196294784546
1683134472217064400,18.366064453125,0.015283584594726562,-0.13501369953155518,0.1496613621711731
1683134472234904000,18.383904052734376,-0.04644966125488281,0.09525406360626221,-0.12191629409790039
1683134472252739600,18.401739501953124,-0.00034332275390625,-0.14708691835403442,0.12217926979064941
1683134472270583300,18.419583251953124,-0.0016088485717773438,0.10525107383728027,-0.0994061827659607
1683134472288414000,18.4374140625,0.10559940338134766,-0.06810617446899414,0.14437168836593628
1683134472306263300,18.45526318359375,-0.11699390411376953,0.054052770137786865,-0.09856027364730835
1683134472324098600,18.4730986328125,0.015122413635253906,-0.007946431636810303,0.08144450187683105
1683134472341942800,18.49094287109375,0.01681041717529297,-0.06859362125396729,-0.0031505823135375977
1683134472359780000,18.508780029296876,-0.034323692321777344,0.01147007942199707,0.01328665018081665
1683134472377620200,18.5266201171875,-0.08756446838378906,-0.06229168176651001,-0.03684794902801514
1683134472395458800,18.544458740234376,-0.033153533935546875,0.06719911098480225,-0.03470563888549805
1683134472413294000,18.562294189453127,0.018680572509765625,-0.05445516109466553,0.05455130338668823
1683134472431138300,18.58013818359375,-0.026639938354492188,0.1366736888885498,-0.07684046030044556
1683134472448966700,18.597966552734373,-0.02573680877685547,-0.12751418352127075,0.10005870461463928
1683134472466813200,18.615813232421875,-0.03129100799560547,0.14607715606689453,-0.12381452322006226
1683134472484652000,18.633652099609375,0.021261215209960938,-0.1802923083305359,0.13559117913246155
1683134472502496000,18.65149609375,-0.027182579040527344,0.10407382249832153,-0.09498882293701172
1683134472520335600,18.669335693359375,0.02736186981201172,-0.07791519165039062,0.14616906642913818
1683134472538174700,18.6871748046875,-0.04739665985107422,0.12525701522827148,-0.1253548264503479
1683134472556014600,18.7050146484375,0.10835838317871094,-0.05772918462753296,0.14991521835327148
1683134472573854000,18.72285400390625,-0.07187461853027344,0.016337335109710693,-0.07948857545852661
1683134472591694000,18.740694091796875,-0.0037698745727539062,0.007276415824890137,0.046872615814208984
1683134472609531600,18.75853173828125,-0.021811485290527344,-0.07153499126434326,-0.03521108627319336
1683134472627373600,18.77637353515625,0.007775306701660156,0.026441752910614014,0.022715747356414795
1683134472645212200,18.794212158203123,-0.06945228576660156,-0.054947614669799805,0.007709145545959473
1683134472663051800,18.8120517578125,-0.04881000518798828,0.09868502616882324,-0.05601680278778076
1683134472680890400,18.829890380859375,-0.041525840759277344,-0.08924615383148193,0.07090950012207031
1683134472698730500,18.84773046875,-0.03559684753417969,0.12749600410461426,-0.07918035984039307
1683134472716570000,18.865570068359375,-0.018433570861816406,-0.1266220211982727,0.09111547470092773
1683134472734405000,18.883405029296874,-0.013126373291015625,0.11346662044525146,-0.13563698530197144
1683134472752248600,18.90124853515625,-0.009607315063476562,-0.16598492860794067,0.1348220705986023
1683134472770092500,18.919092529296876,-0.012815475463867188,0.07474595308303833,-0.09814000129699707
1683134472787927600,18.936927490234375,0.06749439239501953,-0.09645235538482666,0.13334673643112183
1683134472805762600,18.954762451171874,-0.12461662292480469,0.10610198974609375,-0.10838478803634644
1683134472823606300,18.972606201171875,0.03981304168701172,-0.030320167541503906,0.12333184480667114
1683134472841451300,18.990451171875,-0.004979133605957031,-0.027705907821655273,-0.04067939519882202
1683134472859284200,19.0082841796875,-0.049605369567871094,0.001973390579223633,0.051847636699676514
1683134472877127400,19.02612744140625,-0.029081344604492188,-0.083587646484375,-0.041022419929504395
1683134472894963700,19.043963623046874,0.009659767150878906,0.029073059558868408,-0.022752463817596436
1683134472912800800,19.06180078125,-0.046507835388183594,-0.07203876972198486,0.045203328132629395
1683134472930642200,19.07964208984375,-0.0766305923461914,0.11183911561965942,-0.08148568868637085
1683134472948484600,19.097484619140626,-0.05110454559326172,-0.11921977996826172,0.07483899593353271
1683134472966322000,19.115322021484374,-0.031194686889648438,0.12305498123168945,-0.1091146469116211
1683134472984161500,19.13316162109375,0.005199432373046875,-0.1536881923675537,0.13619768619537354
1683134473002001400,19.15100146484375,-0.04207038879394531,0.10085713863372803,-0.11723381280899048
1683134473019827700,19.16882763671875,0.0031604766845703125,-0.14838016033172607,0.10486745834350586
1683134473037680000,19.18668017578125,-0.0194854736328125,0.1185120940208435,-0.0981188416481018
1683134473055512800,19.204512939453124,0.10605430603027344,-0.06054031848907471,0.16027802228927612
1683134473073345800,19.222345703125,-0.11071491241455078,0.047740638256073,-0.10038429498672485
1683134473091201800,19.240201904296875,0.0039157867431640625,-0.03120821714401245,0.09491848945617676
1683134473109037800,19.258037841796874,0.026500701904296875,-0.05114758014678955,-0.02448272705078125
1683134473126879000,19.27587890625,-0.0011911392211914062,-0.008154749870300293,0.031080961227416992
1683134473144717000,19.293717041015626,-0.09324169158935547,-0.031026005744934082,-0.0355105996131897
1683134473162554000,19.31155419921875,-0.023113250732421875,0.0714949369430542,-0.023418128490447998
1683134473180397300,19.329397216796874,0.011801719665527344,-0.052674293518066406,0.058368682861328125
1683134473198236000,19.34723583984375,-0.03611564636230469,0.1373775601387024,-0.07005071640014648
1683134473216075800,19.36507568359375,-0.02500438690185547,-0.13921719789505005,0.10360366106033325
1683134473233915000,19.382914794921874,-0.047061920166015625,0.13358932733535767,-0.11986184120178223
1683134473251752200,19.400752197265625,0.011033058166503906,-0.1788133978843689,0.12549328804016113
1683134473269595000,19.418594970703126,-0.025620460510253906,0.10981923341751099,-0.09850752353668213
1683134473287432400,19.436432373046873,0.04730415344238281,-0.07628172636032104,0.14010703563690186
1683134473305272600,19.4542724609375,-0.05132484436035156,0.1299799680709839,-0.13479077816009521
1683134473323111200,19.472111083984377,0.09646129608154297,-0.060451507568359375,0.16599375009536743
1683134473340951000,19.489950927734377,-0.06403350830078125,0.023543596267700195,-0.06692367792129517
1683134473358790400,19.507790283203125,-0.023960113525390625,-0.017342746257781982,0.0681753158569336
1683134473376625700,19.525625732421876,-0.029981613159179688,-0.0576244592666626,-0.04986536502838135
1683134473394469000,19.54346923828125,0.008042335510253906,0.010296344757080078,0.036296069622039795
1683134473412306000,19.561305908203124,-0.08008098602294922,-0.04019230604171753,0.010036945343017578
1683134473430148600,19.579148681640625,-0.024274826049804688,0.10227102041244507,-0.054914891719818115
1683134473447988200,19.59698828125,-0.018945693969726562,-0.09042483568191528,0.059532761573791504
1683134473465827000,19.6148271484375,-0.04647541046142578,0.12015295028686523,-0.07746464014053345
1683134473483655000,19.632655029296874,-0.04976367950439453,-0.13803166151046753,0.06448686122894287
1683134473501505000,19.650505126953124,-0.029526710510253906,0.12125396728515625,-0.12147307395935059
1683134473519335000,19.6683349609375,-0.023206710815429688,-0.17260754108428955,0.11160629987716675
1683134473537185300,19.686185302734376,-0.003154754638671875,0.08484995365142822,-0.09967285394668579
1683134473555012900,19.704012939453126,0.08571243286132812,-0.07927900552749634,0.13831382989883423
1683134473572859400,19.721859375,-0.1031341552734375,0.0898558497428894,-0.11447858810424805
1683134473590705400,19.739705322265625,0.0259552001953125,-0.05034369230270386,0.12490200996398926
1683134473608541700,19.757541748046876,-0.013681411743164062,-0.018285691738128662,-0.06483614444732666
1683134473626382000,19.775382080078124,-0.037903785705566406,-0.03451448678970337,0.05817532539367676
1683134473644222000,19.793221923828124,-0.06013202667236328,-0.04753553867340088,-0.05141043663024902
1683134473662061800,19.811061767578124,0.011962890625,0.020550310611724854,-0.007719933986663818
1683134473679900200,19.828900146484376,-0.050933837890625,-0.04563266038894653,0.04299914836883545
1683134473697737000,19.846737060546875,-0.06833553314208984,0.10005372762680054,-0.07484042644500732
1683134473715583000,19.8645830078125,-0.03483390808105469,-0.1573486328125,0.07337331771850586
1683134473733419500,19.88241943359375,-0.03278160095214844,0.12102174758911133,-0.10255318880081177
1683134473751255600,19.900255615234375,0.0032806396484375,-0.16261059045791626,0.12490570545196533
1683134473769101000,19.91810107421875,-0.027451515197753906,0.11312448978424072,-0.11554813385009766
1683134473786937300,19.935937255859375,0.009784698486328125,-0.12352967262268066,0.10688090324401855
1683134473804777200,19.953777099609376,-0.023061752319335938,0.12298506498336792,-0.0990256667137146
1683134473822615800,19.97161572265625,0.09133625030517578,-0.05852228403091431,0.17047494649887085
1683134473840455700,19.98945556640625,-0.10437488555908203,0.054470717906951904,-0.10955643653869629
1683134473858294000,20.0072939453125,0.017836570739746094,-0.06396186351776123,0.10316145420074463
1683134473876136000,20.025135986328124,0.02599620819091797,-0.03831082582473755,-0.03854191303253174
1683134473893969200,20.04296923828125,0.009527206420898438,-0.02281111478805542,0.06186819076538086
1683134473911813400,20.0608134765625,-0.09581375122070312,-0.014141976833343506,-0.04536795616149902
1683134473929653000,20.078653076171875,-0.012866973876953125,0.06766444444656372,-0.008401155471801758
1683134473947492400,20.096492431640623,-0.006773948669433594,-0.04851365089416504,0.050341904163360596
1683134473965331500,20.11433154296875,-0.04755401611328125,0.11436617374420166,-0.07437992095947266
1683134473983159600,20.13215966796875,-0.03436565399169922,-0.1606510877609253,0.07666796445846558
1683134474000993300,20.1499931640625,-0.04203033447265625,0.129258930683136,-0.12586110830307007
1683134474018839000,20.167839111328124,0.0034914016723632812,-0.1617574691772461,0.11007863283157349
1683134474036689000,20.18568896484375,-0.02485179901123047,0.12762612104415894,-0.09013402462005615
1683134474054535700,20.20353564453125,0.041260719299316406,-0.06754440069198608,0.1401793360710144
1683134474072368400,20.221368408203126,-0.05174541473388672,0.13576936721801758,-0.13247865438461304
1683134474090208300,20.239208251953126,0.08208560943603516,-0.04922133684158325,0.17358911037445068
1683134474108047000,20.257047119140626,-0.06794929504394531,0.028933942317962646,-0.09183400869369507
1683134474125887000,20.274886962890626,-0.046504974365234375,-0.030416786670684814,0.08616292476654053
1683134474143721500,20.292721435546873,-0.04100608825683594,-0.02838069200515747,-0.07731866836547852
1683134474161566000,20.31056591796875,0.028135299682617188,-0.018766582012176514,0.04571890830993652
1683134474179405000,20.328405029296874,-0.07846641540527344,-0.023853421211242676,0.0025717616081237793
1683134474197245000,20.346244873046874,-0.014092445373535156,0.09981900453567505,-0.043992578983306885
1683134474215079200,20.3640791015625,-0.020768165588378906,-0.10993295907974243,0.04954105615615845
1683134474232923000,20.3819228515625,-0.06673717498779297,0.11360925436019897,-0.07213383913040161
1683134474250765300,20.399765380859375,-0.063140869140625,-0.14020979404449463,0.06066828966140747
1683134474268601300,20.417601318359374,-0.03038311004638672,0.1325221061706543,-0.12120586633682251
1683134474286442800,20.43544287109375,-0.01776123046875,-0.1565646529197693,0.09934413433074951
1683134474304280600,20.453280517578126,0.0030422210693359375,0.08207190036773682,-0.09654206037521362
1683134474322120000,20.471119873046874,0.0813150405883789,-0.07631611824035645,0.14830636978149414
1683134474339959800,20.488959716796874,-0.0829458236694336,0.09623867273330688,-0.11636656522750854
1683134474357799200,20.506799072265625,0.031693458557128906,-0.06993836164474487,0.1404324769973755
1683134474375639000,20.52463916015625,-0.02705860137939453,-0.006214618682861328,-0.0669516921043396
1683134474393478000,20.542477783203125,-0.021951675415039062,-0.05811256170272827,0.059763312339782715
1683134474411318000,20.560318115234374,-0.0782003402709961,-0.02639937400817871,-0.07293170690536499
1683134474429156900,20.578156982421874,0.026594161987304688,0.006939709186553955,-0.0062250494956970215
1683134474446996700,20.595996826171874,-0.039816856384277344,-0.05053359270095825,0.03859180212020874
1683134474464831000,20.6138310546875,-0.06313610076904297,0.09776002168655396,-0.06618267297744751
1683134474482671000,20.631671142578124,-0.026274681091308594,-0.17067527770996094,0.06746995449066162
1683134474500514800,20.649514892578125,-0.02631092071533203,0.10880738496780396,-0.10047435760498047
1683134474518348000,20.66734814453125,0.004412651062011719,-0.16077560186386108,0.1127358078956604
1683134474536190000,20.68518994140625,-0.029613494873046875,0.11324137449264526,-0.11405611038208008
1683134474554030600,20.703030517578124,0.0061893463134765625,-0.1027989387512207,0.09716123342514038
1683134474571875000,20.720875,-0.022693634033203125,0.12114638090133667,-0.10161316394805908
1683134474589710800,20.7387109375,0.08117294311523438,-0.06961655616760254,0.17173779010772705
1683134474607552300,20.75655224609375,-0.08057403564453125,0.053362250328063965,-0.12098199129104614
1683134474625390800,20.774390869140625,0.03693199157714844,-0.08104074001312256,0.11395478248596191
1683134474643230500,20.79223046875,0.021048545837402344,-0.01588451862335205,-0.0526965856552124
1683134474661070000,20.810070068359376,0.009404182434082031,-0.035161495208740234,0.07402175664901733
1683134474678909000,20.827908935546876,-0.10707759857177734,0.0035543441772460938,-0.05237388610839844
1683134474696748500,20.84574853515625,0.0031309127807617188,0.06019866466522217,-0.011351466178894043
1683134474714588000,20.863587890625,-0.005517005920410156,-0.05273842811584473,0.045734286308288574
1683134474732427800,20.881427734375,-0.041724205017089844,0.10534167289733887,-0.06189197301864624
1683134474750266600,20.8992666015625,-0.025415420532226562,-0.16164612770080566,0.07244062423706055
1683134474768106500,20.9171064453125,-0.037512779235839844,0.128790020942688,-0.1176348328590393
1683134474785940700,20.934940673828127,0.0012950897216796875,-0.15325093269348145,0.10778185725212097
1683134474803784700,20.95278466796875,-0.020097732543945312,0.1257132887840271,-0.08414006233215332
1683134474821612800,20.97061279296875,0.0317230224609375,-0.07525229454040527,0.1374952793121338
1683134474839463700,20.988463623046876,-0.05047798156738281,0.13264966011047363,-0.13576215505599976
1683134474857303300,21.00630322265625,0.06812191009521484,-0.05485987663269043,0.17046213150024414
1683134474875143000,21.024142822265624,-0.07024478912353516,0.03481632471084595,-0.09959381818771362
1683134474892981800,21.041981689453124,-0.028464317321777344,-0.07210642099380493,0.09310513734817505
1683134474910820400,21.0598203125,-0.04804801940917969,-0.007431089878082275,-0.08575791120529175
1683134474928659200,21.0776591796875,0.04632854461669922,-0.03449118137359619,0.05688542127609253
1683134474946503400,21.09550341796875,-0.077392578125,0.00044798851013183594,-0.014352679252624512
1683134474964339500,21.11333935546875,-0.01806640625,0.09994000196456909,-0.031944870948791504
1683134474982179000,21.131178955078123,-0.004988670349121094,-0.10127335786819458,0.047093093395233154
1683134475000018700,21.149018798828124,-0.07704353332519531,0.10808515548706055,-0.05777043104171753
1683134475017858300,21.1668583984375,-0.07378387451171875,-0.14457625150680542,0.058091044425964355
1683134475035697200,21.184697265625,-0.03681182861328125,0.1280534863471985,-0.1227484941482544
1683134475053525000,21.20252490234375,-0.014085769653320312,-0.15275150537490845,0.07872635126113892
1683134475071365400,21.220365478515625,0.012752532958984375,0.10104674100875854,-0.09827965497970581
1683134475089216300,21.23821630859375,0.06812477111816406,-0.06022602319717407,0.14835697412490845
1683134475107055000,21.25605517578125,-0.06969547271728516,0.09872627258300781,-0.12052321434020996
1683134475124894500,21.27389453125,0.044216156005859375,-0.08355927467346191,0.14311808347702026
1683134475142730200,21.291730224609374,-0.028787612915039062,0.030625760555267334,-0.06597501039505005
1683134475160574000,21.309573974609375,-0.010397911071777344,-0.07012110948562622,0.07322084903717041
1683134475178412300,21.327412353515626,-0.07338809967041016,0.002064645290374756,-0.0846782922744751
1683134475196252200,21.345252197265626,0.05726814270019531,0.004379749298095703,0.013053953647613525
1683134475214091800,21.363091796875,-0.017663002014160156,-0.04110485315322876,0.017627716064453125
1683134475231930000,21.38093017578125,-0.04407978057861328,0.09108412265777588,-0.06633627414703369
1683134475249771300,21.398771240234375,-0.00022411346435546875,-0.16995829343795776,0.052288949489593506
1683134475267610000,21.416610107421874,-0.059406280517578125,0.09174644947052002,-0.09547621011734009
1683134475285449200,21.43444921875,-0.04161357879638672,-0.1459231972694397,0.0925864577293396
1683134475303288600,21.45228857421875,-0.05469036102294922,0.14014095067977905,-0.11884945631027222
1683134475321127700,21.470127685546874,-0.0005092620849609375,-0.10638749599456787,0.1074933409690857
1683134475338967300,21.48796728515625,0.0015621185302734375,0.11398273706436157,-0.11831170320510864
1683134475356806700,21.505806640625,0.08696174621582031,-0.09478402137756348,0.17167338728904724
1683134475374646500,21.523646484375,-0.06723308563232422,0.06258660554885864,-0.13382375240325928
1683134475392485000,21.541485107421874,0.047730445861816406,-0.0961151123046875,0.10144543647766113
1683134475410314500,21.559314453125,-0.014463424682617188,0.015236854553222656,-0.08085471391677856
1683134475428164900,21.577164794921874,0.003704071044921875,-0.057029902935028076,0.09835672378540039
