time,seconds_elapsed,z,y,x
1683134453967151900,0.11615185546875,9.758528709411621,-0.989432156085968,-0.6263213157653809
1683134453984998000,0.133997802734375,9.715457916259766,-0.9505487680435181,-0.527019202709198
1683134454002838800,0.1518388671875,9.65803050994873,-1.0707881450653076,-0.5748756527900696
1683134454020682000,0.169681884765625,9.739984512329102,-0.7256234884262085,-0.6173482537269592
1683134454038521900,0.18752197265625,9.648459434509277,-0.97926265001297,-0.43190449476242065
1683134454056349400,0.205349365234375,9.749555587768555,-0.7256234884262085,-0.7172485589981079
1683134454074201000,0.223201171875,9.837491989135742,-1.1467602252960205,-0.2638086974620819
1683134454092038000,0.241037841796875,9.640682220458984,-0.6448656916618347,-0.7513462901115417
1683134454109882400,0.25888232421875,9.775876998901367,-1.103689432144165,-0.3026920557022095
1683134454127721000,0.276720947265625,9.735198974609375,-0.7495517134666443,-0.7082754969596863
1683134454145559600,0.2945595703125,9.885348320007324,-1.093519926071167,-0.2638086974620819
1683134454163396600,0.312396728515625,9.625727653503418,-0.7836494445800781,-0.7226324677467346
1683134454181232400,0.330232421875,9.791430473327637,-0.9170492887496948,-0.4217349886894226
1683134454199079200,0.3480791015625,9.715457916259766,-1.022931694984436,-0.5886343717575073
1683134454216918300,0.365918212890625,9.729216575622559,-0.9218349456787109,-0.46480581164360046
1683134454234757000,0.383757080078125,9.629914283752441,-1.0085747241973877,-0.5892325639724731
1683134454252598300,0.401598388671875,9.663414001464844,-0.7974081635475159,-0.6035895347595215
1683134454270436600,0.4194365234375,9.686744689941406,-0.9888339638710022,-0.48873403668403625
1683134454288275700,0.437275634765625,9.772886276245117,-0.7256234884262085,-0.5886343717575073
1683134454306112500,0.455112548828125,9.738189697265625,-1.0319048166275024,-0.37866419553756714
1683134454323958300,0.472958251953125,9.692726135253906,-0.6640082597732544,-0.7657032608985901
1683134454341793500,0.49079345703125,9.894919395446777,-1.189831018447876,-0.25423741340637207
1683134454359634200,0.50863427734375,9.739984512329102,-0.7591229677200317,-0.6795616149902344
1683134454377476000,0.52647607421875,9.7998046875,-1.1132607460021973,-0.3164508044719696
1683134454395314700,0.544314697265625,9.635896682739258,-0.6975077986717224,-0.7465606927871704
1683134454413154000,0.562154052734375,9.866804122924805,-1.0031908750534058,-0.363709032535553
1683134454430987000,0.579987060546875,9.729815483093262,-0.9176474809646606,-0.6221339106559753
1683134454448824300,0.59782421875,9.734601020812988,-0.8452646136283875,-0.48394837975502014
1683134454466673700,0.615673583984375,9.681958198547363,-1.0564311742782593,-0.6125625967979431
1683134454484512300,0.63351220703125,9.715457916259766,-0.8548358678817749,-0.5509474277496338
1683134454502352100,0.65135205078125,9.67238712310791,-1.042074203491211,-0.5413761138916016
1683134454520180200,0.66918017578125,9.687342643737793,-0.7112665176391602,-0.6514459848403931
1683134454538032000,0.6870322265625,9.686145782470703,-1.012762188911438,-0.3936193287372589
1683134454555864000,0.704864013671875,9.79262638092041,-0.6969096064567566,-0.7124629616737366
1683134454573710600,0.722710693359375,9.894919395446777,-1.1174482107162476,-0.23988047242164612
1683134454591550700,0.74055078125,9.616754531860352,-0.7214360237121582,-0.760917603969574
1683134454609389800,0.758389892578125,9.814162254333496,-1.1228320598602295,-0.3164508044719696
1683134454627229700,0.776229736328125,9.744770050048828,-0.7304090857505798,-0.7172485589981079
1683134454645069000,0.794069091796875,9.833304405212402,-1.079761266708374,-0.2638086974620819
1683134454662909000,0.811908935546875,9.559326171875,-0.7740781307220459,-0.6945167779922485
1683134454680737000,0.829737060546875,9.762716293334961,-0.8835497498512268,-0.4265206456184387
1683134454698588000,0.847587890625,9.710672378540039,-0.989432156085968,-0.5886343717575073
1683134454716425000,0.865425048828125,9.720243453979492,-0.8691928386688232,-0.48394837975502014
1683134454734270200,0.883270263671875,9.634101867675781,-1.0372886657714844,-0.5605186820030212
1683134454752106000,0.90110595703125,9.682557106018066,-0.7447660565376282,-0.6275177597999573
1683134454769947600,0.91894775390625,9.710074424743652,-1.012762188911438,-0.47916272282600403
1683134454787785700,0.93678564453125,9.759127616882324,-0.706480860710144,-0.6125625967979431
1683134454805614300,0.9546142578125,9.695717811584473,-1.017547845840454,-0.3409772217273712
1683134454823465700,0.9724658203125,9.707083702087402,-0.6544370055198669,-0.7752745151519775
1683134454841304800,0.990304931640625,9.880562782287598,-1.1222338676452637,-0.22552353143692017
1683134454859144700,1.008144775390625,9.69212818145752,-0.7597211599349976,-0.6795616149902344
1683134454876984000,1.025984130859375,9.742975234985352,-1.0941181182861328,-0.3314059376716614
1683134454894824200,1.04382421875,9.654440879821777,-0.711864709854126,-0.7657032608985901
1683134454912667600,1.061667724609375,9.866804122924805,-1.012762188911438,-0.3732803463935852
1683134454930503400,1.07950341796875,9.729815483093262,-0.9224331378936768,-0.6029912829399109
1683134454948342000,1.097342041015625,9.748957633972168,-0.8213363885879517,-0.5174478888511658
1683134454966183400,1.115183349609375,9.681958198547363,-1.0803594589233398,-0.5838487148284912
1683134454984021500,1.133021484375,9.715457916259766,-0.8356932997703552,-0.5509474277496338
1683134455001861400,1.150861328125,9.65803050994873,-1.0612168312072754,-0.527019202709198
1683134455019701200,1.168701171875,9.673583984375,-0.706480860710144,-0.6514459848403931
1683134455037528800,1.18652880859375,9.686145782470703,-1.036690354347229,-0.4223332107067108
1683134455055369000,1.204368896484375,9.81655502319336,-0.7160521745681763,-0.7172485589981079
1683134455073215500,1.222215576171875,9.904491424560547,-1.1078768968582153,-0.2350948303937912
1683134455091060000,1.24006005859375,9.631111145019531,-0.7262216806411743,-0.7800601720809937
1683134455108899300,1.2578994140625,9.857233047485352,-1.1228320598602295,-0.3068794906139374
1683134455126737400,1.2757373046875,9.768698692321777,-0.7495517134666443,-0.6933203339576721
1683134455144579300,1.293579345703125,9.82373332977295,-1.0510473251342773,-0.26440688967704773
1683134455162418000,1.31141796875,9.540184020996094,-0.7405785918235779,-0.6855437159538269
1683134455180257800,1.3292578125,9.753145217895508,-0.8739784955978394,-0.4504488706588745
1683134455198096600,1.3470966796875,9.69631576538086,-0.9702895879745483,-0.5886343717575073
1683134455215937000,1.36493701171875,9.710672378540039,-0.8404789566993713,-0.4983053207397461
1683134455233776000,1.382776123046875,9.634101867675781,-1.0803594589233398,-0.5605186820030212
1683134455251612200,1.400612060546875,9.696913719177246,-0.735194742679596,-0.6556333899497986
1683134455269460000,1.4184599609375,9.719645500183105,-1.036690354347229,-0.4695914387702942
1683134455287295000,1.436294921875,9.777671813964844,-0.7112665176391602,-0.6125625967979431
1683134455305134800,1.454134765625,9.723833084106445,-0.9936196208000183,-0.32662028074264526
1683134455322974700,1.471974609375,9.683155059814453,-0.6496513485908508,-0.7848458290100098
1683134455340813800,1.489813720703125,9.885348320007324,-1.1126625537872314,-0.21595224738121033
1683134455358653400,1.5076533203125,9.68794059753418,-0.7501499056816101,-0.6843472719192505
1683134455376490200,1.525490234375,9.709476470947266,-1.0893324613571167,-0.35533416271209717
1683134455394331400,1.543331298828125,9.644869804382324,-0.7645068168640137,-0.7465606927871704
1683134455412172000,1.561172119140625,9.824331283569336,-0.9744769930839539,-0.41216370463371277
1683134455430012200,1.57901220703125,9.682557106018066,-0.9032905697822571,-0.5940182209014893
1683134455447854600,1.5968544921875,9.739386558532715,-0.8213363885879517,-0.5174478888511658
1683134455465691600,1.614691650390625,9.715457916259766,-1.0803594589233398,-0.5694918036460876
1683134455483530200,1.6325302734375,9.672985076904297,-0.7878368496894836,-0.5748756527900696
1683134455501370600,1.65037060546875,9.64367389678955,-1.0660024881362915,-0.4983053207397461
1683134455519211500,1.66821142578125,9.664012908935547,-0.6681957244873047,-0.6705885529518127
1683134455537051000,1.68605078125,9.724431037902832,-1.0510473251342773,-0.40737804770469666
1683134455554888700,1.703888671875,9.821340560913086,-0.7208378314971924,-0.722034215927124
1683134455572729900,1.721729736328125,9.894919395446777,-1.098305583000183,-0.23030917346477509
1683134455590568400,1.739568359375,9.640682220458984,-0.745364248752594,-0.7848458290100098
1683134455608390100,1.75739013671875,9.847661972045898,-1.1371889114379883,-0.32123643159866333
1683134455626246700,1.77524658203125,9.792028427124023,-0.7926225066184998,-0.6837490797042847
1683134455644084200,1.793084228515625,9.795618057250977,-1.0510473251342773,-0.3355933725833893
1683134455661929500,1.810929443359375,9.564111709594727,-0.7692924737930298,-0.6753742098808289
1683134455679763500,1.828763427734375,9.744172096252441,-0.8404789566993713,-0.47916272282600403
1683134455697608200,1.846608154296875,9.677172660827637,-0.9415757060050964,-0.5605186820030212
1683134455715441000,1.86444091796875,9.715457916259766,-0.802193820476532,-0.5365904569625854
1683134455733285600,1.88228564453125,9.662816047668457,-1.0755738019943237,-0.527019202709198
1683134455751124700,1.900124755859375,9.707083702087402,-0.6969096064567566,-0.6795616149902344
1683134455768963000,1.917963134765625,9.719645500183105,-1.0845468044281006,-0.43130627274513245
1683134455786805000,1.935804931640625,9.777671813964844,-0.706480860710144,-0.6173482537269592
1683134455804643300,1.953643310546875,9.7669038772583,-0.9936196208000183,-0.3074777126312256
1683134455822483200,1.971483154296875,9.683155059814453,-0.6544370055198669,-0.7657032608985901
1683134455840321300,1.9893212890625,9.89013385772705,-1.0600204467773438,-0.2111666053533554
1683134455858163200,2.0071630859375,9.683155059814453,-0.7645068168640137,-0.6939185857772827
1683134455876001300,2.025001220703125,9.686145782470703,-1.0606186389923096,-0.364905446767807
1683134455893841400,2.04284130859375,9.625727653503418,-0.7980063557624817,-0.7369893789291382
1683134455911680500,2.060680419921875,9.786046028137207,-0.9840483069419861,-0.4217349886894226
1683134455929508900,2.0785087890625,9.649057388305664,-0.8793623447418213,-0.5796613097190857
1683134455947360000,2.096360107421875,9.701101303100586,-0.8213363885879517,-0.5509474277496338
1683134455965200100,2.1142001953125,9.69631576538086,-1.089930772781372,-0.550349235534668
1683134455983039500,2.13203955078125,9.69212818145752,-0.7591229677200317,-0.6131607890129089
1683134456000878600,2.149878662109375,9.681360244750977,-1.1042876243591309,-0.4504488706588745
1683134456018713600,2.167713623046875,9.673583984375,-0.6544370055198669,-0.7082754969596863
1683134456036558300,2.185558349609375,9.742975234985352,-1.0558329820632935,-0.3978067636489868
1683134456054394400,2.203394287109375,9.797411918640137,-0.7208378314971924,-0.6933203339576721
1683134456072240000,2.221240234375,9.885348320007324,-1.069591760635376,-0.23988047242164612
1683134456090075600,2.23907568359375,9.616754531860352,-0.745364248752594,-0.7896314859390259
1683134456107918000,2.25691796875,9.833304405212402,-1.1228320598602295,-0.3164508044719696
1683134456125755600,2.274755615234375,9.844670295715332,-0.8356932997703552,-0.6598208546638489
1683134456143592400,2.292592529296875,9.79083251953125,-1.017547845840454,-0.3451646566390991
1683134456161436700,2.310436767578125,9.592227935791016,-0.778863787651062,-0.6658028960227966
1683134456179276300,2.3282763671875,9.744172096252441,-0.8309076428413391,-0.48873403668403625
1683134456197114400,2.3461142578125,9.681958198547363,-0.9272187948226929,-0.5365904569625854
1683134456214954200,2.363954345703125,9.725028991699219,-0.7878368496894836,-0.5700899958610535
1683134456232789800,2.381789794921875,9.686145782470703,-1.1234302520751953,-0.5078766345977783
1683134456250631700,2.399631591796875,9.692726135253906,-0.6879364848136902,-0.7034898400306702
1683134456268474600,2.417474609375,9.757332801818848,-1.1132607460021973,-0.3930211067199707
1683134456286312200,2.435312255859375,9.768698692321777,-0.6825526356697083,-0.6364908218383789
1683134456304151600,2.453151611328125,9.804591178894043,-0.9984052777290344,-0.3026920557022095
1683134456321992000,2.470991943359375,9.683155059814453,-0.6544370055198669,-0.7704889178276062
1683134456339830500,2.48883056640625,9.909276962280273,-1.0456634759902954,-0.20159530639648438
1683134456357671000,2.5066708984375,9.696913719177246,-0.7692924737930298,-0.6843472719192505
1683134456375510000,2.524510009765625,9.671789169311523,-1.012762188911438,-0.3696911036968231
1683134456393349600,2.542349609375,9.644869804382324,-0.8267202377319336,-0.7322037220001221
1683134456411187700,2.560187744140625,9.762716293334961,-0.9553344249725342,-0.4217349886894226
1683134456429030100,2.578030029296875,9.629914283752441,-0.8937192559242249,-0.5557330846786499
1683134456446868200,2.5958681640625,9.7064847946167,-0.8117650747299194,-0.5748756527900696
1683134456464708000,2.6137080078125,9.653244972229004,-1.0947163105010986,-0.5318048596382141
1683134456482547500,2.63154736328125,9.711270332336426,-0.7495517134666443,-0.6083751320838928
1683134456500387300,2.64938720703125,9.69093132019043,-1.1186445951461792,-0.4456632137298584
1683134456518225700,2.6672255859375,9.683155059814453,-0.6448656916618347,-0.7178468108177185
1683134456536067600,2.685067626953125,9.738189697265625,-1.0893324613571167,-0.373878538608551
1683134456553905400,2.702905517578125,9.77826976776123,-0.7208378314971924,-0.6933203339576721
1683134456571737300,2.7207373046875,9.894919395446777,-1.0360921621322632,-0.2350948303937912
1683134456589585000,2.7385849609375,9.58325481414795,-0.7405785918235779,-0.7752745151519775
1683134456607425000,2.756425048828125,9.780662536621094,-1.079761266708374,-0.3074777126312256
1683134456625262600,2.7742626953125,9.815957069396973,-0.8739784955978394,-0.6550351977348328
1683134456643106800,2.79210693359375,9.776474952697754,-1.017547845840454,-0.37866419553756714
1683134456660943400,2.809943359375,9.606584548950195,-0.8075776696205139,-0.6801598072052002
1683134456678783200,2.827783203125,9.720243453979492,-0.8356932997703552,-0.5126622319221497
1683134456696622300,2.845622314453125,9.686744689941406,-0.893121063709259,-0.5318048596382141
1683134456714462200,2.863462158203125,9.744172096252441,-0.7926225066184998,-0.5694918036460876
1683134456732300500,2.881300537109375,9.681360244750977,-1.109073281288147,-0.5030909776687622
1683134456750142700,2.899142822265625,9.664012908935547,-0.6735795736312866,-0.7034898400306702
1683134456767969300,2.91696923828125,9.786046028137207,-1.1515458822250366,-0.3690928816795349
1683134456785820400,2.9348203125,9.754341125488281,-0.6921239495277405,-0.6652047038078308
1683134456803655200,2.9526552734375,9.804591178894043,-1.012762188911438,-0.3116651475429535
1683134456821500000,2.9705,9.68794059753418,-0.6640082597732544,-0.7896314859390259
1683134456839338800,2.9883388671875,9.937990188598633,-1.0408778190612793,-0.22073788940906525
1683134456857179100,3.00617919921875,9.683155059814453,-0.7740781307220459,-0.698704183101654
1683134456875018500,3.0240185546875,9.719645500183105,-0.9840483069419861,-0.37447673082351685
1683134456892858000,3.041858154296875,9.687342643737793,-0.8506484627723694,-0.7130611538887024
1683134456910694400,3.0596943359375,9.772287368774414,-0.9553344249725342,-0.4217349886894226
1683134456928526800,3.07752685546875,9.625128746032715,-0.865005373954773,-0.5605186820030212
1683134456946377500,3.09537744140625,9.69212818145752,-0.7830511927604675,-0.5653043389320374
1683134456964216800,3.113216796875,9.614959716796875,-1.042074203491211,-0.5222335457801819
1683134456982055400,3.131055419921875,9.720842361450195,-0.7256234884262085,-0.6083751320838928
1683134456999883800,3.1488837890625,9.681360244750977,-1.109073281288147,-0.46002015471458435
1683134457017735000,3.16673486328125,9.697511672973633,-0.6592226624488831,-0.7465606927871704
1683134457035575000,3.184574951171875,9.723833084106445,-1.1084750890731812,-0.364905446767807
1683134457053408800,3.20240869140625,9.79262638092041,-0.7160521745681763,-0.6933203339576721
1683134457071253500,3.22025341796875,9.909276962280273,-1.0169496536254883,-0.27337998151779175
1683134457089093000,3.238093017578125,9.54078197479248,-0.7214360237121582,-0.771087110042572
1683134457106921000,3.2559208984375,9.762118339538574,-1.0414760112762451,-0.3170489966869354
1683134457124767200,3.273767333984375,9.763314247131348,-0.8793623447418213,-0.6598208546638489
1683134457142612700,3.29161279296875,9.724431037902832,-1.0031908750534058,-0.4169493317604065
1683134457160441900,3.30944189453125,9.635298728942871,-0.865005373954773,-0.6891329288482666
1683134457178291000,3.327291015625,9.705886840820312,-0.8404789566993713,-0.5174478888511658
1683134457196133400,3.34513330078125,9.691530227661133,-0.9320043921470642,-0.5413761138916016
1683134457213970000,3.362969970703125,9.730413436889648,-0.7591229677200317,-0.5892325639724731
1683134457231809800,3.380809814453125,9.657432556152344,-1.113858938217163,-0.47916272282600403
1683134457249649000,3.39864892578125,9.678369522094727,-0.6687939167022705,-0.7130611538887024
1683134457267490300,3.416490234375,9.80937671661377,-1.1611171960830688,-0.3690928816795349
1683134457285328100,3.434328125,9.711270332336426,-0.6921239495277405,-0.6747759580612183
1683134457303168000,3.45216796875,9.795618057250977,-1.0271191596984863,-0.32123643159866333
1683134457321007900,3.4700078125,9.716654777526855,-0.6496513485908508,-0.7704889178276062
1683134457338847000,3.487846923828125,9.994820594787598,-1.0456634759902954,-0.20578274130821228
1683134457356686600,3.5056865234375,9.668798446655273,-0.7836494445800781,-0.7178468108177185
1683134457374521900,3.52352197265625,9.734002113342285,-0.9744769930839539,-0.3840480446815491
1683134457392366800,3.541366943359375,9.696913719177246,-0.9080761671066284,-0.7082754969596863
1683134457410205200,3.559205078125,9.781859397888184,-0.9361918568611145,-0.43609192967414856
1683134457428045000,3.577045166015625,9.615557670593262,-0.8937192559242249,-0.5940182209014893
1683134457445879800,3.5948798828125,9.67777156829834,-0.7878368496894836,-0.5700899958610535
1683134457463712500,3.61271240234375,9.610772132873535,-1.0085747241973877,-0.5276173949241638
1683134457481563100,3.630563232421875,9.735198974609375,-0.7304090857505798,-0.607776939868927
1683134457499400400,3.648400390625,9.69093132019043,-1.085145115852356,-0.4456632137298584
1683134457517234000,3.66623388671875,9.68794059753418,-0.6640082597732544,-0.7657032608985901
1683134457535083000,3.6840830078125,9.738189697265625,-1.1324033737182617,-0.3409772217273712
1683134457552919800,3.701919921875,9.79262638092041,-0.7304090857505798,-0.6837490797042847
1683134457570762800,3.7197626953125,9.881160736083984,-1.0558329820632935,-0.30209386348724365
1683134457588602400,3.737602294921875,9.5264253616333,-0.711864709854126,-0.7567301392555237
1683134457606441000,3.75544091796875,9.795618057250977,-1.0031908750534058,-0.3122633695602417
1683134457624277500,3.773277587890625,9.744172096252441,-0.8937192559242249,-0.6604190468788147
1683134457642122800,3.791122802734375,9.671789169311523,-0.9840483069419861,-0.4175475537776947
1683134457659959300,3.808959228515625,9.66819953918457,-0.8889335989952087,-0.6843472719192505
1683134457677799200,3.826799072265625,9.729815483093262,-0.8548358678817749,-0.5222335457801819
1683134457695633700,3.844633544921875,9.691530227661133,-0.9032905697822571,-0.5557330846786499
1683134457713469000,3.862468994140625,9.663414001464844,-0.7543373107910156,-0.6131607890129089
1683134457731317800,3.88031787109375,9.605388641357422,-1.0707881450653076,-0.4701896607875824
1683134457749158100,3.898158203125,9.707083702087402,-0.6729813814163208,-0.6891329288482666
1683134457766986000,3.915986083984375,9.7998046875,-1.1802598237991333,-0.3355933725833893
1683134457784836600,3.933836669921875,9.673583984375,-0.6927221417427063,-0.7082754969596863
1683134457802672400,3.95167236328125,9.757332801818848,-1.0701899528503418,-0.3314059376716614
1683134457820514600,3.9695146484375,9.731011390686035,-0.6448656916618347,-0.7651050686836243
1683134457838337300,3.987337158203125,10.023533821105957,-1.0552347898483276,-0.24406790733337402
1683134457856196000,4.005196044921875,9.630513191223145,-0.7645068168640137,-0.7465606927871704
1683134457874034400,4.023034423828125,9.7669038772583,-0.9505487680435181,-0.38344982266426086
1683134457891873000,4.040873046875,9.711270332336426,-0.9367900490760803,-0.6891329288482666
1683134457909714400,4.05871435546875,9.781859397888184,-0.9744769930839539,-0.4456632137298584
1683134457927549700,4.0765498046875,9.610772132873535,-0.9320043921470642,-0.6275177597999573
1683134457945396500,4.094396484375,9.67777156829834,-0.8261220455169678,-0.5700899958610535
1683134457963232500,4.112232421875,9.629316329956055,-0.9750752449035645,-0.5222335457801819
1683134457981072000,4.13007177734375,9.777671813964844,-0.7256234884262085,-0.6173482537269592
1683134457998911700,4.147911865234375,9.734002113342285,-1.1084750890731812,-0.43130627274513245
1683134458016746200,4.165746337890625,9.697511672973633,-0.6305087804794312,-0.7752745151519775
1683134458034596600,4.1835966796875,9.78544807434082,-1.1515458822250366,-0.32123643159866333
1683134458052429800,4.201429931640625,9.79262638092041,-0.735194742679596,-0.6789634227752686
1683134458070270200,4.219270263671875,9.838089942932129,-1.0893324613571167,-0.30209386348724365
1683134458088109600,4.237109619140625,9.535996437072754,-0.6831508874893188,-0.7519445419311523
1683134458105949200,4.25494921875,9.833304405212402,-1.0031908750534058,-0.33080771565437317
1683134458123789300,4.272789306640625,9.744172096252441,-0.8697910308837891,-0.6604190468788147
1683134458141626400,4.29062646484375,9.629316329956055,-0.9266205430030823,-0.4127618968486786
1683134458159468300,4.30846826171875,9.682557106018066,-0.9367900490760803,-0.6795616149902344
1683134458177308000,4.326307861328125,9.758528709411621,-0.893121063709259,-0.5312066078186035
1683134458195146500,4.344146484375,9.67238712310791,-0.9559326171875,-0.5796613097190857
1683134458212986000,4.361986083984375,9.635298728942871,-0.7549355626106262,-0.6227321028709412
1683134458230826200,4.379826171875,9.572486877441406,-1.0325030088424683,-0.4989035129547119
1683134458248666000,4.397666015625,9.720842361450195,-0.706480860710144,-0.7034898400306702
1683134458266505000,4.4155048828125,9.78544807434082,-1.1419745683670044,-0.30209386348724365
1683134458284344800,4.4333447265625,9.64965534210205,-0.6735795736312866,-0.7369893789291382
1683134458302184200,4.45118408203125,9.723833084106445,-1.1084750890731812,-0.32183465361595154
1683134458320024000,4.469024169921875,9.750154495239258,-0.6681957244873047,-0.7459624409675598
1683134458337863400,4.486863525390625,9.975677490234375,-1.0648061037063599,-0.2584248483181
1683134458355702800,4.504702880859375,9.602396965026855,-0.7836494445800781,-0.760917603969574
1683134458373542700,4.522542724609375,9.78126049041748,-0.9457631707191467,-0.388235479593277
1683134458391382300,4.54038232421875,9.768099784851074,-0.9559326171875,-0.6125625967979431
1683134458409222000,4.558221923828125,9.724431037902832,-0.9457631707191467,-0.4408775866031647
1683134458427060700,4.576060791015625,9.57787036895752,-0.9176474809646606,-0.6658028960227966
1683134458444902000,4.59390185546875,9.66819953918457,-0.8069794178009033,-0.5605186820030212
1683134458462737200,4.611737060546875,9.69631576538086,-0.9415757060050964,-0.5222335457801819
1683134458480567800,4.62956787109375,9.815957069396973,-0.7447660565376282,-0.6029912829399109
1683134458498419700,4.647419677734375,9.705288887023926,-1.0947163105010986,-0.4265206456184387
1683134458516259300,4.66525927734375,9.707083702087402,-0.6496513485908508,-0.7561319470405579
1683134458534094300,4.68309423828125,9.842875480651855,-1.2041879892349243,-0.33499518036842346
1683134458551938000,4.70093798828125,9.725627899169922,-0.7262216806411743,-0.7082754969596863
1683134458569778200,4.718778076171875,9.795019149780273,-1.103689432144165,-0.30209386348724365
1683134458587617500,4.736617431640625,9.616754531860352,-0.6640082597732544,-0.7657032608985901
1683134458605449200,4.75444921875,9.923633575439453,-1.031306505203247,-0.2829512655735016
1683134458623296500,4.772296630859375,9.7064847946167,-0.8410771489143372,-0.6891329288482666
1683134458641136400,4.790136474609375,9.724431037902832,-0.9170492887496948,-0.40319061279296875
1683134458658976300,4.807976318359375,9.7064847946167,-0.9367900490760803,-0.6795616149902344
1683134458676816000,4.82581591796875,9.781859397888184,-0.9026923179626465,-0.49351966381073
1683134458694654700,4.84365478515625,9.677172660827637,-0.9607182741165161,-0.5892325639724731
1683134458712494300,4.861494384765625,9.640084266662598,-0.7597211599349976,-0.6131607890129089
1683134458730334000,4.879333984375,9.54377269744873,-1.0037890672683716,-0.503689169883728
1683134458748174600,4.897174560546875,9.768698692321777,-0.7304090857505798,-0.6604190468788147
1683134458766013200,4.91501318359375,9.747760772705078,-1.0941181182861328,-0.3451646566390991
1683134458783848400,4.932848388671875,9.64965534210205,-0.6783652305603027,-0.7417750358581543
1683134458801692400,4.9506923828125,9.733404159545898,-1.103689432144165,-0.35054850578308105
1683134458819532500,4.968532470703125,9.773484230041504,-0.6921239495277405,-0.7124629616737366
1683134458837371400,4.986371337890625,9.937990188598633,-1.0648061037063599,-0.27756741642951965
1683134458855206700,5.00420654296875,9.58325481414795,-0.7357929348945618,-0.7567301392555237
1683134458873051000,5.02205078125,9.78126049041748,-0.9649057388305664,-0.38344982266426086
1683134458890891000,5.03989111328125,9.744172096252441,-0.9320043921470642,-0.6125625967979431
1683134458908728600,5.057728515625,9.677172660827637,-0.9409775137901306,-0.4414757788181305
1683134458926570800,5.07557080078125,9.592227935791016,-0.9224331378936768,-0.6753742098808289
1683134458944409000,5.0934091796875,9.687342643737793,-0.8069794178009033,-0.5461617708206177
1683134458962249000,5.1112490234375,9.729815483093262,-0.9409775137901306,-0.5413761138916016
1683134458980088000,5.129088134765625,9.772886276245117,-0.7782655358314514,-0.5886343717575073
1683134458997928000,5.146927978515625,9.657432556152344,-1.0803594589233398,-0.42711883783340454
1683134459015764700,5.1647646484375,9.697511672973633,-0.6496513485908508,-0.7465606927871704
1683134459033608000,5.18260791015625,9.852447509765625,-1.1850453615188599,-0.33499518036842346
1683134459051443700,5.200443603515625,9.678369522094727,-0.6927221417427063,-0.7082754969596863
1683134459069289500,5.21828955078125,9.733404159545898,-1.0606186389923096,-0.3074777126312256
1683134459087126000,5.2361259765625,9.697511672973633,-0.6687939167022705,-0.7513462901115417
1683134459104961300,5.253961181640625,9.975677490234375,-1.0456634759902954,-0.2679961323738098
1683134459122801400,5.271801513671875,9.654440879821777,-0.8171489238739014,-0.698704183101654
1683134459140646400,5.289646484375,9.757930755615234,-0.9218349456787109,-0.4217349886894226
1683134459158484500,5.307484375,9.734601020812988,-0.9702895879745483,-0.6837490797042847
1683134459176320300,5.3253203125,9.78664493560791,-0.8979067206382751,-0.48394837975502014
1683134459194162200,5.343162109375,9.663414001464844,-0.9559326171875,-0.6083751320838928
1683134459212004000,5.361004150390625,9.663414001464844,-0.7639086246490479,-0.5940182209014893
1683134459229841400,5.37884130859375,9.56770133972168,-0.9559326171875,-0.503689169883728
1683134459247684000,5.39668408203125,9.744770050048828,-0.7112665176391602,-0.6317051649093628
1683134459265509600,5.414509521484375,9.728618621826172,-1.079761266708374,-0.3930211067199707
1683134459283361300,5.432361328125,9.664610862731934,-0.6448656916618347,-0.7848458290100098
1683134459301189400,5.450189453125,9.804591178894043,-1.1371889114379883,-0.32123643159866333
1683134459319041000,5.468041015625,9.773484230041504,-0.7208378314971924,-0.6933203339576721
1683134459336880000,5.485880126953125,9.857233047485352,-1.0606186389923096,-0.32602208852767944
1683134459354719500,5.503719482421875,9.554540634155273,-0.7022934556007385,-0.7567301392555237
1683134459372559400,5.521559326171875,9.809974670410156,-0.9553344249725342,-0.3643072545528412
1683134459390399500,5.5393994140625,9.739386558532715,-0.8937192559242249,-0.6221339106559753
1683134459408226300,5.557226318359375,9.64367389678955,-0.9026923179626465,-0.4414757788181305
1683134459426072800,5.57507275390625,9.649057388305664,-0.9463613629341125,-0.6556333899497986
1683134459443917000,5.5929169921875,9.710672378540039,-0.8069794178009033,-0.5605186820030212
1683134459461759700,5.610759765625,9.715457916259766,-0.9601200819015503,-0.5365904569625854
1683134459479596500,5.628596435546875,9.7064847946167,-0.7543373107910156,-0.6269195079803467
1683134459497436400,5.6464365234375,9.614959716796875,-1.0325030088424683,-0.45583271980285645
1683134459515276000,5.664276123046875,9.711869239807129,-0.6586244106292725,-0.7322037220001221
1683134459533116200,5.6821162109375,9.804591178894043,-1.189831018447876,-0.30209386348724365
1683134459550954000,5.6999541015625,9.631111145019531,-0.6927221417427063,-0.7417750358581543
1683134459568796200,5.717796142578125,9.699904441833496,-1.0558329820632935,-0.3074777126312256
1683134459586634500,5.735634521484375,9.721440315246582,-0.6544370055198669,-0.7698906660079956
1683134459604474400,5.753474365234375,9.994820594787598,-1.069591760635376,-0.25363919138908386
1683134459622313500,5.7713134765625,9.607182502746582,-0.7549355626106262,-0.7513462901115417
1683134459640153600,5.789153564453125,9.772287368774414,-0.9314061999320984,-0.4169493317604065
1683134459657993000,5.806992919921875,9.720243453979492,-0.9846464991569519,-0.6693921089172363
1683134459675821000,5.824821044921875,9.77707290649414,-0.9266205430030823,-0.4743770956993103
1683134459693672000,5.842671875,9.639486312866211,-0.9798609018325806,-0.617946445941925
1683134459711509800,5.860509765625,9.620942115783691,-0.7692924737930298,-0.6131607890129089
1683134459729353700,5.878353759765625,9.615557670593262,-0.9463613629341125,-0.4941178858280182
1683134459747191300,5.89619140625,9.754341125488281,-0.7112665176391602,-0.6173482537269592
1683134459765030400,5.914030517578125,9.734002113342285,-1.0558329820632935,-0.4169493317604065
1683134459782870300,5.931870361328125,9.674181938171387,-0.6735795736312866,-0.794417142868042
1683134459800709600,5.949709716796875,9.857233047485352,-1.1754741668701172,-0.33020952343940735
1683134459818549800,5.9675498046875,9.768698692321777,-0.7208378314971924,-0.6885347366333008
1683134459836389600,5.9853896484375,9.804591178894043,-1.079761266708374,-0.32602208852767944
1683134459854227700,6.003227783203125,9.58325481414795,-0.6879364848136902,-0.7567301392555237
1683134459872066800,6.02106689453125,9.838688850402832,-0.9649057388305664,-0.37866419553756714
1683134459889909000,6.038908935546875,9.734601020812988,-0.9080761671066284,-0.6125625967979431
1683134459907747000,6.0567470703125,9.648459434509277,-0.8500502705574036,-0.47976094484329224
1683134459925587200,6.074587158203125,9.65384292602539,-0.9942178130149841,-0.6364908218383789
1683134459943426000,6.092426025390625,9.701699256896973,-0.8213363885879517,-0.5796613097190857
1683134459961266200,6.11026611328125,9.701101303100586,-0.9942178130149841,-0.5509474277496338
1683134459979105300,6.128105224609375,9.69212818145752,-0.7399803996086121,-0.6556333899497986
1683134459996945200,6.145945068359375,9.610174179077148,-1.0031908750534058,-0.4366901218891144
1683134460014785000,6.163784912109375,9.739984512329102,-0.6825526356697083,-0.727418065071106
1683134460032624400,6.181624267578125,9.828518867492676,-1.1611171960830688,-0.27816563844680786
1683134460050464000,6.199464111328125,9.631111145019531,-0.6783652305603027,-0.7513462901115417
1683134460068304100,6.21730419921875,9.719047546386719,-1.0654042959213257,-0.3074777126312256
1683134460086143000,6.23514306640625,9.749555587768555,-0.6729813814163208,-0.7411768436431885
1683134460103983000,6.252983154296875,9.923633575439453,-1.0791629552841187,-0.27756741642951965
1683134460121822200,6.270822265625,9.573683738708496,-0.7740781307220459,-0.7280163168907166
1683134460139662000,6.288662109375,9.772287368774414,-0.8883354067802429,-0.45523449778556824
1683134460157499000,6.306498779296875,9.710672378540039,-0.9942178130149841,-0.6269195079803467
1683134460175341600,6.324341552734375,9.743574142456055,-0.8835497498512268,-0.48873403668403625
1683134460193174800,6.3421748046875,9.629914283752441,-0.9846464991569519,-0.6083751320838928
1683134460211021600,6.360021484375,9.640084266662598,-0.7208378314971924,-0.6227321028709412
1683134460228860000,6.37785986328125,9.65803050994873,-0.9655039310455322,-0.5030909776687622
1683134460246700000,6.395699951171875,9.735198974609375,-0.7112665176391602,-0.6317051649093628
1683134460264526800,6.41352685546875,9.719645500183105,-1.0271191596984863,-0.3696911036968231
1683134460282378800,6.431378662109375,9.674181938171387,-0.6592226624488831,-0.8087740540504456
1683134460300218600,6.449218505859375,9.880562782287598,-1.1563315391540527,-0.2925225794315338
1683134460318058500,6.46705859375,9.744770050048828,-0.7304090857505798,-0.7034898400306702
1683134460335883300,6.48488330078125,9.776474952697754,-1.0893324613571167,-0.35473597049713135
1683134460353740300,6.502740234375,9.631111145019531,-0.6975077986717224,-0.7561319470405579
1683134460371577000,6.5205771484375,9.857831001281738,-0.9649057388305664,-0.397208571434021
1683134460389416700,6.538416748046875,9.725028991699219,-0.9272187948226929,-0.6221339106559753
1683134460407255800,6.556255859375,9.67238712310791,-0.8165507316589355,-0.503689169883728
1683134460425095400,6.574095458984375,9.677172660827637,-1.0564311742782593,-0.641276478767395
1683134460442935600,6.591935546875,9.69212818145752,-0.8165507316589355,-0.5892325639724731
1683134460460775200,6.609775146484375,9.677172660827637,-1.022931694984436,-0.5413761138916016
1683134460478614300,6.6276142578125,9.673583984375,-0.706480860710144,-0.6658028960227966
1683134460496454100,6.6454541015625,9.638887405395508,-0.9936196208000183,-0.43190449476242065
1683134460514290400,6.66329052734375,9.749555587768555,-0.6777670383453369,-0.7459624409675598
1683134460532133600,6.681133544921875,9.856635093688965,-1.1324033737182617,-0.268594354391098
1683134460549961000,6.6989609375,9.626325607299805,-0.7070791125297546,-0.7704889178276062
1683134460567814000,6.71681396484375,9.771689414978027,-1.0701899528503418,-0.32602208852767944
1683134460585652200,6.73465234375,9.739984512329102,-0.7256234884262085,-0.7316055297851562
1683134460603491800,6.752491943359375,9.847661972045898,-1.074975609779358,-0.2877369225025177
1683134460621331200,6.770331298828125,9.564111709594727,-0.7549355626106262,-0.7040880918502808
1683134460639165200,6.788165283203125,9.748359680175781,-0.859621524810791,-0.45523449778556824
1683134460657012000,6.806011962890625,9.691530227661133,-0.9702895879745483,-0.5982056856155396
1683134460674850600,6.8238505859375,9.725028991699219,-0.8309076428413391,-0.5030909776687622
1683134460692685800,6.841685791015625,9.615557670593262,-1.0133603811264038,-0.5940182209014893
1683134460710529800,6.85952978515625,9.64965534210205,-0.706480860710144,-0.646660327911377
1683134460728365300,6.877365234375,9.69631576538086,-0.9888339638710022,-0.5078766345977783
1683134460746210000,6.8952099609375,9.744770050048828,-0.6921239495277405,-0.6317051649093628
1683134460764045000,6.913045166015625,9.719645500183105,-1.0031908750534058,-0.364905446767807
1683134460781891000,6.93089111328125,9.664610862731934,-0.6400800347328186,-0.8087740540504456
1683134460799727900,6.948727783203125,9.885348320007324,-1.1515458822250366,-0.25423741340637207
1683134460817567500,6.9665673828125,9.711270332336426,-0.735194742679596,-0.7034898400306702
1683134460835401700,6.984401611328125,9.747760772705078,-1.079761266708374,-0.34995031356811523
1683134460853243100,7.0022431640625,9.635896682739258,-0.7214360237121582,-0.760917603969574
1683134460871089200,7.020089111328125,9.866804122924805,-0.9984052777290344,-0.4163511395454407
1683134460888925000,7.037925048828125,9.744172096252441,-0.9074779748916626,-0.6125625967979431
1683134460906766000,7.05576611328125,9.720243453979492,-0.8069794178009033,-0.5557330846786499
1683134460924608800,7.07360888671875,9.681958198547363,-1.0755738019943237,-0.6173482537269592
1683134460942444300,7.0914443359375,9.66819953918457,-0.7782655358314514,-0.6083751320838928
1683134460960283100,7.109283203125,9.677172660827637,-1.046859860420227,-0.5174478888511658
1683134460978123800,7.127123779296875,9.654440879821777,-0.6538388133049011,-0.6705885529518127
1683134460995963600,7.144963623046875,9.66221809387207,-0.9984052777290344,-0.4175475537776947
1683134461013802800,7.162802734375,9.773484230041504,-0.7016952633857727,-0.722034215927124
1683134461031644000,7.180643798828125,9.885348320007324,-1.1084750890731812,-0.27337998151779175
1683134461049481000,7.19848095703125,9.621540069580078,-0.7310073375701904,-0.8087740540504456
1683134461067321900,7.21632177734375,9.828518867492676,-1.098903775215149,-0.33080771565437317
1683134461085161500,7.234161376953125,9.76391315460205,-0.735194742679596,-0.722034215927124
1683134461103001000,7.2520009765625,9.7998046875,-1.036690354347229,-0.3068794906139374
1683134461120840200,7.269840087890625,9.549755096435547,-0.7501499056816101,-0.6945167779922485
1683134461138680000,7.28768017578125,9.748359680175781,-0.8309076428413391,-0.46480581164360046
1683134461156508000,7.3055078125,9.672985076904297,-0.9511470198631287,-0.5988038778305054
1683134461174348300,7.323348388671875,9.701101303100586,-0.7974081635475159,-0.5174478888511658
1683134461192199400,7.341199462890625,9.615557670593262,-1.0372886657714844,-0.5605186820030212
1683134461210037200,7.359037353515625,9.673583984375,-0.6777670383453369,-0.6705885529518127
1683134461227879400,7.37687939453125,9.710074424743652,-1.0414760112762451,-0.48873403668403625
1683134461245718300,7.39471826171875,9.744770050048828,-0.6873382925987244,-0.6604190468788147
1683134461263554300,7.41255419921875,9.723833084106445,-0.9936196208000183,-0.3361915946006775
1683134461281398800,7.430398681640625,9.65503978729248,-0.6640082597732544,-0.8039883971214294
1683134461299227100,7.44822705078125,9.880562782287598,-1.093519926071167,-0.23988047242164612
1683134461317076700,7.46607666015625,9.696913719177246,-0.7399803996086121,-0.6843472719192505
1683134461334915800,7.483915771484375,9.719047546386719,-1.0606186389923096,-0.3696911036968231
1683134461352752000,7.501752197265625,9.630513191223145,-0.745364248752594,-0.7417750358581543
1683134461370595300,7.51959521484375,9.81954574584961,-0.9649057388305664,-0.44027936458587646
1683134461388435000,7.53743505859375,9.682557106018066,-0.898504912853241,-0.6125625967979431
1683134461406262300,7.55526220703125,9.720243453979492,-0.8069794178009033,-0.5700899958610535
1683134461424114000,7.573114013671875,9.715457916259766,-1.1042876243591309,-0.5982056856155396
1683134461441953800,7.590953857421875,9.66819953918457,-0.7543373107910156,-0.617946445941925
1683134461459794200,7.608794189453125,9.681360244750977,-1.0701899528503418,-0.48394837975502014
1683134461477633000,7.626633056640625,9.668798446655273,-0.6634100675582886,-0.6801598072052002
1683134461495472600,7.64447265625,9.69093132019043,-0.9984052777290344,-0.4175475537776947
1683134461513312300,7.662312255859375,9.768698692321777,-0.6969096064567566,-0.7268198728561401
1683134461531151000,7.680151123046875,9.880562782287598,-1.093519926071167,-0.24945175647735596
1683134461548992300,7.6979921875,9.640682220458984,-0.7214360237121582,-0.8087740540504456
1683134461566831400,7.715831298828125,9.857233047485352,-1.098903775215149,-0.3445664644241333
1683134461584670700,7.733670654296875,9.792028427124023,-0.7974081635475159,-0.6981059908866882
1683134461602511000,7.751510986328125,9.786046028137207,-1.0223335027694702,-0.35473597049713135
1683134461620349700,7.769349609375,9.549755096435547,-0.7549355626106262,-0.6753742098808289
1683134461638189800,7.78718994140625,9.758528709411621,-0.8069794178009033,-0.4983053207397461
1683134461656033300,7.805033203125,9.663414001464844,-0.9128618240356445,-0.5700899958610535
1683134461673857300,7.822857177734375,9.7064847946167,-0.768694281578064,-0.5557330846786499
1683134461691708400,7.84070849609375,9.614959716796875,-1.042074203491211,-0.5413761138916016
1683134461709545500,7.85854541015625,9.68794059753418,-0.6634100675582886,-0.698704183101654
1683134461727390700,7.876390625,9.710074424743652,-1.0755738019943237,-0.4695914387702942
1683134461745227500,7.8942275390625,9.749555587768555,-0.6729813814163208,-0.6556333899497986
1683134461763062500,7.9120625,9.762118339538574,-0.9840483069419861,-0.32183465361595154
1683134461780909300,7.929909423828125,9.674181938171387,-0.6400800347328186,-0.8135597109794617
1683134461798746000,7.94774609375,9.870991706848145,-1.0648061037063599,-0.23030917346477509
1683134461816586200,7.965586181640625,9.68794059753418,-0.7549355626106262,-0.7082754969596863
1683134461834425300,7.98342529296875,9.67657470703125,-1.0510473251342773,-0.3888336718082428
1683134461852263700,8.001263671875,9.640084266662598,-0.7645068168640137,-0.7369893789291382
1683134461870106400,8.0191064453125,9.800403594970703,-0.9505487680435181,-0.4498506486415863
1683134461887944700,8.03694482421875,9.644271850585938,-0.8937192559242249,-0.5892325639724731
1683134461905783800,8.05478369140625,9.701699256896973,-0.8069794178009033,-0.5748756527900696
1683134461923618800,8.072618896484375,9.681958198547363,-1.0947163105010986,-0.5742774605751038
1683134461941463300,8.09046337890625,9.735198974609375,-0.7256234884262085,-0.641276478767395
1683134461959303400,8.108303466796874,9.734002113342285,-1.0845468044281006,-0.4456632137298584
1683134461977142500,8.126142578125,9.683155059814453,-0.6394818425178528,-0.7034898400306702
1683134461994983200,8.143983154296874,9.710074424743652,-1.0223335027694702,-0.4169493317604065
1683134462012816600,8.161816650390625,9.77826976776123,-0.6969096064567566,-0.7268198728561401
1683134462030662000,8.179661865234374,9.875777244567871,-1.0408778190612793,-0.25423741340637207
1683134462048487700,8.19748779296875,9.607182502746582,-0.7405785918235779,-0.794417142868042
1683134462066342000,8.215341796875,9.82373332977295,-1.103689432144165,-0.34995031356811523
1683134462084180700,8.2331806640625,9.81117057800293,-0.8452646136283875,-0.6693921089172363
1683134462102021600,8.251021728515624,9.786046028137207,-1.0031908750534058,-0.37866419553756714
1683134462119858000,8.26885791015625,9.573683738708496,-0.7597211599349976,-0.6897311210632324
1683134462137699000,8.286698974609376,9.744172096252441,-0.8213363885879517,-0.5078766345977783
1683134462155539000,8.3045390625,9.681958198547363,-0.9026923179626465,-0.5653043389320374
1683134462173374000,8.3223740234375,9.720842361450195,-0.7639086246490479,-0.5748756527900696
1683134462191218000,8.340218017578126,9.653244972229004,-1.0660024881362915,-0.5365904569625854
1683134462209058000,8.35805810546875,9.68794059753418,-0.6394818425178528,-0.7130611538887024
1683134462226897400,8.3758974609375,9.738189697265625,-1.098903775215149,-0.43130627274513245
1683134462244732700,8.393732666015625,9.749555587768555,-0.6729813814163208,-0.6699903607368469
1683134462262574300,8.41157421875,9.795618057250977,-0.9840483069419861,-0.3122633695602417
1683134462280421400,8.42942138671875,9.692726135253906,-0.6400800347328186,-0.8033902049064636
1683134462298255000,8.447255126953126,9.894919395446777,-1.0360921621322632,-0.25423741340637207
1683134462316097000,8.465096923828124,9.701699256896973,-0.768694281578064,-0.6843472719192505
1683134462333934800,8.482934814453126,9.657432556152344,-1.0223335027694702,-0.40319061279296875
1683134462351775000,8.50077490234375,9.659226417541504,-0.8171489238739014,-0.7417750358581543
1683134462369613600,8.518613525390625,9.753145217895508,-0.9361918568611145,-0.46002015471458435
1683134462387455500,8.53645556640625,9.601799011230469,-0.8506484627723694,-0.5892325639724731
1683134462405293600,8.55429345703125,9.682557106018066,-0.7878368496894836,-0.5700899958610535
1683134462423133700,8.5721337890625,9.65803050994873,-1.0660024881362915,-0.5509474277496338
1683134462440973300,8.589973388671876,9.739984512329102,-0.7208378314971924,-0.641276478767395
1683134462458813200,8.607813232421876,9.705288887023926,-1.079761266708374,-0.4456632137298584
1683134462476652000,8.625652099609376,9.70229721069336,-0.6059823632240295,-0.7369893789291382
1683134462494487300,8.6434873046875,9.729216575622559,-1.0462616682052612,-0.3978067636489868
1683134462512331300,8.661331298828125,9.768698692321777,-0.6873382925987244,-0.7316055297851562
1683134462530162000,8.679161865234375,9.894919395446777,-1.0456634759902954,-0.25423741340637207
1683134462548010500,8.697010498046875,9.573683738708496,-0.7501499056816101,-0.794417142868042
1683134462565838800,8.7148388671875,9.80518913269043,-1.0654042959213257,-0.35473597049713135
1683134462583690200,8.732690185546875,9.806385040283203,-0.8691928386688232,-0.6550351977348328
1683134462601530000,8.750530029296876,9.771689414978027,-0.9888339638710022,-0.388235479593277
1683134462619356200,8.768356201171875,9.611370086669922,-0.7740781307220459,-0.6897311210632324
1683134462637210000,8.786210205078126,9.710672378540039,-0.8117650747299194,-0.5413761138916016
1683134462655048700,8.804048583984375,9.691530227661133,-0.893121063709259,-0.5365904569625854
1683134462672888800,8.821888916015626,9.748957633972168,-0.7543373107910156,-0.5790630578994751
1683134462690726700,8.8397265625,9.67238712310791,-1.0755738019943237,-0.5126622319221497
1683134462708568600,8.857568603515626,9.683155059814453,-0.6299105882644653,-0.7130611538887024
1683134462726407400,8.875407470703125,9.78126049041748,-1.1371889114379883,-0.388235479593277
1683134462744249300,8.893249267578126,9.739984512329102,-0.6586244106292725,-0.6843472719192505
1683134462762086700,8.911086669921875,9.828518867492676,-1.012762188911438,-0.3355933725833893
1683134462779925500,8.928925537109375,9.697511672973633,-0.6544370055198669,-0.7938188910484314
1683134462797766400,8.946766357421875,9.937990188598633,-1.031306505203247,-0.24466611444950104
1683134462815601200,8.96460107421875,9.692726135253906,-0.7740781307220459,-0.7226324677467346
1683134462833444600,8.982444580078125,9.671789169311523,-0.9840483069419861,-0.40319061279296875
1683134462851273000,9.00027294921875,9.67777156829834,-0.865005373954773,-0.7322037220001221
1683134462869124600,9.01812451171875,9.762716293334961,-0.9409775137901306,-0.46480581164360046
1683134462886964200,9.035964111328125,9.615557670593262,-0.9032905697822571,-0.584446907043457
1683134462904800300,9.05380029296875,9.672985076904297,-0.7734799385070801,-0.5940182209014893
1683134462922636800,9.07163671875,9.601201057434082,-1.022931694984436,-0.5509474277496338
1683134462940481500,9.0894814453125,9.735198974609375,-0.706480860710144,-0.641276478767395
1683134462958323000,9.107322998046875,9.69093132019043,-1.098903775215149,-0.43609192967414856
1683134462976162600,9.12516259765625,9.711869239807129,-0.6203392744064331,-0.7561319470405579
1683134462993990100,9.142990234375,9.742975234985352,-1.0893324613571167,-0.3978067636489868
1683134463011840500,9.160840576171875,9.79262638092041,-0.6921239495277405,-0.7124629616737366
1683134463029682700,9.1786826171875,9.89013385772705,-1.0408778190612793,-0.2877369225025177
1683134463047520300,9.196520263671875,9.535996437072754,-0.7214360237121582,-0.7902296781539917
1683134463065360000,9.21435986328125,9.786046028137207,-1.036690354347229,-0.34995031356811523
1683134463083200000,9.232199951171875,9.792028427124023,-0.8787640929222107,-0.6406782865524292
1683134463101039900,9.250039794921875,9.719645500183105,-0.9696913957595825,-0.4265206456184387
1683134463118879000,9.26787890625,9.625727653503418,-0.8410771489143372,-0.698704183101654
1683134463136714200,9.28571435546875,9.710672378540039,-0.8117650747299194,-0.5557330846786499
1683134463154558700,9.303558837890625,9.715457916259766,-0.9122636318206787,-0.5599204897880554
1683134463172395300,9.321395263671874,9.753743171691895,-0.7447660565376282,-0.607776939868927
1683134463190241300,9.3392412109375,9.667601585388184,-1.0803594589233398,-0.5030909776687622
1683134463208076000,9.357075927734375,9.68794059753418,-0.6299105882644653,-0.7369893789291382
1683134463225918500,9.37491845703125,9.814162254333496,-1.1371889114379883,-0.34995031356811523
1683134463243753700,9.392753662109374,9.716654777526855,-0.6394818425178528,-0.7034898400306702
1683134463261598200,9.41059814453125,9.795618057250977,-1.0223335027694702,-0.32602208852767944
1683134463279437000,9.42843701171875,9.70229721069336,-0.6400800347328186,-0.7938188910484314
1683134463297275600,9.446275634765625,9.970891952514648,-1.0504491329193115,-0.2584248483181
1683134463315116000,9.464115966796875,9.692726135253906,-0.7980063557624817,-0.7322037220001221
1683134463332950300,9.4819501953125,9.724431037902832,-0.9601200819015503,-0.4217349886894226
1683134463350794200,9.499794189453125,9.711270332336426,-0.9032905697822571,-0.7316055297851562
1683134463368634400,9.51763427734375,9.772287368774414,-0.9170492887496948,-0.4695914387702942
1683134463386473700,9.5354736328125,9.649057388305664,-0.865005373954773,-0.5940182209014893
1683134463404313000,9.55331298828125,9.69212818145752,-0.7734799385070801,-0.584446907043457
1683134463422153000,9.571153076171875,9.58205795288086,-0.9942178130149841,-0.537188708782196
1683134463439997200,9.5889970703125,9.759127616882324,-0.706480860710144,-0.6508477330207825
1683134463457821000,9.606821044921874,9.724431037902832,-1.079761266708374,-0.4408775866031647
1683134463475672000,9.624672119140625,9.707083702087402,-0.6346961855888367,-0.784247636795044
1683134463493511700,9.64251171875,9.7669038772583,-1.103689432144165,-0.3643072545528412
1683134463511351300,9.660351318359375,9.787840843200684,-0.706480860710144,-0.7076773047447205
1683134463529177900,9.678177734375,9.890732765197754,-1.031306505203247,-0.3164508044719696
1683134463547033000,9.696033203125,9.5264253616333,-0.7166503667831421,-0.7758727669715881
1683134463564870100,9.7138701171875,9.795618057250977,-0.9936196208000183,-0.34995031356811523
1683134463582706000,9.731705810546876,9.758528709411621,-0.8691928386688232,-0.6598208546638489
1683134463600538400,9.749538330078124,9.681958198547363,-0.9409775137901306,-0.4414757788181305
1683134463618389200,9.76738916015625,9.644271850585938,-0.9032905697822571,-0.6939185857772827
1683134463636228600,9.785228515625,9.710672378540039,-0.8213363885879517,-0.5700899958610535
1683134463654063600,9.803063720703125,9.710672378540039,-0.9367900490760803,-0.5790630578994751
1683134463671908400,9.820908447265625,9.725627899169922,-0.768694281578064,-0.6269195079803467
1683134463689747500,9.83874755859375,9.634101867675781,-1.0516455173492432,-0.49351966381073
1683134463707587000,9.856587158203125,9.707083702087402,-0.6442674994468689,-0.7369893789291382
1683134463725427000,9.874427001953125,9.828518867492676,-1.1515458822250366,-0.3451646566390991
1683134463743267600,9.892267578125,9.683155059814453,-0.6538388133049011,-0.727418065071106
1683134463761105700,9.910105712890624,9.742975234985352,-1.0510473251342773,-0.3314059376716614
1683134463778945000,9.927945068359374,9.735796928405762,-0.6448656916618347,-0.7938188910484314
1683134463796786400,9.945786376953125,10.009177207946777,-1.0456634759902954,-0.2727817893028259
1683134463814625300,9.963625244140625,9.644869804382324,-0.7884350419044495,-0.7465606927871704
1683134463832464400,9.98146435546875,9.748359680175781,-0.9361918568611145,-0.4265206456184387
1683134463850301700,9.9993017578125,9.720842361450195,-0.9415757060050964,-0.7028916478157043
1683134463868147200,10.017147216796875,9.781859397888184,-0.9314061999320984,-0.4695914387702942
1683134463885983700,10.034983642578124,9.634700775146484,-0.8937192559242249,-0.6083751320838928
1683134463903818200,10.052818359375,9.658628463745117,-0.7639086246490479,-0.617946445941925
1683134463921662700,10.070662841796874,9.596415519714355,-0.9463613629341125,-0.5132604837417603
1683134463939490600,10.088490478515626,9.783055305480957,-0.706480860710144,-0.6460621356964111
1683134463957331200,10.106331298828126,9.743574142456055,-1.0845468044281006,-0.4408775866031647
1683134463975177000,10.124177001953125,9.707083702087402,-0.6448656916618347,-0.8033902049064636
1683134463993021700,10.142021728515624,9.795019149780273,-1.1324033737182617,-0.35473597049713135
1683134464010861300,10.159861328125,9.783055305480957,-0.7256234884262085,-0.7172485589981079
1683134464028699600,10.17769970703125,9.852447509765625,-1.0606186389923096,-0.3355933725833893
1683134464046541300,10.195541259765625,9.5264253616333,-0.6687939167022705,-0.7758727669715881
1683134464064385500,10.213385498046875,9.814760208129883,-0.9744769930839539,-0.37866419553756714
1683134464082219800,10.2312197265625,9.725627899169922,-0.8793623447418213,-0.6604190468788147
1683134464100059400,10.249059326171874,9.64367389678955,-0.8979067206382751,-0.46061834692955017
1683134464117898200,10.266898193359374,9.66819953918457,-0.9176474809646606,-0.6652047038078308
1683134464135738600,10.284738525390624,9.744172096252441,-0.8404789566993713,-0.5599204897880554
1683134464153579000,10.3025791015625,9.701101303100586,-0.9272187948226929,-0.5934200286865234
1683134464171417300,10.320417236328124,9.668798446655273,-0.7208378314971924,-0.6562315821647644
1683134464189257000,10.338257080078124,9.619745254516602,-1.01814603805542,-0.4893322288990021
1683134464207096800,10.356096923828124,9.726225852966309,-0.6442674994468689,-0.7322037220001221
1683134464224928000,10.373927978515624,9.804591178894043,-1.1515458822250366,-0.32123643159866333
1683134464242776600,10.391776611328124,9.650253295898438,-0.6496513485908508,-0.7561319470405579
1683134464260615400,10.409615478515626,9.714262008666992,-1.0701899528503418,-0.34576287865638733
1683134464278455600,10.42745556640625,9.750154495239258,-0.6346961855888367,-0.7698906660079956
1683134464296290600,10.44529052734375,10.009177207946777,-1.0648061037063599,-0.2727817893028259
1683134464314134800,10.463134765625,9.621540069580078,-0.7645068168640137,-0.7561319470405579
1683134464331973600,10.4809736328125,9.772287368774414,-0.9026923179626465,-0.43609192967414856
1683134464349813000,10.49881298828125,9.729815483093262,-0.9655039310455322,-0.6789634227752686
1683134464367652900,10.51665283203125,9.757930755615234,-0.9218349456787109,-0.48394837975502014
1683134464385481500,10.5344814453125,9.625128746032715,-0.9367900490760803,-0.6514459848403931
1683134464403332400,10.552332275390626,9.630513191223145,-0.7836494445800781,-0.6275177597999573
1683134464421153800,10.57015380859375,9.634700775146484,-0.9272187948226929,-0.5318048596382141
1683134464439017700,10.588017822265625,9.77826976776123,-0.7112665176391602,-0.6364908218383789
1683134464456837400,10.60583740234375,9.743574142456055,-1.0414760112762451,-0.43609192967414856
1683134464474691000,10.623691162109376,9.70229721069336,-0.625723123550415,-0.7938188910484314
1683134464492530700,10.64153076171875,9.852447509765625,-1.1850453615188599,-0.35413774847984314
1683134464510370600,10.65937060546875,9.77826976776123,-0.735194742679596,-0.7268198728561401
1683134464528201500,10.677201416015626,9.814162254333496,-1.079761266708374,-0.3451646566390991
1683134464546042000,10.6950419921875,9.55513858795166,-0.6496513485908508,-0.7854440212249756
1683134464563890200,10.71289013671875,9.852447509765625,-0.9840483069419861,-0.373878538608551
1683134464581728800,10.730728759765626,9.720842361450195,-0.8745766878128052,-0.6652047038078308
1683134464599568400,10.748568359375,9.677172660827637,-0.8691928386688232,-0.48454657196998596
1683134464617408800,10.76640869140625,9.672985076904297,-0.9702895879745483,-0.6843472719192505
1683134464635247900,10.784247802734376,9.758528709411621,-0.8452646136283875,-0.5742774605751038
1683134464653089000,10.802089111328126,9.705886840820312,-0.9655039310455322,-0.6029912829399109
1683134464670925000,10.819925048828125,9.664012908935547,-0.7160521745681763,-0.6418746709823608
1683134464688768000,10.83776806640625,9.610174179077148,-0.9846464991569519,-0.4989035129547119
1683134464706606300,10.8556064453125,9.745368003845215,-0.6681957244873047,-0.7507480978965759
1683134464724446000,10.873446044921875,9.833304405212402,-1.103689432144165,-0.3116651475429535
1683134464742286000,10.8912861328125,9.611968994140625,-0.6640082597732544,-0.7800601720809937
1683134464760125000,10.909125,9.719047546386719,-1.074975609779358,-0.3361915946006775
1683134464777964800,10.92696484375,9.768698692321777,-0.649053156375885,-0.7603194117546082
1683134464795805000,10.944804931640626,9.92841911315918,-1.0648061037063599,-0.30628129839897156
1683134464813644800,10.962644775390626,9.588040351867676,-0.7740781307220459,-0.7704889178276062
1683134464831483600,10.980483642578125,9.809974670410156,-0.9170492887496948,-0.4456632137298584
1683134464849323300,10.9983232421875,9.739386558532715,-0.9798609018325806,-0.6364908218383789
1683134464867166200,11.016166259765624,9.725028991699219,-0.9074779748916626,-0.5078766345977783
1683134464885003000,11.0340029296875,9.601799011230469,-0.9559326171875,-0.6562315821647644
1683134464902836200,11.051836181640626,9.635298728942871,-0.7597211599349976,-0.6323033571243286
1683134464920682200,11.06968212890625,9.691530227661133,-0.9361918568611145,-0.5222335457801819
1683134464938527000,11.08752685546875,9.787242889404297,-0.7160521745681763,-0.6317051649093628
1683134464956358700,11.105358642578125,9.724431037902832,-1.0414760112762451,-0.4265206456184387
1683134464974200800,11.123200927734375,9.693324089050293,-0.625723123550415,-0.8039883971214294
1683134464992039000,11.141038818359375,9.880562782287598,-1.1754741668701172,-0.3397808074951172
1683134465009881000,11.158881103515625,9.730413436889648,-0.7214360237121582,-0.7322037220001221
1683134465027719700,11.1767197265625,9.804591178894043,-1.0941181182861328,-0.3355933725833893
1683134465045559600,11.1945595703125,9.602396965026855,-0.6592226624488831,-0.794417142868042
1683134465063396400,11.212396240234375,9.900303840637207,-0.9936196208000183,-0.35892340540885925
1683134465081241000,11.230240966796876,9.711270332336426,-0.865005373954773,-0.6652047038078308
1683134465099079000,11.248078857421875,9.705886840820312,-0.8165507316589355,-0.4983053207397461
1683134465116917800,11.265917724609375,9.66819953918457,-1.0037890672683716,-0.6891329288482666
1683134465134757400,11.28375732421875,9.763314247131348,-0.8787640929222107,-0.5742774605751038
1683134465152596700,11.3015966796875,9.701101303100586,-1.0133603811264038,-0.6173482537269592
1683134465170436900,11.319436767578125,9.659226417541504,-0.7160521745681763,-0.6610172390937805
1683134465188275200,11.337275146484375,9.638887405395508,-0.989432156085968,-0.4893322288990021
1683134465206116900,11.355116943359375,9.787840843200684,-0.6681957244873047,-0.7411768436431885
1683134465223955500,11.37295556640625,9.862018585205078,-1.0654042959213257,-0.3068794906139374
1683134465241783600,11.390783447265624,9.597611427307129,-0.6783652305603027,-0.7896314859390259
1683134465259634400,11.408634521484375,9.762118339538574,-1.103689432144165,-0.34995031356811523
1683134465277474600,11.426474609375,9.754940032958984,-0.6825526356697083,-0.7651050686836243
1683134465295314000,11.44431396484375,9.862018585205078,-1.0654042959213257,-0.3164508044719696
1683134465313160200,11.46216015625,9.597611427307129,-0.7549355626106262,-0.760917603969574
1683134465330993000,11.479992919921875,9.843474388122559,-0.9074779748916626,-0.4546363055706024
1683134465348832800,11.497832763671875,9.744172096252441,-0.9415757060050964,-0.6173482537269592
1683134465366672400,11.51567236328125,9.686744689941406,-0.8500502705574036,-0.5222335457801819
1683134465384500700,11.533500732421874,9.605986595153809,-0.9846464991569519,-0.6370890140533447
1683134465402351600,11.5513515625,9.672985076904297,-0.7447660565376282,-0.6418746709823608
1683134465420177700,11.569177734375,9.705886840820312,-0.9601200819015503,-0.5318048596382141
1683134465438030800,11.58703076171875,9.744770050048828,-0.6921239495277405,-0.6460621356964111
1683134465455856000,11.604856201171875,9.681360244750977,-1.0031908750534058,-0.4127618968486786
1683134465473710000,11.6227099609375,9.70229721069336,-0.6305087804794312,-0.7986045479774475
1683134465491550000,11.640550048828125,9.894919395446777,-1.1324033737182617,-0.2919243574142456
1683134465509389800,11.658389892578125,9.692726135253906,-0.711864709854126,-0.7465606927871704
1683134465527229200,11.676229248046875,9.771689414978027,-1.0941181182861328,-0.3451646566390991
1683134465545068300,11.694068359375,9.650253295898438,-0.6879364848136902,-0.794417142868042
1683134465562905300,11.7119052734375,9.919445991516113,-0.9984052777290344,-0.38763725757598877
1683134465580748000,11.729748046875,9.687342643737793,-0.8267202377319336,-0.6604190468788147
1683134465598589000,11.7475888671875,9.725028991699219,-0.7878368496894836,-0.527019202709198
1683134465616426000,11.765426025390624,9.649057388305664,-1.022931694984436,-0.6699903607368469
1683134465634262300,11.78326220703125,9.725028991699219,-0.859621524810791,-0.5790630578994751
1683134465652104400,11.8011044921875,9.662816047668457,-1.0564311742782593,-0.6029912829399109
1683134465669951000,11.818950927734376,9.683155059814453,-0.706480860710144,-0.6610172390937805
1683134465687785200,11.83678515625,9.667601585388184,-1.0085747241973877,-0.48873403668403625
1683134465705625000,11.854625,9.81655502319336,-0.6921239495277405,-0.7363911867141724
1683134465723464400,11.87246435546875,9.890732765197754,-1.0462616682052612,-0.3116651475429535
1683134465741304600,11.8903046875,9.626325607299805,-0.6640082597732544,-0.8183453679084778
1683134465759146000,11.90814599609375,9.82373332977295,-1.1180464029312134,-0.3643072545528412
1683134465776984800,11.92598486328125,9.745368003845215,-0.7070791125297546,-0.755533754825592
1683134465794823700,11.94382373046875,9.814162254333496,-1.0701899528503418,-0.3451646566390991
1683134465812666600,11.96166650390625,9.573683738708496,-0.7310073375701904,-0.737587571144104
1683134465830509000,11.979509033203126,9.820143699645996,-0.9170492887496948,-0.4833501875400543
1683134465848331800,11.997331787109376,9.729815483093262,-0.9463613629341125,-0.6125625967979431
1683134465866183000,12.015182861328125,9.682557106018066,-0.8309076428413391,-0.5509474277496338
1683134465884012500,12.033012451171874,9.625128746032715,-1.042074203491211,-0.6364908218383789
1683134465901864000,12.050864013671875,9.683155059814453,-0.7304090857505798,-0.6652047038078308
1683134465919700200,12.0687001953125,9.715457916259766,-0.9936196208000183,-0.5222335457801819
1683134465937540000,12.0865400390625,9.720842361450195,-0.6729813814163208,-0.6460621356964111
1683134465955375400,12.104375244140625,9.681360244750977,-0.97926265001297,-0.3888336718082428
1683134465973219000,12.122218994140624,9.688538551330566,-0.6161518096923828,-0.8177471160888672
1683134465991059200,12.14005908203125,9.875777244567871,-1.0839486122131348,-0.24466611444950104
1683134466008897500,12.1578974609375,9.668798446655273,-0.7022934556007385,-0.7513462901115417
1683134466026739500,12.175739501953124,9.762118339538574,-1.079761266708374,-0.3690928816795349
1683134466044577500,12.19357763671875,9.664610862731934,-0.7070791125297546,-0.7992027401924133
1683134466062417700,12.211417724609374,9.905089378356934,-1.0079765319824219,-0.41156548261642456
1683134466080256000,12.229256103515626,9.682557106018066,-0.836291491985321,-0.6556333899497986
1683134466098098400,12.247098388671875,9.720243453979492,-0.7878368496894836,-0.5413761138916016
1683134466115934000,12.264933837890625,9.66819953918457,-1.0133603811264038,-0.6460621356964111
1683134466133778000,12.28277783203125,9.696913719177246,-0.7878368496894836,-0.5892325639724731
1683134466151612400,12.3006123046875,9.619745254516602,-1.0516455173492432,-0.5509474277496338
1683134466169458700,12.318458740234375,9.673583984375,-0.6729813814163208,-0.7082754969596863
1683134466187294200,12.336294189453126,9.714859962463379,-1.0223335027694702,-0.4695914387702942
1683134466205134000,12.354134033203126,9.844670295715332,-0.6969096064567566,-0.7357929348945618
1683134466222973700,12.3719736328125,9.876375198364258,-1.0265209674835205,-0.29730820655822754
1683134466240813800,12.389813720703126,9.631111145019531,-0.711864709854126,-0.8231309652328491
1683134466258652700,12.407652587890626,9.852447509765625,-1.1132607460021973,-0.35892340540885925
1683134466276488200,12.42548828125,9.739984512329102,-0.7357929348945618,-0.7411768436431885
1683134466294332400,12.44333251953125,9.776474952697754,-1.0606186389923096,-0.3595215976238251
1683134466312172500,12.461172607421876,9.578469276428223,-0.7310073375701904,-0.7328019142150879
1683134466330010000,12.479010009765625,9.81535816192627,-0.9409775137901306,-0.49292147159576416
1683134466347840800,12.4968408203125,9.725028991699219,-0.9367900490760803,-0.6173482537269592
1683134466365691000,12.51469091796875,9.682557106018066,-0.7926225066184998,-0.5892325639724731
1683134466383524900,12.53252490234375,9.648459434509277,-1.0755738019943237,-0.607776939868927
1683134466401368600,12.55036865234375,9.697511672973633,-0.7256234884262085,-0.6939185857772827
1683134466419202000,12.5682021484375,9.748359680175781,-1.0606186389923096,-0.4977070987224579
1683134466437049300,12.58604931640625,9.749555587768555,-0.6825526356697083,-0.6508477330207825
1683134466454887200,12.60388720703125,9.7005033493042,-0.9696913957595825,-0.37926238775253296
1683134466472729300,12.621729248046876,9.698110580444336,-0.5970092415809631,-0.8087740540504456
1683134466490568200,12.639568115234376,9.885348320007324,-1.0169496536254883,-0.22073788940906525
1683134466508407600,12.657407470703125,9.659226417541504,-0.6879364848136902,-0.7657032608985901
1683134466526248000,12.675248046875,9.723833084106445,-1.0701899528503418,-0.3601198196411133
1683134466544086500,12.69308642578125,9.664012908935547,-0.7597211599349976,-0.7896314859390259
1683134466561925400,12.71092529296875,9.857831001281738,-1.0031908750534058,-0.44027936458587646
1683134466579764700,12.7287646484375,9.65384292602539,-0.8315058946609497,-0.6652047038078308
1683134466597609000,12.74660888671875,9.729815483093262,-0.7974081635475159,-0.5653043389320374
1683134466615442700,12.764442626953125,9.681958198547363,-1.0037890672683716,-0.6221339106559753
1683134466633281800,12.78228173828125,9.682557106018066,-0.7447660565376282,-0.584446907043457
1683134466651121700,12.80012158203125,9.601201057434082,-1.0516455173492432,-0.5557330846786499
1683134466668967700,12.8179677734375,9.673583984375,-0.6681957244873047,-0.7034898400306702
1683134466686803000,12.835802978515625,9.710074424743652,-1.0660024881362915,-0.4743770956993103
1683134466704630000,12.853630126953124,9.839884757995605,-0.7160521745681763,-0.7357929348945618
1683134466722482400,12.871482421875,9.881160736083984,-1.0319048166275024,-0.29730820655822754
1683134466740322800,12.88932275390625,9.640682220458984,-0.7214360237121582,-0.8327022790908813
1683134466758162000,12.907161865234375,9.833304405212402,-1.1084750890731812,-0.3403790295124054
1683134466776001800,12.925001708984375,9.744770050048828,-0.7645068168640137,-0.7363911867141724
1683134466793841400,12.94284130859375,9.786046028137207,-1.036690354347229,-0.388235479593277
1683134466811681300,12.960681396484375,9.597611427307129,-0.7549355626106262,-0.7232306599617004
1683134466829520100,12.97852001953125,9.805787086486816,-0.9170492887496948,-0.5024927258491516
1683134466847362000,12.996362060546875,9.69631576538086,-0.9320043921470642,-0.5982056856155396
1683134466865199900,13.014199951171875,9.682557106018066,-0.7830511927604675,-0.6035895347595215
1683134466883038500,13.03203857421875,9.667601585388184,-1.109073281288147,-0.6029912829399109
1683134466900879400,13.04987939453125,9.716055870056152,-0.7160521745681763,-0.7034898400306702
1683134466918719000,13.067718994140625,9.79083251953125,-1.0893324613571167,-0.4737788736820221
1683134466936558000,13.08555810546875,9.754341125488281,-0.6729813814163208,-0.6747759580612183
1683134466954398200,13.103398193359375,9.743574142456055,-0.9984052777290344,-0.3930211067199707
1683134466972236300,13.121236328125,9.716654777526855,-0.6209374666213989,-0.8033902049064636
1683134466990078000,13.139077880859375,9.9140625,-1.0360921621322632,-0.24466611444950104
1683134467007916500,13.15691650390625,9.635896682739258,-0.6975077986717224,-0.7800601720809937
1683134467025756700,13.174756591796875,9.728618621826172,-1.0223335027694702,-0.3601198196411133
1683134467043590700,13.192590576171876,9.711869239807129,-0.8075776696205139,-0.7794619798660278
1683134467061435100,13.21043505859375,9.833903312683105,-0.9936196208000183,-0.40259242057800293
1683134467079271200,13.228271240234376,9.620942115783691,-0.8075776696205139,-0.6610172390937805
1683134467097120300,13.246120361328124,9.729815483093262,-0.7830511927604675,-0.5796613097190857
1683134467114952200,13.2639521484375,9.677172660827637,-0.989432156085968,-0.6029912829399109
1683134467132790000,13.2817900390625,9.696913719177246,-0.7112665176391602,-0.5988038778305054
1683134467150633500,13.299633544921875,9.629316329956055,-1.042074203491211,-0.5365904569625854
1683134467168469800,13.3174697265625,9.664012908935547,-0.6400800347328186,-0.7226324677467346
1683134467186313500,13.3353134765625,9.710074424743652,-1.1186445951461792,-0.48394837975502014
1683134467204153300,13.3531533203125,9.839884757995605,-0.7543373107910156,-0.7076773047447205
1683134467221990100,13.370990234375,9.885947227478027,-1.036690354347229,-0.33080771565437317
1683134467239831600,13.38883154296875,9.626325607299805,-0.7166503667831421,-0.8135597109794617
1683134467257670700,13.406670654296875,9.804591178894043,-1.0558329820632935,-0.32123643159866333
1683134467275510300,13.42451025390625,9.730413436889648,-0.7932206988334656,-0.7411768436431885
1683134467293345500,13.442345458984375,9.7669038772583,-1.036690354347229,-0.40737804770469666
1683134467311190000,13.46018994140625,9.620942115783691,-0.7932206988334656,-0.7465606927871704
1683134467329029000,13.478029052734374,9.781859397888184,-0.9074779748916626,-0.5216353535652161
1683134467346868700,13.49586865234375,9.658628463745117,-0.9032905697822571,-0.5988038778305054
1683134467364703700,13.513703857421875,9.682557106018066,-0.7591229677200317,-0.6131607890129089
1683134467382548200,13.53154833984375,9.653244972229004,-1.109073281288147,-0.5982056856155396
1683134467400387600,13.5493876953125,9.707083702087402,-0.7022934556007385,-0.7034898400306702
1683134467418226200,13.56722607421875,9.833903312683105,-1.1276177167892456,-0.4450650215148926
1683134467436067600,13.585067626953125,9.731011390686035,-0.6634100675582886,-0.7082754969596863
1683134467453907000,13.602906982421874,9.771689414978027,-1.036690354347229,-0.4169493317604065
1683134467471746000,13.62074609375,9.726225852966309,-0.6113662123680115,-0.7938188910484314
1683134467489584600,13.638584716796874,9.952347755432129,-1.0121639966964722,-0.24466611444950104
1683134467507426000,13.656426025390624,9.616754531860352,-0.7166503667831421,-0.794417142868042
1683134467525265000,13.674264892578124,9.78126049041748,-0.9936196208000183,-0.35473597049713135
1683134467543104300,13.692104248046874,9.76391315460205,-0.8458628058433533,-0.7459624409675598
1683134467560943600,13.709943603515624,9.824331283569336,-0.9936196208000183,-0.3930211067199707
1683134467578780200,13.7277802734375,9.582656860351562,-0.8075776696205139,-0.6849454641342163
1683134467596609800,13.74560986328125,9.744172096252441,-0.7782655358314514,-0.5742774605751038
1683134467614455800,13.763455810546875,9.67238712310791,-0.9607182741165161,-0.5940182209014893
1683134467632304600,13.7813046875,9.716055870056152,-0.706480860710144,-0.6227321028709412
1683134467650142000,13.799141845703126,9.653244972229004,-1.0564311742782593,-0.5174478888511658
1683134467667970000,13.816969970703125,9.68794059753418,-0.6059823632240295,-0.7465606927871704
1683134467685815800,13.83481591796875,9.719645500183105,-1.1377872228622437,-0.4504488706588745
1683134467703660800,13.852660888671876,9.806983947753906,-0.7256234884262085,-0.7076773047447205
1683134467721500200,13.870500244140626,9.885947227478027,-1.036690354347229,-0.3445664644241333
1683134467739343000,13.888343017578125,9.592825889587402,-0.6687939167022705,-0.8135597109794617
1683134467757168400,13.90616845703125,9.838089942932129,-1.0319048166275024,-0.32123643159866333
1683134467775019300,13.924019287109376,9.749555587768555,-0.7645068168640137,-0.7268198728561401
1683134467792858400,13.9418583984375,9.719645500183105,-1.0079765319824219,-0.41216370463371277
1683134467810697200,13.959697265625,9.654440879821777,-0.8267202377319336,-0.7513462901115417
1683134467828539000,13.977538818359376,9.80100154876709,-0.9122636318206787,-0.5407779216766357
1683134467846377500,13.99537744140625,9.634700775146484,-0.9224331378936768,-0.6083751320838928
1683134467864205300,14.013205322265625,9.663414001464844,-0.7740781307220459,-0.617946445941925
1683134467882056700,14.031056640625,9.648459434509277,-1.085145115852356,-0.5700899958610535
1683134467899893000,14.04889306640625,9.721440315246582,-0.6777670383453369,-0.7082754969596863
1683134467917738800,14.06673876953125,9.814760208129883,-1.1228320598602295,-0.4211367964744568
1683134467935571000,14.084571044921875,9.731011390686035,-0.6634100675582886,-0.7178468108177185
1683134467953415000,14.102414794921875,9.80518913269043,-1.079761266708374,-0.4450650215148926
1683134467971254500,14.120254638671875,9.740582466125488,-0.6352944374084473,-0.7794619798660278
1683134467989094000,14.138093994140625,9.957133293151855,-1.0217353105545044,-0.2727817893028259
1683134468006933800,14.155933837890625,9.607182502746582,-0.7310073375701904,-0.8039883971214294
1683134468024773600,14.173773681640625,9.800403594970703,-1.017547845840454,-0.3690928816795349
1683134468042612200,14.1916123046875,9.81117057800293,-0.8602197170257568,-0.6789634227752686
1683134468060451000,14.209451171875,9.795618057250977,-0.9601200819015503,-0.4265206456184387
1683134468078292500,14.22729248046875,9.606584548950195,-0.8027920126914978,-0.6993024349212646
1683134468096132900,14.2451328125,9.739386558532715,-0.7926225066184998,-0.5700899958610535
1683134468113959200,14.262959228515625,9.686744689941406,-0.9367900490760803,-0.5700899958610535
1683134468131809500,14.2808095703125,9.801599502563477,-0.7208378314971924,-0.6364908218383789
1683134468149651700,14.298651611328125,9.695717811584473,-1.085145115852356,-0.49351966381073
1683134468167490300,14.316490234375,9.707083702087402,-0.5916253924369812,-0.7561319470405579
1683134468185329000,14.334328857421875,9.747760772705078,-1.1228320598602295,-0.41216370463371277
1683134468203169000,14.3521689453125,9.773484230041504,-0.6969096064567566,-0.7028916478157043
1683134468221009700,14.370009765625,9.881160736083984,-1.0701899528503418,-0.363709032535553
1683134468238847200,14.38784716796875,9.621540069580078,-0.6687939167022705,-0.8087740540504456
1683134468256682800,14.405682861328126,9.881160736083984,-1.0271191596984863,-0.32123643159866333
1683134468274527500,14.423527587890625,9.739984512329102,-0.7932206988334656,-0.7172485589981079
1683134468292367000,14.4413671875,9.67657470703125,-0.9744769930839539,-0.4223332107067108
1683134468310207000,14.45920703125,9.696913719177246,-0.8458628058433533,-0.7459624409675598
1683134468328045800,14.4770458984375,9.772287368774414,-0.8787640929222107,-0.5359922647476196
1683134468345885700,14.4948857421875,9.629914283752441,-0.9080761671066284,-0.5988038778305054
1683134468363727400,14.512727294921875,9.65384292602539,-0.778863787651062,-0.6227321028709412
1683134468381562000,14.53056201171875,9.610772132873535,-1.0516455173492432,-0.5557330846786499
1683134468399405000,14.548405029296875,9.768698692321777,-0.6969096064567566,-0.7028916478157043
1683134468417244200,14.566244140625,9.747760772705078,-1.1084750890731812,-0.4169493317604065
1683134468435083800,14.584083740234375,9.697511672973633,-0.6592226624488831,-0.7465606927871704
1683134468452918800,14.601918701171876,9.762118339538574,-1.079761266708374,-0.43130627274513245
1683134468470762200,14.61976220703125,9.77826976776123,-0.6442674994468689,-0.7698906660079956
1683134468488593200,14.63759326171875,9.942776679992676,-1.031306505203247,-0.27756741642951965
1683134468506441700,14.655441650390625,9.578469276428223,-0.7166503667831421,-0.794417142868042
1683134468524281900,14.67328173828125,9.809974670410156,-0.9936196208000183,-0.3930211067199707
1683134468542120700,14.69112060546875,9.806385040283203,-0.8691928386688232,-0.6550351977348328
1683134468559960600,14.708960693359375,9.757930755615234,-0.9601200819015503,-0.4408775866031647
1683134468577800400,14.726800537109375,9.606584548950195,-0.8267202377319336,-0.7184450030326843
1683134468595640600,14.744640625,9.711270332336426,-0.7974081635475159,-0.5700899958610535
1683134468613478400,14.762478515625,9.720243453979492,-0.8937192559242249,-0.5742774605751038
1683134468631307000,14.78030712890625,9.801599502563477,-0.7208378314971924,-0.6317051649093628
1683134468649158400,14.798158447265624,9.695717811584473,-1.0612168312072754,-0.49351966381073
1683134468666990300,14.815990234375,9.70229721069336,-0.625723123550415,-0.7561319470405579
1683134468684825600,14.83382568359375,9.809974670410156,-1.1276177167892456,-0.40677985548973083
1683134468702673400,14.85167333984375,9.759127616882324,-0.6681957244873047,-0.722034215927124
1683134468720516600,14.8695166015625,9.842875480651855,-1.0558329820632935,-0.34995031356811523
1683134468738355500,14.88735546875,9.697511672973633,-0.6400800347328186,-0.7848458290100098
1683134468756196600,14.905196533203124,9.947562217712402,-1.007378339767456,-0.2967100143432617
1683134468774023700,14.923023681640625,9.711869239807129,-0.7740781307220459,-0.7369893789291382
1683134468791875000,14.940875,9.719645500183105,-0.9457631707191467,-0.4408775866031647
1683134468809715200,14.958715087890624,9.720842361450195,-0.8841479420661926,-0.7411768436431885
1683134468827553500,14.976553466796876,9.781859397888184,-0.8883354067802429,-0.5072783827781677
1683134468845394000,14.994393798828124,9.634700775146484,-0.8793623447418213,-0.617946445941925
1683134468863233300,15.0122333984375,9.644869804382324,-0.7597211599349976,-0.6275177597999573
1683134468881073400,15.030073486328124,9.58205795288086,-0.9798609018325806,-0.5515456199645996
1683134468898912300,15.047912353515626,9.739984512329102,-0.7112665176391602,-0.6843472719192505
1683134468916752100,15.065752197265626,9.714859962463379,-1.089930772781372,-0.43130627274513245
1683134468934591700,15.083591796875,9.711869239807129,-0.6496513485908508,-0.7890332937240601
1683134468952431400,15.101431396484376,9.762118339538574,-1.1084750890731812,-0.40737804770469666
1683134468970270700,15.119270751953126,9.797411918640137,-0.6873382925987244,-0.7459624409675598
1683134468988098300,15.137098388671875,9.90987491607666,-1.0271191596984863,-0.32542386651039124
1683134469005949700,15.15494970703125,9.54078197479248,-0.6975077986717224,-0.8093722462654114
1683134469023784700,15.17278466796875,9.786046028137207,-0.9696913957595825,-0.37866419553756714
1683134469041628700,15.190628662109376,9.79681396484375,-0.8697910308837891,-0.664606511592865
1683134469059468300,15.20846826171875,9.710074424743652,-0.9266205430030823,-0.45523449778556824
1683134469077308000,15.226307861328126,9.644869804382324,-0.836291491985321,-0.7130611538887024
1683134469095143400,15.244143310546875,9.711270332336426,-0.7926225066184998,-0.5653043389320374
1683134469112987000,15.26198681640625,9.734601020812988,-0.8793623447418213,-0.5790630578994751
1683134469130825000,15.279824951171875,9.735198974609375,-0.7160521745681763,-0.6364908218383789
1683134469148665000,15.2976650390625,9.648459434509277,-1.0564311742782593,-0.5078766345977783
1683134469166507300,15.31550732421875,9.70229721069336,-0.6400800347328186,-0.760917603969574
1683134469184333800,15.333333740234375,9.828518867492676,-1.170688509941101,-0.4019941985607147
1683134469202185000,15.35118505859375,9.707083702087402,-0.6496513485908508,-0.727418065071106
1683134469220022800,15.369022705078125,9.776474952697754,-1.012762188911438,-0.3409772217273712
1683134469237865700,15.38686572265625,9.731011390686035,-0.6017948985099792,-0.8273184299468994
1683134469255698400,15.404698486328124,10.009177207946777,-1.0265209674835205,-0.2679961323738098
1683134469273543200,15.422543212890625,9.640084266662598,-0.7501499056816101,-0.7657032608985901
1683134469291382500,15.440382568359375,9.77707290649414,-0.9457631707191467,-0.4217349886894226
1683134469309222000,15.458221923828125,9.730413436889648,-0.9080761671066284,-0.7507480978965759
1683134469327062300,15.476062255859375,9.77707290649414,-0.9361918568611145,-0.47916272282600403
1683134469344896800,15.493896728515624,9.620942115783691,-0.8745766878128052,-0.646660327911377
1683134469362737200,15.511737060546874,9.687342643737793,-0.745364248752594,-0.6323033571243286
1683134469380580900,15.529580810546875,9.605986595153809,-0.9559326171875,-0.5700899958610535
1683134469398419700,15.547419677734375,9.759127616882324,-0.6969096064567566,-0.6604190468788147
1683134469416255700,15.565255859375,9.724431037902832,-1.0660024881362915,-0.48394837975502014
1683134469434095600,15.583095703125,9.697511672973633,-0.6305087804794312,-0.794417142868042
1683134469451940000,15.600940185546875,9.78126049041748,-1.1132607460021973,-0.38344982266426086
1683134469469779000,15.618779052734375,9.783055305480957,-0.706480860710144,-0.722034215927124
1683134469487618800,15.636618896484375,9.857233047485352,-1.036690354347229,-0.34995031356811523
1683134469505457400,15.65445751953125,9.531210899353027,-0.6448656916618347,-0.7998009920120239
1683134469523297000,15.672297119140625,9.838688850402832,-0.9744769930839539,-0.37866419553756714
1683134469541136100,15.69013623046875,9.76391315460205,-0.8602197170257568,-0.7076773047447205
1683134469558976000,15.70797607421875,9.65803050994873,-0.9170492887496948,-0.46061834692955017
1683134469576815900,15.72581591796875,9.69212818145752,-0.9032905697822571,-0.7316055297851562
1683134469594655200,15.7436552734375,9.768099784851074,-0.8787640929222107,-0.5694918036460876
1683134469612494800,15.761494873046875,9.672985076904297,-0.9320043921470642,-0.6221339106559753
1683134469630334000,15.779333984375,9.64965534210205,-0.7357929348945618,-0.6418746709823608
1683134469648160000,15.797159912109375,9.601201057434082,-1.022931694984436,-0.5324030518531799
1683134469666009000,15.815009033203125,9.726225852966309,-0.6544370055198669,-0.7513462901115417
1683134469683836700,15.832836669921875,9.78126049041748,-1.1419745683670044,-0.38344982266426086
1683134469701686000,15.85068603515625,9.664610862731934,-0.6640082597732544,-0.7704889178276062
1683134469719522300,15.868522216796874,9.757332801818848,-1.0845468044281006,-0.38344982266426086
1683134469737372200,15.8863720703125,9.764511108398438,-0.6352944374084473,-0.8033902049064636
1683134469755200500,15.904200439453126,10.00439167022705,-1.0552347898483276,-0.2871387302875519
1683134469773050600,15.922050537109374,9.621540069580078,-0.7166503667831421,-0.7992027401924133
1683134469790888700,15.939888671875,9.80518913269043,-0.9314061999320984,-0.41216370463371277
1683134469808731400,15.9577314453125,9.768099784851074,-0.9080761671066284,-0.7028916478157043
1683134469826566100,15.975566162109375,9.762716293334961,-0.9314061999320984,-0.4695914387702942
1683134469844411600,15.99341162109375,9.606584548950195,-0.8697910308837891,-0.7136593461036682
1683134469862248000,16.011248046875,9.682557106018066,-0.778863787651062,-0.6083751320838928
1683134469880088600,16.029088623046874,9.705886840820312,-0.9320043921470642,-0.5748756527900696
1683134469897913300,16.046913330078127,9.81117057800293,-0.7256234884262085,-0.6550351977348328
1683134469915769900,16.064769775390626,9.719645500183105,-1.0707881450653076,-0.48394837975502014
1683134469933605600,16.082605712890626,9.698110580444336,-0.5970092415809631,-0.794417142868042
1683134469951447600,16.100447509765626,9.828518867492676,-1.165902853012085,-0.3924229145050049
1683134469969285400,16.118285400390626,9.76391315460205,-0.7166503667831421,-0.7411768436431885
1683134469987125500,16.13612548828125,9.828518867492676,-1.079761266708374,-0.35473597049713135
1683134470004964600,16.153964599609374,9.598209381103516,-0.6305087804794312,-0.8183453679084778
1683134470022801000,16.17180078125,9.90987491607666,-1.017547845840454,-0.33499518036842346
1683134470040643300,16.189643310546874,9.7064847946167,-0.8075776696205139,-0.7417750358581543
1683134470058483200,16.207483154296874,9.701101303100586,-0.9074779748916626,-0.45583271980285645
1683134470076322600,16.225322509765626,9.730413436889648,-0.9272187948226929,-0.7268198728561401
1683134470094162700,16.24316259765625,9.791430473327637,-0.8787640929222107,-0.5551348328590393
1683134470112000500,16.26100048828125,9.672985076904297,-0.9367900490760803,-0.6460621356964111
1683134470129842700,16.2788427734375,9.635298728942871,-0.7357929348945618,-0.646660327911377
1683134470147680800,16.2966806640625,9.572486877441406,-0.9990034699440002,-0.5324030518531799
1683134470165521000,16.31452099609375,9.773484230041504,-0.6921239495277405,-0.722034215927124
1683134470183341300,16.33234130859375,9.752547264099121,-1.079761266708374,-0.3643072545528412
1683134470201188000,16.35018798828125,9.674181938171387,-0.6448656916618347,-0.7896314859390259
1683134470219025700,16.368025634765626,9.752547264099121,-1.1132607460021973,-0.40737804770469666
1683134470236879000,16.385879150390625,9.79262638092041,-0.6783652305603027,-0.7603194117546082
1683134470254718000,16.403718017578125,9.947562217712402,-1.0271191596984863,-0.3445664644241333
1683134470272558000,16.42155810546875,9.573683738708496,-0.7214360237121582,-0.7854440212249756
1683134470290397400,16.4393974609375,9.800403594970703,-0.9553344249725342,-0.40737804770469666
1683134470308236000,16.457236083984377,9.777671813964844,-0.8937192559242249,-0.6317051649093628
1683134470326077000,16.475076904296873,9.705886840820312,-0.893121063709259,-0.48873403668403625
1683134470343916300,16.492916259765625,9.620942115783691,-0.8745766878128052,-0.698704183101654
1683134470361755400,16.51075537109375,9.69212818145752,-0.7495517134666443,-0.584446907043457
1683134470379595300,16.52859521484375,9.763314247131348,-0.898504912853241,-0.5790630578994751
1683134470397433900,16.546433837890625,9.801599502563477,-0.7304090857505798,-0.6550351977348328
1683134470415275000,16.56427490234375,9.662816047668457,-1.0325030088424683,-0.4701896607875824
1683134470433109000,16.58210888671875,9.716654777526855,-0.6305087804794312,-0.7657032608985901
1683134470450950700,16.59995068359375,9.847661972045898,-1.170688509941101,-0.38763725757598877
1683134470468795000,16.617794921875,9.721440315246582,-0.6448656916618347,-0.7465606927871704
1683134470486632000,16.6356318359375,9.752547264099121,-1.0414760112762451,-0.3409772217273712
1683134470504473000,16.65347314453125,9.711869239807129,-0.6352944374084473,-0.8033902049064636
1683134470522310100,16.67131005859375,9.981060981750488,-1.0360921621322632,-0.30628129839897156
1683134470540150300,16.689150390625,9.678369522094727,-0.778863787651062,-0.7369893789291382
1683134470557990100,16.706990234375,9.753145217895508,-0.8883354067802429,-0.46002015471458435
1683134470575830000,16.724830078125,9.763314247131348,-0.9224331378936768,-0.7268198728561401
1683134470593669400,16.74266943359375,9.796216011047363,-0.859621524810791,-0.5264210104942322
1683134470611508500,16.760508544921876,9.658628463745117,-0.9032905697822571,-0.6370890140533447
1683134470629348600,16.7783486328125,9.659226417541504,-0.7262216806411743,-0.6323033571243286
1683134470647188200,16.796188232421876,9.586843490600586,-0.9320043921470642,-0.5419743061065674
1683134470665027800,16.81402783203125,9.744770050048828,-0.6975077986717224,-0.6843472719192505
1683134470682857000,16.83185693359375,9.738788604736328,-1.042074203491211,-0.45523449778556824
1683134470700706800,16.849706787109376,9.698110580444336,-0.6400800347328186,-0.8129615187644958
1683134470718546000,16.8675458984375,9.814162254333496,-1.103689432144165,-0.3643072545528412
1683134470736385800,16.8853857421875,9.787840843200684,-0.6634100675582886,-0.7268198728561401
1683134470754219800,16.9032197265625,9.881160736083984,-1.0319048166275024,-0.349352091550827
1683134470772064800,16.921064697265624,9.54078197479248,-0.6640082597732544,-0.7950153350830078
1683134470789904100,16.938904052734376,9.829116821289062,-0.9601200819015503,-0.40259242057800293
1683134470807744000,16.956743896484376,9.744770050048828,-0.8458628058433533,-0.6843472719192505
1683134470825582800,16.974582763671876,9.634101867675781,-0.8841479420661926,-0.4749752879142761
1683134470843422700,16.992422607421876,9.67777156829834,-0.9032905697822571,-0.7178468108177185
1683134470861262300,17.010262451171876,9.744172096252441,-0.802193820476532,-0.5982056856155396
1683134470879100700,17.0281005859375,9.725028991699219,-0.9415757060050964,-0.607776939868927
1683134470896942000,17.045942138671876,9.668798446655273,-0.7022934556007385,-0.6849454641342163
1683134470914765800,17.063765869140624,9.619745254516602,-0.9846464991569519,-0.503689169883728
1683134470932623400,17.081623291015624,9.740582466125488,-0.6496513485908508,-0.755533754825592
1683134470950461700,17.099461669921876,9.80937671661377,-1.1419745683670044,-0.3643072545528412
1683134470968294700,17.117294677734375,9.650253295898438,-0.6400800347328186,-0.7657032608985901
1683134470986139400,17.135139404296876,9.752547264099121,-1.074975609779358,-0.3690928816795349
1683134471003974000,17.152973876953126,9.769296646118164,-0.6448656916618347,-0.784247636795044
1683134471021822200,17.170822265625,10.01874828338623,-1.0654042959213257,-0.3152543902397156
1683134471039656700,17.18865673828125,9.626325607299805,-0.7405785918235779,-0.7992027401924133
1683134471057496800,17.206496826171875,9.80100154876709,-0.9074779748916626,-0.4408775866031647
1683134471075331600,17.22433154296875,9.735198974609375,-0.9176474809646606,-0.7124629616737366
1683134471093173800,17.242173828125,9.762716293334961,-0.9074779748916626,-0.49351966381073
1683134471111017700,17.260017822265624,9.611370086669922,-0.898504912853241,-0.6849454641342163
1683134471128853500,17.277853515625,9.66819953918457,-0.7645068168640137,-0.617946445941925
1683134471146695700,17.29569580078125,9.67238712310791,-0.9224331378936768,-0.5557330846786499
1683134471164534300,17.3135341796875,9.801599502563477,-0.706480860710144,-0.6460621356964111
1683134471182373000,17.331373046875,9.729216575622559,-1.0612168312072754,-0.4743770956993103
1683134471200212000,17.3492119140625,9.711869239807129,-0.625723123550415,-0.8081758618354797
1683134471218059300,17.367059326171876,9.828518867492676,-1.1419745683670044,-0.4019941985607147
1683134471235892500,17.384892578125,9.76391315460205,-0.6927221417427063,-0.7459624409675598
1683134471253731300,17.4027314453125,9.80937671661377,-1.074975609779358,-0.35473597049713135
1683134471271571000,17.420571044921875,9.57906723022461,-0.6305087804794312,-0.8189435601234436
1683134471289410800,17.438410888671875,9.90987491607666,-1.012762188911438,-0.349352091550827
1683134471307250700,17.456250732421875,9.725627899169922,-0.8075776696205139,-0.7459624409675598
1683134471325089500,17.474089599609375,9.710672378540039,-0.8835497498512268,-0.4462614357471466
1683134471342929000,17.491928955078127,9.720842361450195,-0.9367900490760803,-0.7363911867141724
1683134471360769800,17.509769775390627,9.78245735168457,-0.8697910308837891,-0.5742774605751038
1683134471378606300,17.5276064453125,9.682557106018066,-0.9607182741165161,-0.641276478767395
1683134471396443600,17.545443603515626,9.630513191223145,-0.7310073375701904,-0.6562315821647644
1683134471414286800,17.563286865234375,9.562915802001953,-0.9846464991569519,-0.5467599630355835
1683134471432126500,17.58112646484375,9.773484230041504,-0.7022934556007385,-0.7172485589981079
1683134471449964300,17.59896435546875,9.7669038772583,-1.0510473251342773,-0.3690928816795349
1683134471467815700,17.616815673828125,9.68794059753418,-0.6448656916618347,-0.7848458290100098
1683134471485645000,17.63464501953125,9.757332801818848,-1.113858938217163,-0.3978067636489868
1683134471503484400,17.652484375,9.806983947753906,-0.6687939167022705,-0.7651050686836243
1683134471521323000,17.670322998046874,9.947562217712402,-1.0414760112762451,-0.349352091550827
1683134471539164400,17.688164306640626,9.55513858795166,-0.7214360237121582,-0.8045865893363953
1683134471557003000,17.7060029296875,9.800403594970703,-0.9553344249725342,-0.4217349886894226
1683134471574842400,17.72384228515625,9.763314247131348,-0.8793623447418213,-0.6460621356964111
1683134471592679000,17.741678955078125,9.691530227661133,-0.898504912853241,-0.48454657196998596
1683134471610521300,17.759521240234374,9.620942115783691,-0.8841479420661926,-0.7130611538887024
1683134471628360200,17.777360107421874,9.716055870056152,-0.7740781307220459,-0.5796613097190857
1683134471646201900,17.795201904296874,9.758528709411621,-0.9128618240356445,-0.5934200286865234
1683134471664028700,17.813028564453123,9.754341125488281,-0.706480860710144,-0.6508477330207825
1683134471681867300,17.8308671875,9.662816047668457,-1.0372886657714844,-0.49351966381073
1683134471699714800,17.84871484375,9.726225852966309,-0.625723123550415,-0.784247636795044
1683134471717563100,17.866563232421875,9.857233047485352,-1.1802598237991333,-0.3732803463935852
1683134471735398700,17.884398681640626,9.692726135253906,-0.625723123550415,-0.7561319470405579
1683134471753237500,17.902237548828126,9.757332801818848,-1.012762188911438,-0.3409772217273712
1683134471771076000,17.920076171875,9.731011390686035,-0.6161518096923828,-0.8177471160888672
1683134471788917800,17.937917724609374,10.023533821105957,-1.0169496536254883,-0.2871387302875519
1683134471806756000,17.955756103515625,9.650253295898438,-0.7262216806411743,-0.7752745151519775
1683134471824595200,17.97359521484375,9.78664493560791,-0.9170492887496948,-0.45523449778556824
1683134471842435000,17.99143505859375,9.749555587768555,-0.9224331378936768,-0.7363911867141724
1683134471860274700,18.009274658203125,9.796216011047363,-0.8835497498512268,-0.4977070987224579
1683134471878114000,18.027114013671873,9.629914283752441,-0.8937192559242249,-0.6562315821647644
1683134471895953700,18.04495361328125,9.673583984375,-0.7501499056816101,-0.6514459848403931
1683134471913790200,18.062790283203125,9.634700775146484,-0.9559326171875,-0.5605186820030212
1683134471931635700,18.0806357421875,9.77826976776123,-0.6969096064567566,-0.6652047038078308
1683134471949472300,18.09847216796875,9.738788604736328,-1.046859860420227,-0.47916272282600403
1683134471967309000,18.11630908203125,9.702896118164062,-0.625723123550415,-0.8081758618354797
1683134471985153500,18.134153564453126,9.800403594970703,-1.1228320598602295,-0.3930211067199707
1683134472002990600,18.151990478515625,9.80219841003418,-0.6975077986717224,-0.7411768436431885
1683134472020830000,18.169829833984377,9.838089942932129,-1.074975609779358,-0.3643072545528412
1683134472038669300,18.18766943359375,9.54078197479248,-0.6209374666213989,-0.8141579031944275
1683134472056508700,18.2055087890625,9.852447509765625,-0.97926265001297,-0.3690928816795349
1683134472074348500,18.2233486328125,9.749555587768555,-0.8315058946609497,-0.7172485589981079
1683134472092187000,18.241186767578125,9.677172660827637,-0.9074779748916626,-0.4414757788181305
1683134472110028300,18.2590283203125,9.701699256896973,-0.9224331378936768,-0.7411768436431885
1683134472127867100,18.2768671875,9.787242889404297,-0.8644071817398071,-0.5790630578994751
1683134472145706800,18.294706787109376,9.67777156829834,-0.9272187948226929,-0.6460621356964111
1683134472163538200,18.3125380859375,9.640084266662598,-0.7310073375701904,-0.6418746709823608
1683134472181388000,18.330387939453125,9.591629981994629,-1.0037890672683716,-0.5515456199645996
1683134472199225300,18.348225341796876,9.745368003845215,-0.6640082597732544,-0.7417750358581543
1683134472217064400,18.366064453125,9.786046028137207,-1.0845468044281006,-0.37866419553756714
1683134472234904000,18.383904052734376,9.683155059814453,-0.6496513485908508,-0.7800601720809937
1683134472252739600,18.401739501953124,9.752547264099121,-1.109073281288147,-0.40737804770469666
1683134472270583300,18.419583251953124,9.797411918640137,-0.6448656916618347,-0.7698906660079956
1683134472288414000,18.4374140625,9.957133293151855,-1.036690354347229,-0.3206382393836975
1683134472306263300,18.45526318359375,9.588040351867676,-0.7214360237121582,-0.8039883971214294
1683134472324098600,18.4730986328125,9.800403594970703,-0.9457631707191467,-0.4169493317604065
1683134472341942800,18.49094287109375,9.787242889404297,-0.8889335989952087,-0.6598208546638489
1683134472359780000,18.508780029296876,9.715457916259766,-0.9176474809646606,-0.48873403668403625
1683134472377620200,18.5266201171875,9.606584548950195,-0.8602197170257568,-0.7417750358581543
1683134472395458800,18.544458740234376,9.7064847946167,-0.7932206988334656,-0.5940182209014893
1683134472413294000,18.562294189453127,9.748957633972168,-0.8889335989952087,-0.5934200286865234
1683134472431138300,18.58013818359375,9.783055305480957,-0.7016952633857727,-0.6556333899497986
1683134472448966700,18.597966552734373,9.681958198547363,-1.046859860420227,-0.5030909776687622
1683134472466813200,18.615813232421875,9.707083702087402,-0.6065805554389954,-0.7800601720809937
1683134472484652000,18.633652099609375,9.828518867492676,-1.1569297313690186,-0.40677985548973083
1683134472502496000,18.65149609375,9.726225852966309,-0.6305087804794312,-0.7322037220001221
1683134472520335600,18.669335693359375,9.800403594970703,-1.0031908750534058,-0.3451646566390991
1683134472538174700,18.6871748046875,9.702896118164062,-0.6065805554389954,-0.8368897438049316
1683134472556014600,18.7050146484375,9.985847473144531,-1.0319048166275024,-0.30149564146995544
1683134472573854000,18.72285400390625,9.668798446655273,-0.7549355626106262,-0.7848458290100098
1683134472591694000,18.740694091796875,9.767501831054688,-0.9218349456787109,-0.4504488706588745
1683134472609531600,18.75853173828125,9.716055870056152,-0.8793623447418213,-0.7507480978965759
1683134472627373600,18.77637353515625,9.796216011047363,-0.8739784955978394,-0.48394837975502014
1683134472645212200,18.794212158203123,9.635298728942871,-0.8602197170257568,-0.6610172390937805
1683134472663051800,18.8120517578125,9.687342643737793,-0.7645068168640137,-0.6227321028709412
1683134472680890400,18.829890380859375,9.615557670593262,-0.9607182741165161,-0.5796613097190857
1683134472698730500,18.84773046875,9.768698692321777,-0.6783652305603027,-0.6747759580612183
1683134472716570000,18.865570068359375,9.714859962463379,-1.0516455173492432,-0.5078766345977783
1683134472734405000,18.883405029296874,9.716654777526855,-0.6305087804794312,-0.8177471160888672
1683134472752248600,18.90124853515625,9.747760772705078,-1.113858938217163,-0.3978067636489868
1683134472770092500,18.919092529296876,9.79262638092041,-0.7070791125297546,-0.7411768436431885
1683134472787927600,18.936927490234375,9.881160736083984,-1.0510473251342773,-0.3684946894645691
1683134472805762600,18.954762451171874,9.54078197479248,-0.6448656916618347,-0.8189435601234436
1683134472823606300,18.972606201171875,9.842875480651855,-0.97926265001297,-0.34995031356811523
1683134472841451300,18.990451171875,9.76391315460205,-0.8075776696205139,-0.7316055297851562
1683134472859284200,19.0082841796875,9.69631576538086,-0.9361918568611145,-0.4366901218891144
1683134472877127400,19.02612744140625,9.696913719177246,-0.8793623447418213,-0.7507480978965759
1683134472894963700,19.043963623046874,9.78245735168457,-0.8745766878128052,-0.5742774605751038
1683134472912800800,19.06180078125,9.65384292602539,-0.9224331378936768,-0.617946445941925
1683134472930642200,19.07964208984375,9.654440879821777,-0.7549355626106262,-0.6514459848403931
1683134472948484600,19.097484619140626,9.601201057434082,-1.022931694984436,-0.5796613097190857
1683134472966322000,19.115322021484374,9.735796928405762,-0.6687939167022705,-0.7369893789291382
1683134472984161500,19.13316162109375,9.776474952697754,-1.0995019674301147,-0.41216370463371277
1683134473002001400,19.15100146484375,9.70229721069336,-0.6496513485908508,-0.7657032608985901
1683134473019827700,19.16882763671875,9.757332801818848,-1.1042876243591309,-0.4504488706588745
1683134473037680000,19.18668017578125,9.769296646118164,-0.6352944374084473,-0.7746763229370117
1683134473055512800,19.204512939453124,9.947562217712402,-1.017547845840454,-0.30628129839897156
1683134473073345800,19.222345703125,9.592825889587402,-0.7214360237121582,-0.8087740540504456
1683134473091201800,19.240201904296875,9.795618057250977,-0.97926265001297,-0.3978067636489868
1683134473109037800,19.258037841796874,9.8207426071167,-0.8554341197013855,-0.6885347366333008
1683134473126879000,19.27587890625,9.767501831054688,-0.9457631707191467,-0.46480581164360046
1683134473144717000,19.293717041015626,9.611370086669922,-0.8075776696205139,-0.737587571144104
1683134473162554000,19.31155419921875,9.720842361450195,-0.7836494445800781,-0.5748756527900696
1683134473180397300,19.329397216796874,9.729815483093262,-0.8793623447418213,-0.5982056856155396
1683134473198236000,19.34723583984375,9.76391315460205,-0.6927221417427063,-0.6460621356964111
1683134473216075800,19.36507568359375,9.691530227661133,-1.0564311742782593,-0.5126622319221497
1683134473233915000,19.382914794921874,9.683155059814453,-0.625723123550415,-0.7657032608985901
1683134473251752200,19.400752197265625,9.795618057250977,-1.1330015659332275,-0.4307080805301666
1683134473269595000,19.418594970703126,9.740582466125488,-0.6305087804794312,-0.7322037220001221
1683134473287432400,19.436432373046873,9.829116821289062,-0.9888339638710022,-0.35473597049713135
1683134473305272600,19.4542724609375,9.702896118164062,-0.6065805554389954,-0.8512466549873352
1683134473323111200,19.472111083984377,9.961918830871582,-1.017547845840454,-0.28235307335853577
1683134473340951000,19.489950927734377,9.673583984375,-0.7262216806411743,-0.760917603969574
1683134473358790400,19.507790283203125,9.729216575622559,-0.9511470198631287,-0.4223332107067108
1683134473376625700,19.525625732421876,9.70229721069336,-0.8506484627723694,-0.7651050686836243
1683134473394469000,19.54346923828125,9.791430473327637,-0.9074779748916626,-0.4695914387702942
1683134473412306000,19.561305908203124,9.616155624389648,-0.8267202377319336,-0.6514459848403931
1683134473430148600,19.579148681640625,9.730413436889648,-0.7597211599349976,-0.6269195079803467
1683134473447988200,19.59698828125,9.663414001464844,-0.9655039310455322,-0.6035895347595215
1683134473465827000,19.6148271484375,9.739984512329102,-0.6879364848136902,-0.6556333899497986
1683134473483655000,19.632655029296874,9.662816047668457,-1.0516455173492432,-0.5605186820030212
1683134473501505000,19.650505126953124,9.688538551330566,-0.625723123550415,-0.7800601720809937
1683134473519335000,19.6683349609375,9.714859962463379,-1.1234302520751953,-0.4504488706588745
1683134473537185300,19.686185302734376,9.811769485473633,-0.7022934556007385,-0.7411768436431885
1683134473555012900,19.704012939453126,9.905089378356934,-1.0271191596984863,-0.363709032535553
1683134473572859400,19.721859375,9.57906723022461,-0.6741777658462524,-0.8279166221618652
1683134473590705400,19.739705322265625,9.824331283569336,-1.012762188911438,-0.35473597049713135
1683134473608541700,19.757541748046876,9.749555587768555,-0.7932206988334656,-0.7603194117546082
1683134473626382000,19.775382080078124,9.719645500183105,-0.989432156085968,-0.4223332107067108
1683134473644222000,19.793221923828124,9.654440879821777,-0.8219345808029175,-0.7657032608985901
1683134473662061800,19.811061767578124,9.78664493560791,-0.8937192559242249,-0.5551348328590393
1683134473679900200,19.828900146484376,9.644271850585938,-0.8793623447418213,-0.6227321028709412
1683134473697737000,19.846737060546875,9.672985076904297,-0.778863787651062,-0.646660327911377
1683134473715583000,19.8645830078125,9.638887405395508,-1.0755738019943237,-0.5940182209014893
1683134473733419500,19.88241943359375,9.749555587768555,-0.6735795736312866,-0.727418065071106
1683134473751255600,19.900255615234375,9.78126049041748,-1.1042876243591309,-0.4504488706588745
1683134473769101000,19.91810107421875,9.735796928405762,-0.6352944374084473,-0.7513462901115417
1683134473786937300,19.935937255859375,9.762716293334961,-1.046859860420227,-0.45523449778556824
1683134473804777200,19.953777099609376,9.769296646118164,-0.6305087804794312,-0.7698906660079956
1683134473822615800,19.97161572265625,9.918848037719727,-1.0079765319824219,-0.29730820655822754
1683134473840455700,19.98945556640625,9.597611427307129,-0.7070791125297546,-0.8231309652328491
1683134473858294000,20.0072939453125,9.824331283569336,-1.0271191596984863,-0.388235479593277
1683134473876136000,20.025135986328124,9.835099220275879,-0.8267202377319336,-0.7124629616737366
1683134473893969200,20.04296923828125,9.79083251953125,-0.9744769930839539,-0.4265206456184387
1683134473911813400,20.0608134765625,9.611968994140625,-0.7692924737930298,-0.7471588850021362
1683134473929653000,20.078653076171875,9.734601020812988,-0.7884350419044495,-0.5557330846786499
1683134473947492400,20.096492431640623,9.696913719177246,-0.8793623447418213,-0.6083751320838928
1683134473965331500,20.11433154296875,9.735198974609375,-0.7166503667831421,-0.6460621356964111
1683134473983159600,20.13215966796875,9.677172660827637,-1.0755738019943237,-0.5653043389320374
1683134474000993300,20.1499931640625,9.697511672973633,-0.6400800347328186,-0.7752745151519775
1683134474018839000,20.167839111328124,9.776474952697754,-1.085145115852356,-0.46480581164360046
1683134474036689000,20.18568896484375,9.754940032958984,-0.6161518096923828,-0.7082754969596863
1683134474054535700,20.20353564453125,9.809974670410156,-0.9696913957595825,-0.3690928816795349
1683134474072368400,20.221368408203126,9.698110580444336,-0.592223584651947,-0.8560323119163513
1683134474090208300,20.239208251953126,9.933204650878906,-0.9984052777290344,-0.27337998151779175
1683134474108047000,20.257047119140626,9.659825325012207,-0.7070791125297546,-0.7992027401924133
1683134474125887000,20.274886962890626,9.7005033493042,-0.9702895879745483,-0.3936193287372589
1683134474143721500,20.292721435546873,9.68794059753418,-0.7980063557624817,-0.8033902049064636
1683134474161566000,20.31056591796875,9.81954574584961,-0.9553344249725342,-0.4546363055706024
1683134474179405000,20.328405029296874,9.620942115783691,-0.8123632669448853,-0.6658028960227966
1683134474197245000,20.346244873046874,9.744770050048828,-0.7645068168640137,-0.6125625967979431
1683134474215079200,20.3640791015625,9.663414001464844,-0.9846464991569519,-0.6317051649093628
1683134474232923000,20.3819228515625,9.701699256896973,-0.6975077986717224,-0.6514459848403931
1683134474250765300,20.399765380859375,9.634700775146484,-1.0372886657714844,-0.5700899958610535
1683134474268601300,20.417601318359374,9.688538551330566,-0.6161518096923828,-0.7752745151519775
1683134474286442800,20.43544287109375,9.714859962463379,-1.085145115852356,-0.48394837975502014
1683134474304280600,20.453280517578126,9.826126098632812,-0.7166503667831421,-0.7363911867141724
1683134474322120000,20.471119873046874,9.890732765197754,-1.012762188911438,-0.35892340540885925
1683134474339959800,20.488959716796874,9.616754531860352,-0.6640082597732544,-0.8327022790908813
1683134474357799200,20.506799072265625,9.838089942932129,-1.036690354347229,-0.3355933725833893
1683134474375639000,20.52463916015625,9.726225852966309,-0.7597211599349976,-0.7651050686836243
1683134474393478000,20.542477783203125,9.743574142456055,-1.022931694984436,-0.43130627274513245
1683134474411318000,20.560318115234374,9.626325607299805,-0.7890332937240601,-0.794417142868042
1683134474429156900,20.578156982421874,9.81535816192627,-0.9176474809646606,-0.5551348328590393
1683134474446996700,20.595996826171874,9.66819953918457,-0.8937192559242249,-0.6323033571243286
1683134474464831000,20.6138310546875,9.682557106018066,-0.7740781307220459,-0.6275177597999573
1683134474482671000,20.631671142578124,9.662816047668457,-1.089930772781372,-0.607776939868927
1683134474500514800,20.649514892578125,9.754341125488281,-0.6927221417427063,-0.7226324677467346
1683134474518348000,20.66734814453125,9.79083251953125,-1.0803594589233398,-0.4785645306110382
1683134474536190000,20.68518994140625,9.735796928405762,-0.6544370055198669,-0.7417750358581543
1683134474554030600,20.703030517578124,9.748359680175781,-1.0037890672683716,-0.47916272282600403
1683134474571875000,20.720875,9.759725570678711,-0.6496513485908508,-0.7698906660079956
1683134474589710800,20.7387109375,9.900303840637207,-1.0223335027694702,-0.30209386348724365
1683134474607552300,20.75655224609375,9.626325607299805,-0.6975077986717224,-0.8422735929489136
1683134474625390800,20.774390869140625,9.857233047485352,-1.0510473251342773,-0.37866419553756714
1683134474643230500,20.79223046875,9.835099220275879,-0.7884350419044495,-0.7363911867141724
1683134474661070000,20.810070068359376,9.795618057250977,-0.9936196208000183,-0.41216370463371277
1683134474678909000,20.827908935546876,9.588040351867676,-0.745364248752594,-0.7519445419311523
1683134474696748500,20.84574853515625,9.748957633972168,-0.8075776696205139,-0.5605186820030212
1683134474714588000,20.863587890625,9.696913719177246,-0.8889335989952087,-0.6221339106559753
1683134474732427800,20.881427734375,9.735198974609375,-0.7214360237121582,-0.6317051649093628
1683134474750266600,20.8992666015625,9.686744689941406,-1.0660024881362915,-0.5748756527900696
1683134474768106500,20.9171064453125,9.711869239807129,-0.6448656916618347,-0.7561319470405579
1683134474785940700,20.934940673828127,9.762716293334961,-1.0612168312072754,-0.47916272282600403
1683134474803784700,20.95278466796875,9.768698692321777,-0.6448656916618347,-0.698704183101654
1683134474821612800,20.97061279296875,9.776474952697754,-0.97926265001297,-0.38344982266426086
1683134474839463700,20.988463623046876,9.693324089050293,-0.6017948985099792,-0.8560323119163513
1683134474857303300,21.00630322265625,9.904491424560547,-0.9984052777290344,-0.2829512655735016
1683134474875143000,21.024142822265624,9.650253295898438,-0.6879364848136902,-0.8087740540504456
1683134474892981800,21.041981689453124,9.719645500183105,-1.0325030088424683,-0.3888336718082428
1683134474910820400,21.0598203125,9.673583984375,-0.7645068168640137,-0.8177471160888672
1683134474928659200,21.0776591796875,9.853045463562012,-0.9888339638710022,-0.44027936458587646
1683134474946503400,21.09550341796875,9.625727653503418,-0.7884350419044495,-0.7040880918502808
1683134474964339500,21.11333935546875,9.739984512329102,-0.7597211599349976,-0.5892325639724731
1683134474982179000,21.131178955078123,9.69212818145752,-0.9607182741165161,-0.641276478767395
1683134475000018700,21.149018798828124,9.673583984375,-0.7022934556007385,-0.6275177597999573
1683134475017858300,21.1668583984375,9.610772132873535,-1.0325030088424683,-0.5796613097190857
1683134475035697200,21.184697265625,9.68794059753418,-0.6352944374084473,-0.7657032608985901
1683134475053525000,21.20252490234375,9.724431037902832,-1.0755738019943237,-0.5318048596382141
1683134475071365400,21.220365478515625,9.854242324829102,-0.7022934556007385,-0.7268198728561401
1683134475089216300,21.23821630859375,9.866804122924805,-0.9888339638710022,-0.3643072545528412
1683134475107055000,21.25605517578125,9.645467758178711,-0.6544370055198669,-0.8327022790908813
1683134475124894500,21.27389453125,9.857233047485352,-1.0462616682052612,-0.3355933725833893
1683134475142730200,21.291730224609374,9.716654777526855,-0.6975077986717224,-0.7513462901115417
1683134475160574000,21.309573974609375,9.757332801818848,-1.0372886657714844,-0.4169493317604065
1683134475178412300,21.327412353515626,9.640682220458984,-0.7507480978965759,-0.8039883971214294
1683134475196252200,21.345252197265626,9.862616539001465,-0.9224331378936768,-0.5264210104942322
1683134475214091800,21.363091796875,9.720842361450195,-0.8793623447418213,-0.6604190468788147
1683134475231930000,21.38093017578125,9.7064847946167,-0.7884350419044495,-0.6323033571243286
1683134475249771300,21.398771240234375,9.715457916259766,-1.0755738019943237,-0.6364908218383789
1683134475267610000,21.416610107421874,9.697511672973633,-0.7262216806411743,-0.6939185857772827
1683134475285449200,21.43444921875,9.686744689941406,-1.0372886657714844,-0.5222335457801819
1683134475303288600,21.45228857421875,9.678369522094727,-0.6352944374084473,-0.7465606927871704
1683134475321127700,21.470127685546874,9.719645500183105,-0.9942178130149841,-0.48394837975502014
1683134475338967300,21.48796728515625,9.821340560913086,-0.6735795736312866,-0.7890332937240601
1683134475356806700,21.505806640625,9.900303840637207,-1.0558329820632935,-0.32123643159866333
1683134475374646500,21.523646484375,9.650253295898438,-0.6831508874893188,-0.8566305041313171
1683134475392485000,21.541485107421874,9.871589660644531,-1.0558329820632935,-0.41156548261642456
1683134475410314500,21.559314453125,9.768698692321777,-0.7357929348945618,-0.7746763229370117
1683134475428164900,21.577164794921874,9.786046028137207,-1.0271191596984863,-0.373878538608551
1683134475446004200,21.595004150390626,9.56889820098877,-0.711864709854126,-0.7806583642959595
1683134475463842800,21.6128427734375,9.839286804199219,-0.893121063709259,-0.5072783827781677
1683134475481682700,21.6306826171875,9.720243453979492,-0.9176474809646606,-0.6460621356964111
1683134475499509800,21.648509765625,9.687342643737793,-0.778863787651062,-0.617946445941925
1683134475517361700,21.666361572265625,9.682557106018066,-1.0474581718444824,-0.6699903607368469
1683134475535188700,21.684188720703126,9.70229721069336,-0.7070791125297546,-0.7226324677467346
1683134475553028400,21.7020283203125,9.753145217895508,-1.046859860420227,-0.5168496966362
1683134475570880300,21.71988037109375,9.76391315460205,-0.6783652305603027,-0.698704183101654
1683134475588719600,21.7377197265625,9.710074424743652,-0.9846464991569519,-0.4414757788181305
1683134475606558200,21.75555810546875,9.707681655883789,-0.6209374666213989,-0.8135597109794617
1683134475624386000,21.773385986328126,9.871589660644531,-1.074975609779358,-0.2877369225025177
1683134475642237400,21.791237548828125,9.674181938171387,-0.6879364848136902,-0.8279166221618652
1683134475660077300,21.809077392578125,9.814760208129883,-1.0462616682052612,-0.37866419553756714
1683134475677915600,21.82691552734375,9.769296646118164,-0.7070791125297546,-0.7938188910484314
1683134475695743700,21.84474365234375,9.871589660644531,-1.012762188911438,-0.397208571434021
1683134475713595100,21.86259521484375,9.54496955871582,-0.7363911867141724,-0.7423732280731201
1683134475731433700,21.880433837890624,9.734601020812988,-0.7932206988334656,-0.5318048596382141
1683134475749274000,21.898274169921876,9.687342643737793,-0.9272187948226929,-0.6604190468788147
1683134475767112200,21.9161123046875,9.735198974609375,-0.7645068168640137,-0.5940182209014893
1683134475784953600,21.93395361328125,9.644271850585938,-1.0133603811264038,-0.6083751320838928
1683134475802788600,21.95178857421875,9.707083702087402,-0.6400800347328186,-0.7082754969596863
1683134475820630800,21.969630859375,9.729815483093262,-0.9798609018325806,-0.5557330846786499
1683134475838471000,21.987470947265624,9.76391315460205,-0.625723123550415,-0.698704183101654
1683134475856309800,22.005309814453124,9.729216575622559,-0.9607182741165161,-0.4175475537776947
1683134475874145000,22.02314501953125,9.688538551330566,-0.6209374666213989,-0.8512466549873352
1683134475891988200,22.04098828125,9.89013385772705,-1.1084750890731812,-0.32602208852767944
1683134475909828400,22.058828369140624,9.735796928405762,-0.6831508874893188,-0.7698906660079956
1683134475927667700,22.076667724609376,9.762118339538574,-1.0707881450653076,-0.3978067636489868
1683134475945507300,22.09450732421875,9.640682220458984,-0.6693921089172363,-0.8470591902732849
1683134475963347500,22.112347412109376,9.89551830291748,-0.9840483069419861,-0.4498506486415863
1683134475981182200,22.13018212890625,9.687342643737793,-0.8267202377319336,-0.7130611538887024
1683134475999012000,22.14801220703125,9.739386558532715,-0.7692924737930298,-0.5605186820030212
1683134476016866000,22.165865966796876,9.67777156829834,-0.9996016621589661,-0.6891329288482666
1683134476034698000,22.183697998046874,9.725627899169922,-0.7932206988334656,-0.6317051649093628
1683134476052533500,22.201533447265625,9.663414001464844,-1.022931694984436,-0.6364908218383789
1683134476070382600,22.219382568359375,9.673583984375,-0.6640082597732544,-0.7136593461036682
1683134476088210000,22.2372099609375,9.69631576538086,-0.9750752449035645,-0.5222335457801819
1683134476106061800,22.255061767578123,9.850054740905762,-0.6831508874893188,-0.7740781307220459
1683134476123889200,22.27288916015625,9.857233047485352,-1.0079765319824219,-0.3595215976238251
1683134476141740500,22.290740478515627,9.65503978729248,-0.6640082597732544,-0.8422735929489136
1683134476159580000,22.308579833984375,9.824331283569336,-1.1042876243591309,-0.40737804770469666
1683134476177418800,22.326418701171875,9.750154495239258,-0.6735795736312866,-0.784247636795044
1683134476195254300,22.344254150390626,9.809974670410156,-1.0510473251342773,-0.373878538608551
1683134476213097500,22.362097412109375,9.640682220458984,-0.7262216806411743,-0.8087740540504456
1683134476230934800,22.379934814453126,9.857831001281738,-0.9026923179626465,-0.48813581466674805
1683134476248777000,22.39777685546875,9.758528709411621,-0.8937192559242249,-0.6269195079803467
1683134476266604000,22.41560400390625,9.672985076904297,-0.7980063557624817,-0.584446907043457
1683134476284458200,22.433458251953127,9.65384292602539,-0.9996016621589661,-0.6939185857772827
1683134476302294800,22.451294677734374,9.673583984375,-0.711864709854126,-0.6753742098808289
1683134476320132600,22.469132568359374,9.734601020812988,-0.9750752449035645,-0.5647061467170715
1683134476337974800,22.486974853515626,9.739984512329102,-0.6735795736312866,-0.698704183101654
1683134476355812400,22.504812255859374,9.638887405395508,-0.9511470198631287,-0.4654040038585663
1683134476373652500,22.522652587890626,9.778867721557617,-0.6305087804794312,-0.8033902049064636
1683134476391491300,22.5404912109375,9.876375198364258,-1.1132607460021973,-0.3116651475429535
1683134476409331200,22.558331298828126,9.664610862731934,-0.6209374666213989,-0.8279166221618652
1683134476427170600,22.576170654296874,9.757332801818848,-0.9984052777290344,-0.3601198196411133
