time,seconds_elapsed,z,y,x
1683125722037894400,0.170894287109375,2.3999547958374023,-7.125882625579834,0.6239180564880371
1683125722055726000,0.18872607421875,2.3817338943481445,-7.164646625518799,0.6364759802818298
1683125722073568000,0.206568115234375,2.295116424560547,-7.263492107391357,0.6416651606559753
1683125722091407600,0.22440771484375,2.301386833190918,-7.235170364379883,0.6392620801925659
1683125722109244700,0.24224462890625,2.3872151374816895,-7.164036750793457,0.6425616145133972
1683125722127084000,0.260083984375,2.3644967079162598,-7.181121826171875,0.6281678080558777
1683125722144909300,0.277909423828125,2.2979021072387695,-7.246983528137207,0.6205309629440308
1683125722162760400,0.295760498046875,2.3236632347106934,-7.228675842285156,0.6128031015396118
1683125722180597000,0.313596923828125,2.3763952255249023,-7.168971061706543,0.6128422021865845
1683125722198438400,0.3314384765625,2.347999095916748,-7.1844682693481445,0.6157483458518982
1683125722216271600,0.349271728515625,2.3107805252075195,-7.243083477020264,0.6192684173583984
1683125722234116900,0.367116943359375,2.3248085975646973,-7.221248149871826,0.6312010884284973
1683125722251951000,0.384951171875,2.3639612197875977,-7.175042152404785,0.6356652975082397
1683125722269790200,0.402790283203125,2.3415398597717285,-7.201390743255615,0.6349114179611206
1683125722287619000,0.420619140625,2.306746006011963,-7.237117767333984,0.6254738569259644
1683125722305462800,0.438462890625,2.338062286376953,-7.210824012756348,0.6258439421653748
1683125722323304400,0.456304443359375,2.3567824363708496,-7.183797359466553,0.6188398599624634
1683125722341143800,0.474143798828125,2.3277831077575684,-7.206471920013428,0.6115548610687256
1683125722358968800,0.49196875,2.3139023780822754,-7.2178239822387695,0.6097737550735474
1683125722376817200,0.509817138671875,2.3346657752990723,-7.198922634124756,0.6195526123046875
1683125722394657800,0.52765771484375,2.3503689765930176,-7.1798272132873535,0.6282563209533691
1683125722412484900,0.54548486328125,2.3317956924438477,-7.2006988525390625,0.6313844919204712
1683125722430333000,0.5633330078125,2.3175253868103027,-7.211662292480469,0.630033552646637
1683125722448174800,0.5811748046875,2.335669994354248,-7.191442966461182,0.6250892877578735
1683125722466007800,0.5990078125,2.346573829650879,-7.187488555908203,0.6257964372634888
1683125722483848700,0.6168486328125,2.3285231590270996,-7.196707248687744,0.6213461756706238
1683125722501690000,0.634690185546875,2.318608283996582,-7.200565338134766,0.6180474162101746
1683125722519526700,0.652526611328125,2.333311080932617,-7.181981563568115,0.6109088659286499
1683125722537366000,0.670365966796875,2.34218168258667,-7.177418231964111,0.617504894733429
1683125722555203000,0.688203125,2.3226194381713867,-7.192208290100098,0.6176722049713135
1683125722573040400,0.706040283203125,2.3156723976135254,-7.19573974609375,0.6203010678291321
1683125722590880300,0.72388037109375,2.332253932952881,-7.185455322265625,0.6293100118637085
1683125722608716000,0.741716064453125,2.327411651611328,-7.183114051818848,0.6327741742134094
1683125722626552800,0.759552734375,2.3105697631835938,-7.189119338989258,0.6187852621078491
1683125722644393500,0.7773935546875,2.321857452392578,-7.1830925941467285,0.6248106956481934
1683125722662233000,0.795233154296875,2.3265223503112793,-7.174920558929443,0.6197142601013184
1683125722680070100,0.813070068359375,2.323794364929199,-7.171008110046387,0.6193982362747192
1683125722697905400,0.830905517578125,2.3152289390563965,-7.181729316711426,0.62038254737854
1683125722715746800,0.848746826171875,2.3121352195739746,-7.180601119995117,0.6191450953483582
1683125722733572000,0.866572021484375,2.3181004524230957,-7.168473720550537,0.6236041188240051
1683125722751424300,0.88442431640625,2.3200178146362305,-7.1724019050598145,0.6288531422615051
1683125722769263900,0.902263916015625,2.309123992919922,-7.171939373016357,0.6212903261184692
1683125722787100000,0.920099853515625,2.3097634315490723,-7.172754287719727,0.6198849081993103
1683125722804939300,0.937939208984375,2.3198862075805664,-7.1682658195495605,0.6204240322113037
1683125722822775800,0.95577587890625,2.309377670288086,-7.173758506774902,0.623529314994812
1683125722840616700,0.97361669921875,2.3007283210754395,-7.171480655670166,0.6166757345199585
1683125722858453800,0.991453857421875,2.3083229064941406,-7.172895431518555,0.6172647476196289
1683125722876292400,1.009292236328125,2.3135342597961426,-7.163430690765381,0.6228344440460205
1683125722894129700,1.027129638671875,2.3094558715820312,-7.160713195800781,0.6140956282615662
1683125722911954200,1.0449541015625,2.303065776824951,-7.166891574859619,0.6242473125457764
1683125722929804500,1.062804443359375,2.3019556999206543,-7.161053657531738,0.6243149042129517
1683125722947640800,1.080640869140625,2.305619239807129,-7.157036304473877,0.6181696653366089
1683125722965483300,1.098483154296875,2.2973175048828125,-7.149636745452881,0.6210415363311768
1683125722983319300,1.1163193359375,2.286929130554199,-7.1485395431518555,0.6264610290527344
1683125723001162200,1.134162353515625,2.2959237098693848,-7.148855209350586,0.6226200461387634
1683125723018998800,1.151998779296875,2.2974915504455566,-7.147799015045166,0.6151395440101624
1683125723036835800,1.1698359375,2.2893853187561035,-7.1461944580078125,0.6157553791999817
1683125723054675200,1.18767529296875,2.2941880226135254,-7.1387939453125,0.6220769882202148
1683125723072511500,1.205511474609375,2.29025936126709,-7.1315813064575195,0.6158534288406372
1683125723090353200,1.223353271484375,2.282471179962158,-7.136569976806641,0.6229219436645508
1683125723108186400,1.241186279296875,2.2776846885681152,-7.134101390838623,0.6188448667526245
1683125723126031400,1.25903125,2.277268409729004,-7.130140781402588,0.6137198805809021
1683125723143866000,1.2768662109375,2.278850555419922,-7.129016399383545,0.6155171990394592
1683125723161705200,1.294705322265625,2.2792420387268066,-7.132575511932373,0.6186326146125793
1683125723179542000,1.3125419921875,2.276432991027832,-7.123133659362793,0.6147140264511108
1683125723197381600,1.330381591796875,2.275111675262451,-7.125066757202148,0.6151895523071289
1683125723215217000,1.348216796875,2.271636486053467,-7.117198944091797,0.6190304756164551
1683125723233061400,1.366061279296875,2.2683677673339844,-7.118268013000488,0.6158337593078613
1683125723250896000,1.383895751953125,2.2652359008789062,-7.116891384124756,0.6140270829200745
1683125723268735000,1.40173486328125,2.2597460746765137,-7.116065979003906,0.6134942173957825
1683125723286572000,1.419572021484375,2.260805130004883,-7.116147518157959,0.6150010824203491
1683125723304399600,1.437399658203125,2.2589011192321777,-7.112972259521484,0.6184983253479004
1683125723322245400,1.455245361328125,2.250237464904785,-7.102370738983154,0.6140956282615662
1683125723340088600,1.473088623046875,2.2494874000549316,-7.105832576751709,0.6129306554794312
1683125723357924600,1.490924560546875,2.2504234313964844,-7.097536563873291,0.6169263124465942
1683125723375764700,1.5087646484375,2.2430267333984375,-7.097625255584717,0.6139403581619263
1683125723393600500,1.5266005859375,2.243776321411133,-7.097148418426514,0.6103624105453491
1683125723411439900,1.54443994140625,2.2457895278930664,-7.086130142211914,0.6115542650222778
1683125723429280800,1.56228076171875,2.243499279022217,-7.09249210357666,0.6108506917953491
1683125723447115000,1.580114990234375,2.2280654907226562,-7.090167045593262,0.6079143285751343
1683125723464950500,1.597950439453125,2.235417366027832,-7.08222770690918,0.6123430728912354
1683125723482790700,1.615790771484375,2.225353717803955,-7.082442283630371,0.6118354797363281
1683125723500634400,1.63363427734375,2.2334156036376953,-7.076590061187744,0.6068788766860962
1683125723518472000,1.651471923828125,2.229811191558838,-7.0737714767456055,0.6056608557701111
1683125723536308200,1.66930810546875,2.226419448852539,-7.068546772003174,0.6092159748077393
1683125723554146000,1.68714599609375,2.224062919616699,-7.064358234405518,0.6125715970993042
1683125723571981800,1.70498193359375,2.2246618270874023,-7.0624189376831055,0.6110374331474304
1683125723589825800,1.72282568359375,2.217864513397217,-7.060922622680664,0.6133209466934204
1683125723607659800,1.74065966796875,2.2122063636779785,-7.059508323669434,0.6149884462356567
1683125723625501000,1.7585009765625,2.214259624481201,-7.057906627655029,0.6112260818481445
1683125723643337700,1.776337646484375,2.205747604370117,-7.048972129821777,0.6035534143447876
1683125723661177300,1.79417724609375,2.203118324279785,-7.0500664710998535,0.6090928316116333
1683125723679014400,1.812014404296875,2.199023723602295,-7.0504631996154785,0.6096655130386353
1683125723696854000,1.82985400390625,2.198451042175293,-7.037579536437988,0.6077929735183716
1683125723714686500,1.8476865234375,2.1899471282958984,-7.034200668334961,0.6059979796409607
1683125723732518700,1.8655185546875,2.1899657249450684,-7.038760662078857,0.6084386110305786
1683125723750367700,1.88336767578125,2.186689853668213,-7.029109477996826,0.6033426523208618
1683125723768206800,1.901206787109375,2.1872963905334473,-7.015002727508545,0.6080794334411621
1683125723786039300,1.919039306640625,2.182645797729492,-7.021022796630859,0.6073920130729675
1683125723803881500,1.936881591796875,2.1819405555725098,-7.017230987548828,0.6134792566299438
1683125723821709600,1.95470947265625,2.184347629547119,-7.010240077972412,0.6089941263198853
1683125723839559200,1.97255908203125,2.1751303672790527,-7.018044471740723,0.6075088977813721
1683125723857398300,1.990398193359375,2.17915678024292,-7.004796981811523,0.6048909425735474
1683125723875238400,2.00823828125,2.1688785552978516,-7.003525733947754,0.6084035038948059
1683125723893072600,2.02607275390625,2.167757987976074,-7.001023769378662,0.6042855978012085
1683125723910913500,2.04391357421875,2.1575236320495605,-6.991326808929443,0.6031752228736877
1683125723928750300,2.061750244140625,2.157805919647217,-6.9950270652771,0.6047451496124268
1683125723946589700,2.079589599609375,2.155557155609131,-6.98538875579834,0.6070489883422852
1683125723964419600,2.097419677734375,2.157046318054199,-6.992319107055664,0.5989035367965698
1683125723982266600,2.1152666015625,2.156257152557373,-6.978299617767334,0.6019840836524963
1683125724000103700,2.133103759765625,2.1444969177246094,-6.977663040161133,0.6045472025871277
1683125724017939700,2.150939697265625,2.14518404006958,-6.972751140594482,0.6056357026100159
1683125724035782400,2.168782470703125,2.133512020111084,-6.968247890472412,0.6003689765930176
1683125724053619700,2.18661962890625,2.1323294639587402,-6.965670108795166,0.6034177541732788
1683125724071456800,2.204456787109375,2.1396450996398926,-6.96356725692749,0.6061559915542603
1683125724089284000,2.2222841796875,2.132570266723633,-6.955624580383301,0.6021068692207336
1683125724107129000,2.240129150390625,2.12479829788208,-6.949252128601074,0.6079378128051758
1683125724124973000,2.25797314453125,2.120968818664551,-6.942913055419922,0.6039255857467651
1683125724142809000,2.27580908203125,2.1224846839904785,-6.937423229217529,0.6008932590484619
1683125724160649000,2.29364892578125,2.1222219467163086,-6.9388885498046875,0.5980191230773926
1683125724178487800,2.31148779296875,2.1117515563964844,-6.934177398681641,0.595478892326355
1683125724196326000,2.329325927734375,2.1070446968078613,-6.930907726287842,0.5895724296569824
1683125724214145000,2.34714501953125,2.107581615447998,-6.924136161804199,0.5976099371910095
1683125724232002800,2.3650029296875,2.100935459136963,-6.914964199066162,0.5959380865097046
1683125724249840000,2.382840087890625,2.1014909744262695,-6.912677764892578,0.6016288995742798
1683125724267676200,2.40067626953125,2.0940194129943848,-6.912644386291504,0.5974888801574707
1683125724285519400,2.418519287109375,2.0860400199890137,-6.91361665725708,0.6015998721122742
1683125724303356000,2.43635595703125,2.089118480682373,-6.903684139251709,0.595211923122406
1683125724321192700,2.454192626953125,2.0789170265197754,-6.89401388168335,0.5974184274673462
1683125724339018000,2.47201806640625,2.082716464996338,-6.893082141876221,0.6005901098251343
1683125724356864800,2.48986474609375,2.0742111206054688,-6.889127254486084,0.5888025760650635
1683125724374709000,2.507708984375,2.0729446411132812,-6.887225151062012,0.5968283414840698
1683125724392543500,2.52554345703125,2.0632333755493164,-6.881452560424805,0.5907723903656006
1683125724410386400,2.543386474609375,2.069629192352295,-6.876980304718018,0.5903815031051636
1683125724428224300,2.561224365234375,2.0643439292907715,-6.86820125579834,0.6003332734107971
1683125724446061300,2.579061279296875,2.054960250854492,-6.866532325744629,0.5942728519439697
1683125724463888100,2.59688818359375,2.0485334396362305,-6.861321449279785,0.5900098085403442
1683125724481738000,2.614738037109375,2.049496650695801,-6.851489543914795,0.592337429523468
1683125724499576600,2.63257666015625,2.035254955291748,-6.848528861999512,0.5917959213256836
1683125724517415700,2.650415771484375,2.040546417236328,-6.841456890106201,0.587799072265625
1683125724535252700,2.668252685546875,2.0316076278686523,-6.845638751983643,0.5935620069503784
1683125724553092400,2.68609228515625,2.0297598838806152,-6.834529876708984,0.5912237763404846
1683125724570929200,2.70392919921875,2.0237951278686523,-6.825858116149902,0.5882564187049866
1683125724588768800,2.721768798828125,2.026838779449463,-6.824404716491699,0.5956207513809204
1683125724606606000,2.739606201171875,2.0203170776367188,-6.818201065063477,0.589472770690918
1683125724624445400,2.757445556640625,2.013077735900879,-6.816290855407715,0.5868152976036072
1683125724642282000,2.775281982421875,2.020730972290039,-6.810111045837402,0.5921021699905396
1683125724660118800,2.793118896484375,2.0074267387390137,-6.800446510314941,0.5820361375808716
1683125724677957000,2.81095703125,2.0053868293762207,-6.79937744140625,0.5851876735687256
1683125724695797200,2.82879736328125,1.9954032897949219,-6.7887043952941895,0.5844072103500366
1683125724713624600,2.84662451171875,1.9928302764892578,-6.779627799987793,0.5806076526641846
1683125724731475000,2.864474853515625,1.982527256011963,-6.778341293334961,0.584953248500824
1683125724749312500,2.8823125,1.9809951782226562,-6.774667739868164,0.5802499651908875
1683125724767151400,2.9001513671875,1.9811911582946777,-6.769035339355469,0.5834681987762451
1683125724784988700,2.91798876953125,1.978189468383789,-6.755640029907227,0.5861532688140869
1683125724802826800,2.93582666015625,1.973405361175537,-6.762657165527344,0.5890947580337524
1683125724820666600,2.95366650390625,1.9642291069030762,-6.751211166381836,0.5855255126953125
1683125724838504700,2.971504638671875,1.9700026512145996,-6.754623889923096,0.5842543840408325
1683125724856342000,2.989342041015625,1.9638347625732422,-6.745558261871338,0.5793368816375732
1683125724874181000,3.00718115234375,1.9551196098327637,-6.739947319030762,0.5744948387145996
1683125724892016000,3.02501611328125,1.9551868438720703,-6.73020076751709,0.5807380080223083
1683125724909858000,3.042858154296875,1.9482841491699219,-6.727814674377441,0.5781649351119995
1683125724927698200,3.0606982421875,1.9425973892211914,-6.720653057098389,0.5810069441795349
1683125724945534500,3.078534423828125,1.9380788803100586,-6.714007377624512,0.5781657695770264
1683125724963371800,3.096371826171875,1.931990146636963,-6.710040092468262,0.5845680236816406
1683125724981211100,3.114211181640625,1.9303388595581055,-6.694121360778809,0.5778729915618896
1683125724999048400,3.13204833984375,1.9289193153381348,-6.6911211013793945,0.5750899314880371
1683125725016889600,3.1498896484375,1.9162483215332031,-6.689610004425049,0.5826640129089355
1683125725034725000,3.16772509765625,1.9193024635314941,-6.689528465270996,0.5792630910873413
1683125725052564200,3.185564208984375,1.9115486145019531,-6.683959484100342,0.5734694004058838
1683125725070401500,3.203401611328125,1.9076967239379883,-6.675457000732422,0.5767607688903809
1683125725088241000,3.221240966796875,1.9054794311523438,-6.665111541748047,0.5738502144813538
1683125725106078500,3.239078369140625,1.8916068077087402,-6.6628241539001465,0.5774650573730469
1683125725123914200,3.256914306640625,1.8930048942565918,-6.650649070739746,0.5750629305839539
1683125725141752000,3.274751953125,1.890092372894287,-6.6470184326171875,0.5728502869606018
1683125725159602200,3.292602294921875,1.8805146217346191,-6.638337135314941,0.5768997073173523
1683125725177432000,3.31043212890625,1.8815317153930664,-6.634274005889893,0.5765279531478882
1683125725195259400,3.32825927734375,1.8766670227050781,-6.628419876098633,0.5723081827163696
1683125725213108000,3.34610791015625,1.870870590209961,-6.626473426818848,0.5763429999351501
1683125725230932700,3.3639326171875,1.8604168891906738,-6.62080717086792,0.5686843395233154
1683125725248787500,3.381787353515625,1.866164207458496,-6.613521099090576,0.5685094594955444
1683125725266623700,3.399623779296875,1.8576135635375977,-6.609315872192383,0.5657249689102173
1683125725284461300,3.41746142578125,1.8544816970825195,-6.601485252380371,0.5673617720603943
1683125725302300700,3.43530078125,1.848989486694336,-6.592719078063965,0.562204122543335
1683125725320138000,3.453137939453125,1.8452057838439941,-6.588759422302246,0.5658025145530701
1683125725337965600,3.470965576171875,1.839165210723877,-6.5824055671691895,0.5647580623626709
1683125725355805000,3.488804931640625,1.828127384185791,-6.575192451477051,0.5673198699951172
1683125725373654000,3.506654052734375,1.8324041366577148,-6.563467502593994,0.5644516944885254
1683125725391491300,3.5244912109375,1.8141231536865234,-6.556761264801025,0.5659379363059998
1683125725409327400,3.542327392578125,1.816598892211914,-6.555293083190918,0.560299813747406
1683125725427168500,3.56016845703125,1.8164944648742676,-6.554288864135742,0.5638456344604492
1683125725445002200,3.578002197265625,1.8155694007873535,-6.539647102355957,0.5618381500244141
1683125725462844400,3.595844482421875,1.8083877563476562,-6.532879829406738,0.5635807514190674
1683125725480683800,3.613683837890625,1.7960577011108398,-6.5176897048950195,0.558222770690918
1683125725498521000,3.63152099609375,1.7908515930175781,-6.519302845001221,0.5633469223976135
1683125725516360400,3.6493603515625,1.7877182960510254,-6.514187812805176,0.5595249533653259
1683125725534196500,3.667196533203125,1.7810182571411133,-6.50399112701416,0.5556915998458862
1683125725552038100,3.6850380859375,1.7772316932678223,-6.502434730529785,0.5640450716018677
1683125725569873000,3.702872802734375,1.7826042175292969,-6.492047309875488,0.561073362827301
1683125725587714600,3.720714599609375,1.763923168182373,-6.486763000488281,0.5568618774414062
1683125725605536000,3.738535888671875,1.761986255645752,-6.482795238494873,0.5585679411888123
1683125725623392800,3.756392822265625,1.7585277557373047,-6.468323707580566,0.5542361736297607
1683125725641227300,3.774227294921875,1.7544984817504883,-6.470434665679932,0.5567976236343384
1683125725659067000,3.79206689453125,1.7483396530151367,-6.457758903503418,0.5567226409912109
1683125725676900900,3.80990087890625,1.7512569427490234,-6.451201438903809,0.5501409769058228
1683125725694747000,3.827746826171875,1.7324190139770508,-6.441357612609863,0.550685465335846
1683125725712580600,3.84558056640625,1.741145133972168,-6.436614513397217,0.5551302433013916
1683125725730420000,3.863419921875,1.7303762435913086,-6.432612895965576,0.5535204410552979
1683125725748249900,3.881249755859375,1.7228631973266602,-6.425752639770508,0.5460513234138489
1683125725766092000,3.899092041015625,1.718210220336914,-6.41457986831665,0.5515511631965637
1683125725783930400,3.916930419921875,1.7148818969726562,-6.40989351272583,0.5502324104309082
1683125725801771300,3.934771240234375,1.7134943008422852,-6.403876781463623,0.5483665466308594
1683125725819611600,3.952611572265625,1.7029399871826172,-6.398883819580078,0.5456852912902832
1683125725837451300,3.970451171875,1.6992273330688477,-6.3855109214782715,0.5461210012435913
1683125725855286300,3.988286376953125,1.6930456161499023,-6.379683494567871,0.548068106174469
1683125725873127700,4.006127685546875,1.6879520416259766,-6.3779449462890625,0.5447553992271423
1683125725890963000,4.023962890625,1.685159683227539,-6.366142749786377,0.5470950603485107
1683125725908804600,4.0418046875,1.680525779724121,-6.363835334777832,0.5444900989532471
1683125725926639900,4.059639892578125,1.6725702285766602,-6.355772018432617,0.544040322303772
1683125725944469000,4.077468994140625,1.6696815490722656,-6.343280792236328,0.5413730144500732
1683125725962316800,4.09531689453125,1.6636581420898438,-6.339332580566406,0.5417748689651489
1683125725980156700,4.11315673828125,1.6607723236083984,-6.329036712646484,0.5461630821228027
1683125725997993700,4.13099365234375,1.6491222381591797,-6.323461532592773,0.5434824824333191
1683125726015833000,4.1488330078125,1.6551551818847656,-6.319660186767578,0.541593074798584
1683125726033670700,4.166670654296875,1.642099380493164,-6.305815696716309,0.548950731754303
1683125726051507000,4.1845068359375,1.6418466567993164,-6.299625873565674,0.5449532270431519
1683125726069350000,4.202349853515625,1.6389970779418945,-6.299625873565674,0.5399094223976135
1683125726087181800,4.220181884765625,1.6279468536376953,-6.2892045974731445,0.5400160551071167
1683125726105024000,4.23802392578125,1.6220579147338867,-6.281955718994141,0.5392264127731323
1683125726122862800,4.25586279296875,1.6185111999511719,-6.274346351623535,0.5430008172988892
1683125726140699400,4.273699462890625,1.6137523651123047,-6.265496253967285,0.5352215766906738
1683125726158540000,4.2915400390625,1.6111478805541992,-6.254535675048828,0.5350283980369568
1683125726176378000,4.309378173828125,1.6092510223388672,-6.251241683959961,0.5310907959938049
1683125726194216200,4.32721630859375,1.596360206604004,-6.243949890136719,0.5333112478256226
1683125726212052500,4.345052490234375,1.5925483703613281,-6.2344970703125,0.5329921245574951
1683125726229882400,4.36288232421875,1.593984603881836,-6.229231834411621,0.5309915542602539
1683125726247730200,4.380730224609375,1.5866727828979492,-6.223569869995117,0.5256432294845581
1683125726265569800,4.39856982421875,1.5849990844726562,-6.216586112976074,0.5253293514251709
1683125726283407000,4.416406982421875,1.5733070373535156,-6.203332424163818,0.5326756834983826
1683125726301246200,4.43424609375,1.5688705444335938,-6.187811851501465,0.5302808880805969
1683125726319083500,4.45208349609375,1.556447982788086,-6.191552639007568,0.524895429611206
1683125726336923000,4.4699228515625,1.5606756210327148,-6.182157516479492,0.5222436785697937
1683125726354755300,4.48775537109375,1.5529413223266602,-6.173871994018555,0.532345175743103
1683125726372599600,4.505599609375,1.5459871292114258,-6.166468620300293,0.5316965579986572
1683125726390437000,4.52343701171875,1.5469837188720703,-6.1517438888549805,0.5222045183181763
1683125726408276700,4.54127685546875,1.5391788482666016,-6.154529094696045,0.5288224816322327
1683125726426113300,4.55911328125,1.532576560974121,-6.142972469329834,0.5251699686050415
1683125726443947300,4.576947265625,1.5242395401000977,-6.133508205413818,0.5235676765441895
1683125726461791200,4.594791259765625,1.5181875228881836,-6.132155895233154,0.5247200727462769
1683125726479630800,4.612630859375,1.520101547241211,-6.120821952819824,0.5209929943084717
1683125726497467100,4.630467041015625,1.5110349655151367,-6.110801696777344,0.5215797424316406
1683125726515306200,4.64830615234375,1.5113344192504883,-6.108615398406982,0.5153404474258423
1683125726533142800,4.666142822265625,1.510329246520996,-6.093911647796631,0.5194568634033203
1683125726550984200,4.683984130859375,1.4863224029541016,-6.089983940124512,0.5231360197067261
1683125726568815900,4.70181591796875,1.493906021118164,-6.078257083892822,0.521561861038208
1683125726586664200,4.719664306640625,1.4755029678344727,-6.074720859527588,0.5228915214538574
1683125726604495600,4.73749560546875,1.480391502380371,-6.070285320281982,0.5118005275726318
1683125726622336500,4.75533642578125,1.4683685302734375,-6.058598041534424,0.5086936950683594
1683125726640173600,4.773173583984375,1.4710626602172852,-6.049801826477051,0.512467622756958
1683125726658013000,4.791012939453125,1.4680452346801758,-6.0379862785339355,0.5127016305923462
1683125726675838500,4.80883837890625,1.465611457824707,-6.033021926879883,0.5176860094070435
1683125726693689000,4.826689208984375,1.4547929763793945,-6.028399467468262,0.5084505677223206
1683125726711527400,4.84452734375,1.4473390579223633,-6.020308017730713,0.509521484375
1683125726729366300,4.8623662109375,1.4473724365234375,-6.010427474975586,0.5177687406539917
1683125726747191800,4.88019189453125,1.433863639831543,-5.997375011444092,0.5062035322189331
1683125726765031700,4.89803173828125,1.4317436218261719,-5.988842487335205,0.5084559917449951
1683125726782879200,4.915879150390625,1.4327096939086914,-5.98366117477417,0.5052370429039001
1683125726800717800,4.9337177734375,1.4226865768432617,-5.974194526672363,0.5010672211647034
1683125726818560000,4.95156005859375,1.419785499572754,-5.977136611938477,0.5112094879150391
1683125726836396300,4.969396240234375,1.4159307479858398,-5.9645233154296875,0.5072927474975586
1683125726854229000,4.98722900390625,1.409341812133789,-5.944645881652832,0.5069149732589722
1683125726872073000,5.005072998046875,1.4027881622314453,-5.945051193237305,0.5065832138061523
1683125726889893600,5.0228935546875,1.395186424255371,-5.9346771240234375,0.5072051286697388
1683125726907752700,5.040752685546875,1.3947649002075195,-5.923252105712891,0.5026821494102478
1683125726925584600,5.058584716796875,1.396444320678711,-5.915796279907227,0.5017799735069275
1683125726943428900,5.076428955078125,1.3894453048706055,-5.9154486656188965,0.5011422634124756
1683125726961263600,5.094263671875,1.3797187805175781,-5.9033355712890625,0.5021784901618958
1683125726979103000,5.11210302734375,1.369802474975586,-5.892906665802002,0.5049347877502441
1683125726996940500,5.1299404296875,1.3777961730957031,-5.887770175933838,0.5034347772598267
1683125727014779600,5.147779541015625,1.367391586303711,-5.873841762542725,0.4962689280509949
1683125727032617000,5.165616943359375,1.3599624633789062,-5.86362361907959,0.501858651638031
1683125727050456600,5.18345654296875,1.3451299667358398,-5.853608131408691,0.49858948588371277
1683125727068291000,5.201291015625,1.3515758514404297,-5.846325397491455,0.49941009283065796
1683125727086136000,5.219135986328125,1.3470516204833984,-5.835247993469238,0.496908575296402
1683125727103959300,5.236959228515625,1.3429622650146484,-5.832831859588623,0.4986252188682556
1683125727121798000,5.2547978515625,1.343806266784668,-5.819947242736816,0.4943206012248993
1683125727139649300,5.272649169921875,1.3368806838989258,-5.808229446411133,0.49708986282348633
1683125727157486300,5.290486328125,1.3198509216308594,-5.811823844909668,0.49175769090652466
1683125727175321300,5.3083212890625,1.320012092590332,-5.798392295837402,0.4889581501483917
1683125727193161700,5.32616162109375,1.3075199127197266,-5.789093017578125,0.4945504665374756
1683125727211003600,5.344003662109375,1.3032608032226562,-5.780604362487793,0.4922560751438141
1683125727228840000,5.36183984375,1.3060483932495117,-5.775752544403076,0.4939016103744507
1683125727246677000,5.379677001953125,1.295527458190918,-5.768270015716553,0.486288458108902
1683125727264516600,5.3975166015625,1.2938690185546875,-5.76270866394043,0.49122852087020874
1683125727282346000,5.415345947265625,1.2854986190795898,-5.755886077880859,0.4931647479534149
1683125727300192300,5.433192138671875,1.281813621520996,-5.74632453918457,0.48818880319595337
1683125727318031600,5.451031494140625,1.2712202072143555,-5.734501838684082,0.4880653917789459
1683125727335869700,5.46886962890625,1.2679367065429688,-5.722157001495361,0.4876232147216797
1683125727353707800,5.486707763671875,1.2670068740844727,-5.714052200317383,0.4871290326118469
1683125727371547000,5.504546875,1.2615346908569336,-5.706138610839844,0.48349684476852417
1683125727389383700,5.5223837890625,1.2604598999023438,-5.700918197631836,0.4802735149860382
1683125727407214800,5.54021484375,1.2470159530639648,-5.689650535583496,0.4834286868572235
1683125727425056300,5.55805615234375,1.2445201873779297,-5.672863483428955,0.47860339283943176
1683125727442900500,5.575900390625,1.2407703399658203,-5.6669697761535645,0.4820643961429596
1683125727460736800,5.59373681640625,1.2433719635009766,-5.661921501159668,0.47892245650291443
1683125727478577700,5.61157763671875,1.2373905181884766,-5.652063846588135,0.47637492418289185
1683125727496409600,5.62940966796875,1.2274808883666992,-5.648683071136475,0.47889840602874756
1683125727514253600,5.647253662109375,1.219569206237793,-5.631514072418213,0.480385959148407
1683125727532081000,5.665080810546875,1.2180261611938477,-5.624534606933594,0.47901052236557007
1683125727549937000,5.68293701171875,1.2124242782592773,-5.610316276550293,0.4771714210510254
1683125727567752000,5.700751953125,1.2009172439575195,-5.610729217529297,0.4789968729019165
1683125727585602800,5.718602783203125,1.2027368545532227,-5.603878498077393,0.47756385803222656
1683125727603448600,5.736448486328125,1.1916284561157227,-5.595989227294922,0.4787397086620331
1683125727621282600,5.754282470703125,1.1915225982666016,-5.584112644195557,0.47476476430892944
1683125727639122200,5.7721220703125,1.187758445739746,-5.576053142547607,0.47627872228622437
1683125727656958500,5.78995849609375,1.1775245666503906,-5.562146186828613,0.4693411588668823
1683125727674797600,5.807797607421875,1.1745710372924805,-5.560173034667969,0.46864020824432373
1683125727692636400,5.825636474609375,1.1703910827636719,-5.554015636444092,0.4691369831562042
1683125727710475800,5.843475830078125,1.1716184616088867,-5.5396504402160645,0.46721330285072327
1683125727728313900,5.86131396484375,1.1639537811279297,-5.5305070877075195,0.47691765427589417
1683125727746146300,5.879146240234375,1.159402847290039,-5.527464389801025,0.46786007285118103
1683125727763987000,5.896987060546875,1.151336669921875,-5.514583587646484,0.46882522106170654
1683125727781822500,5.914822509765625,1.1391029357910156,-5.5072479248046875,0.4699113070964813
1683125727799667500,5.93266748046875,1.1413764953613281,-5.494239330291748,0.46968185901641846
1683125727817500200,5.950500244140625,1.1382951736450195,-5.487811088562012,0.46890321373939514
1683125727835344100,5.96834423828125,1.1357851028442383,-5.478855133056641,0.4607282280921936
1683125727853181200,5.98618115234375,1.1301517486572266,-5.47517204284668,0.4649396538734436
1683125727871019800,6.004019775390625,1.118865966796875,-5.4682135581970215,0.46056878566741943
1683125727888847400,6.021847412109375,1.1134490966796875,-5.457892417907715,0.4615539014339447
1683125727906697200,6.039697265625,1.119903564453125,-5.4436564445495605,0.4557059109210968
1683125727924535300,6.057535400390625,1.1095027923583984,-5.430002212524414,0.46347904205322266
1683125727942373000,6.075373046875,1.101776123046875,-5.427585601806641,0.4581064283847809
1683125727960212700,6.093212646484375,1.0981969833374023,-5.4131622314453125,0.45842602849006653
1683125727978054000,6.111053955078125,1.0895118713378906,-5.404239177703857,0.4559878706932068
1683125727995888000,6.12888818359375,1.0873346328735352,-5.395179748535156,0.4542800188064575
1683125728013727700,6.146727783203125,1.0871143341064453,-5.390585899353027,0.4505022168159485
1683125728031565000,6.16456494140625,1.0734119415283203,-5.380766868591309,0.4568842649459839
1683125728049405000,6.182405029296875,1.076181411743164,-5.37551736831665,0.4559488296508789
1683125728067237000,6.200237060546875,1.0712451934814453,-5.361356735229492,0.45522499084472656
1683125728085081300,6.218081298828125,1.0693368911743164,-5.346869468688965,0.451047420501709
1683125728102918700,6.235918701171875,1.0587787628173828,-5.348104476928711,0.4497717022895813
1683125728120757800,6.2537578125,1.0512008666992188,-5.333049774169922,0.44620293378829956
1683125728138595300,6.27159521484375,1.0558147430419922,-5.326954364776611,0.4499756097793579
1683125728156434700,6.2894345703125,1.0506515502929688,-5.318450450897217,0.44596078991889954
1683125728174272000,6.30727197265625,1.0431184768676758,-5.312526226043701,0.4439242482185364
1683125728192103200,6.325103271484375,1.0464658737182617,-5.301637649536133,0.4488716721534729
1683125728209949700,6.34294970703125,1.0373916625976562,-5.296337127685547,0.44622886180877686
1683125728227785500,6.360785400390625,1.0276622772216797,-5.281098365783691,0.44281071424484253
1683125728245628200,6.378628173828125,1.0184803009033203,-5.270669937133789,0.4496510624885559
1683125728263463700,6.396463623046875,1.0156068801879883,-5.270930290222168,0.4484260678291321
1683125728281303600,6.414303466796875,1.0136680603027344,-5.261352062225342,0.4373270273208618
1683125728299142000,6.432141845703125,1.0107841491699219,-5.245718955993652,0.44048982858657837
1683125728316979200,6.449979248046875,1.0085430145263672,-5.237680435180664,0.44136542081832886
1683125728334802700,6.467802734375,1.0019779205322266,-5.2270188331604,0.43997830152511597
1683125728352653000,6.485653076171875,0.9934177398681641,-5.218798637390137,0.4413043260574341
1683125728370498300,6.503498291015625,0.9916858673095703,-5.210666656494141,0.44637560844421387
1683125728388332800,6.521332763671875,0.9908113479614258,-5.196871757507324,0.44084498286247253
1683125728406171400,6.53917138671875,0.9744882583618164,-5.183746814727783,0.44026026129722595
1683125728423996200,6.55699609375,0.9739160537719727,-5.185692310333252,0.43690258264541626
1683125728441839600,6.574839599609375,0.9699344635009766,-5.174795150756836,0.4364835321903229
1683125728459686700,6.592686767578125,0.9722185134887695,-5.161880016326904,0.4395386576652527
1683125728477522200,6.610522216796875,0.9606733322143555,-5.1527228355407715,0.4348409175872803
1683125728495353900,6.628353759765625,0.959162712097168,-5.1402974128723145,0.43064436316490173
1683125728513202200,6.6462021484375,0.9514274597167969,-5.131414413452148,0.43542420864105225
1683125728531041000,6.664041015625,0.953343391418457,-5.127678871154785,0.4271242320537567
1683125728548867800,6.681867919921875,0.948399543762207,-5.117256164550781,0.43060725927352905
1683125728566716700,6.699716552734375,0.9433603286743164,-5.107258319854736,0.44161689281463623
1683125728584548000,6.717548095703125,0.9347429275512695,-5.105563163757324,0.4256554841995239
1683125728602396000,6.73539599609375,0.9348039627075195,-5.0976243019104,0.4265659749507904
1683125728620232700,6.753232666015625,0.9303655624389648,-5.078979969024658,0.4255636930465698
1683125728638067500,6.7710673828125,0.9229793548583984,-5.077052116394043,0.4226716160774231
1683125728655900400,6.788900390625,0.9179067611694336,-5.056923866271973,0.42715156078338623
1683125728673731000,6.80673095703125,0.9152536392211914,-5.057335376739502,0.4279307723045349
1683125728691586600,6.824586669921875,0.9149818420410156,-5.048455238342285,0.4218888282775879
1683125728709423400,6.84242333984375,0.9101591110229492,-5.035517692565918,0.4196680784225464
1683125728727263000,6.860262939453125,0.9018487930297852,-5.0284810066223145,0.4221920371055603
1683125728745100000,6.87810009765625,0.8941593170166016,-5.020040035247803,0.4192492365837097
1683125728762939600,6.895939697265625,0.8954257965087891,-5.00954532623291,0.42048871517181396
1683125728780765400,6.913765380859375,0.8880186080932617,-4.996722221374512,0.4190129041671753
1683125728798616600,6.931616455078125,0.8811511993408203,-4.9888739585876465,0.4223172664642334
1683125728816454000,6.949453857421875,0.8835916519165039,-4.984933853149414,0.42017078399658203
1683125728834289000,6.967288818359375,0.8774642944335938,-4.973204135894775,0.41443145275115967
1683125728852130800,6.985130859375,0.860997200012207,-4.967381000518799,0.42202454805374146
1683125728869966300,7.00296630859375,0.8661870956420898,-4.9549760818481445,0.4198918342590332
1683125728887811300,7.020811279296875,0.8623638153076172,-4.944573402404785,0.4244864583015442
1683125728905642000,7.03864208984375,0.8526754379272461,-4.938035011291504,0.41771525144577026
1683125728923484400,7.056484375,0.8486213684082031,-4.925867557525635,0.41647785902023315
1683125728941324000,7.074323974609375,0.8435754776000977,-4.915623188018799,0.4107891023159027
1683125728959161300,7.092161376953125,0.837428092956543,-4.914632320404053,0.4121113419532776
1683125728976989200,7.1099892578125,0.8381576538085938,-4.901915550231934,0.41762781143188477
1683125728994838000,7.127838134765625,0.8381423950195312,-4.892482757568359,0.41463202238082886
1683125729012677400,7.145677490234375,0.8284835815429688,-4.888776779174805,0.41171038150787354
1683125729030514400,7.163514404296875,0.8323125839233398,-4.877828121185303,0.4150542616844177
1683125729048354000,7.18135400390625,0.8231601715087891,-4.861973285675049,0.4108637273311615
1683125729066191400,7.19919140625,0.8218975067138672,-4.85032844543457,0.4090174436569214
1683125729084026600,7.217026611328125,0.8204412460327148,-4.846447467803955,0.4080779552459717
1683125729101868300,7.234868408203125,0.8144445419311523,-4.842846870422363,0.40503227710723877
1683125729119707600,7.252707763671875,0.8162717819213867,-4.828084468841553,0.4048232436180115
1683125729137545000,7.270544921875,0.8027935028076172,-4.81702184677124,0.4072776436805725
1683125729155379700,7.288379638671875,0.7987823486328125,-4.81758975982666,0.40272417664527893
1683125729173222000,7.306221923828125,0.7957305908203125,-4.808490753173828,0.40422841906547546
1683125729191061500,7.3240615234375,0.7898025512695312,-4.799198150634766,0.40105387568473816
1683125729208898800,7.34189892578125,0.7873220443725586,-4.783695220947266,0.40687495470046997
1683125729226733600,7.359733642578125,0.7851772308349609,-4.767632007598877,0.4052038788795471
1683125729244575500,7.377575439453125,0.7806510925292969,-4.7709059715271,0.4038292467594147
1683125729262415000,7.3954150390625,0.7696075439453125,-4.75845193862915,0.4015900492668152
1683125729280251100,7.413251220703125,0.7664299011230469,-4.744052886962891,0.3953685760498047
1683125729298093000,7.431093017578125,0.7702474594116211,-4.735843658447266,0.39928245544433594
1683125729315917000,7.4489169921875,0.7658109664916992,-4.7299485206604,0.39579421281814575
1683125729333768700,7.466768798828125,0.7690677642822266,-4.720702648162842,0.3971560597419739
1683125729351606300,7.484606201171875,0.7587490081787109,-4.705040454864502,0.39666613936424255
1683125729369444900,7.50244482421875,0.7566967010498047,-4.698864459991455,0.39249110221862793
1683125729387284000,7.520283935546875,0.7475194931030273,-4.69526481628418,0.3920575678348541
1683125729405122000,7.5381220703125,0.7497091293334961,-4.683683395385742,0.3970409333705902
1683125729422947600,7.555947509765625,0.734649658203125,-4.671759128570557,0.39633360505104065
1683125729440798700,7.573798828125,0.7272005081176758,-4.662864685058594,0.39509591460227966
1683125729458636500,7.591636474609375,0.7250385284423828,-4.65363073348999,0.3901742100715637
1683125729476468000,7.609468017578125,0.7218656539916992,-4.63861608505249,0.3971705436706543
1683125729494304300,7.62730419921875,0.7258157730102539,-4.634214878082275,0.3903721570968628
1683125729512152800,7.64515283203125,0.7174596786499023,-4.633065223693848,0.38720405101776123
1683125729529990000,7.662989990234375,0.7166423797607422,-4.617936611175537,0.3904899060726166
1683125729547824600,7.68082470703125,0.7110891342163086,-4.608023643493652,0.38285762071609497
1683125729565655000,7.698655029296875,0.7083835601806641,-4.601201057434082,0.384908527135849
1683125729583506400,7.71650634765625,0.7041540145874023,-4.588713645935059,0.3879387378692627
1683125729601342700,7.7343427734375,0.7032680511474609,-4.589811325073242,0.37943214178085327
1683125729619181600,7.752181640625,0.6976423263549805,-4.571747303009033,0.37845659255981445
1683125729637011200,7.77001123046875,0.692082405090332,-4.5670976638793945,0.3835047483444214
1683125729654859800,7.78785986328125,0.6827831268310547,-4.55861759185791,0.38677409291267395
1683125729672697300,7.805697265625,0.6871318817138672,-4.544874668121338,0.38172900676727295
1683125729690536700,7.82353662109375,0.6787242889404297,-4.5394816398620605,0.3784826993942261
1683125729708365600,7.841365478515625,0.6819257736206055,-4.519955158233643,0.3761271834373474
1683125729726212600,7.859212646484375,0.6703081130981445,-4.520438194274902,0.37819528579711914
1683125729744048000,7.877048095703125,0.6728334426879883,-4.516505241394043,0.3722308874130249
1683125729761890600,7.894890625,0.6697397232055664,-4.505960941314697,0.3743840456008911
1683125729779718000,7.9127177734375,0.6596832275390625,-4.491837501525879,0.37095361948013306
1683125729797562400,7.930562255859375,0.6607284545898438,-4.484755516052246,0.37572866678237915
1683125729815400700,7.948400634765625,0.6632966995239258,-4.474696159362793,0.37167295813560486
1683125729833247700,7.966247802734375,0.6567897796630859,-4.464654445648193,0.3665105998516083
1683125729851081200,7.984081298828125,0.6523027420043945,-4.456789970397949,0.37167292833328247
1683125729868918500,8.00191845703125,0.6522903442382812,-4.444889068603516,0.36804407835006714
1683125729886758100,8.019758056640624,0.640528678894043,-4.432863235473633,0.37444978952407837
1683125729904600800,8.037600830078125,0.6401004791259766,-4.42791748046875,0.37186965346336365
1683125729922422500,8.055422607421875,0.6404275894165039,-4.424373149871826,0.36637869477272034
1683125729940259800,8.073259765625,0.6367654800415039,-4.408506870269775,0.36904245615005493
1683125729958112000,8.091112060546875,0.6306924819946289,-4.396589279174805,0.36489662528038025
1683125729975948500,8.108948486328124,0.6271390914916992,-4.3928141593933105,0.36268293857574463
1683125729993780200,8.1267802734375,0.6192178726196289,-4.385993957519531,0.37346985936164856
1683125730011628500,8.144628662109374,0.6170654296875,-4.371304035186768,0.36670833826065063
1683125730029464800,8.16246484375,0.6126480102539062,-4.3624982833862305,0.3648013770580292
1683125730047306000,8.180305908203126,0.6050167083740234,-4.3543243408203125,0.3679129183292389
1683125730065138200,8.19813818359375,0.6032142639160156,-4.349620819091797,0.3601507544517517
1683125730082982400,8.215982421875,0.6044826507568359,-4.339447975158691,0.35929805040359497
1683125730100816600,8.233816650390626,0.6059970855712891,-4.327191352844238,0.35827523469924927
1683125730118662100,8.251662109375,0.5963001251220703,-4.318453311920166,0.35900062322616577
1683125730136496000,8.26949609375,0.5939264297485352,-4.310009002685547,0.3535742163658142
1683125730154335700,8.287335693359376,0.5872898101806641,-4.301246643066406,0.3546479344367981
1683125730172161300,8.305161376953125,0.5890655517578125,-4.290131568908691,0.3579022288322449
1683125730190009900,8.323009765625,0.5798301696777344,-4.283616542816162,0.3580147624015808
1683125730207851500,8.3408515625,0.585261344909668,-4.278845310211182,0.354860782623291
1683125730225689900,8.35868994140625,0.5776376724243164,-4.268033027648926,0.35254913568496704
1683125730243526000,8.37652587890625,0.5729608535766602,-4.256275653839111,0.3535360097885132
1683125730261367800,8.394367919921875,0.5702152252197266,-4.248061180114746,0.35541391372680664
1683125730279192000,8.412192138671875,0.5708217620849609,-4.2453155517578125,0.3501296043395996
1683125730297043000,8.43004296875,0.5666465759277344,-4.235562801361084,0.3568732738494873
1683125730314880800,8.447880859375,0.5609273910522461,-4.224567890167236,0.3566044569015503
1683125730332719900,8.465719970703125,0.5540132522583008,-4.2173686027526855,0.3588792681694031
1683125730350557400,8.483557373046875,0.5659275054931641,-4.2026753425598145,0.3519335985183716
1683125730368397300,8.501397216796875,0.5447988510131836,-4.192326545715332,0.3563295006752014
1683125730386234000,8.519234130859376,0.5467863082885742,-4.198277473449707,0.3596913516521454
1683125730404074000,8.537073974609376,0.5402603149414062,-4.178350448608398,0.3577384352684021
1683125730421911300,8.554911376953125,0.547083854675293,-4.17404317855835,0.34180009365081787
1683125730439751000,8.5727509765625,0.5314559936523438,-4.165939807891846,0.34324419498443604
1683125730457588500,8.59058837890625,0.5439739227294922,-4.153102874755859,0.34409719705581665
1683125730475427800,8.608427734375,0.5323152542114258,-4.145270347595215,0.3527464270591736
1683125730493265200,8.62626513671875,0.5253171920776367,-4.137294292449951,0.34065911173820496
1683125730511104500,8.6441044921875,0.524785041809082,-4.12267541885376,0.3348129093647003
1683125730528941800,8.66194189453125,0.5234136581420898,-4.119368553161621,0.3407340347766876
1683125730546776600,8.679776611328125,0.5104570388793945,-4.108431339263916,0.3444078266620636
1683125730564615400,8.697615478515624,0.5179481506347656,-4.100902080535889,0.34602445363998413
1683125730582458600,8.715458740234375,0.5114097595214844,-4.094234943389893,0.34051913022994995
1683125730600295700,8.733295654296874,0.5141515731811523,-4.082612991333008,0.3443458080291748
1683125730618135000,8.751135009765624,0.5046863555908203,-4.072186470031738,0.3348655104637146
1683125730635968000,8.768968017578125,0.5076026916503906,-4.064957141876221,0.336917906999588
1683125730653816300,8.78681640625,0.5002374649047852,-4.062372207641602,0.33996453881263733
1683125730671649500,8.8046494140625,0.49587535858154297,-4.048489570617676,0.3324058949947357
1683125730689488000,8.82248779296875,0.49193763732910156,-4.0405354499816895,0.33942848443984985
1683125730707327200,8.8403271484375,0.48557567596435547,-4.029319763183594,0.3392864167690277
1683125730725166000,8.858166015625,0.48439693450927734,-4.029416084289551,0.3372291326522827
1683125730743003100,8.876003173828124,0.48532676696777344,-4.011657238006592,0.33470234274864197
1683125730760840700,8.8938408203125,0.4825010299682617,-4.00569486618042,0.33017003536224365
1683125730778682600,8.9116826171875,0.4776029586791992,-3.9935131072998047,0.3310422897338867
1683125730796519700,8.929519775390625,0.4793252944946289,-3.986909866333008,0.3334551751613617
1683125730814357200,8.947357177734375,0.47386837005615234,-3.9781970977783203,0.3347911834716797
1683125730832196600,8.965196533203125,0.4702119827270508,-3.97040057182312,0.33085572719573975
1683125730850034000,8.983033935546874,0.4725761413574219,-3.9607646465301514,0.328687846660614
1683125730867867000,9.000866943359375,0.4673337936401367,-3.9577620029449463,0.3279457986354828
1683125730885706200,9.018706298828125,0.456207275390625,-3.946988821029663,0.3273733854293823
1683125730903550000,9.036550048828126,0.4558544158935547,-3.933537483215332,0.3263445496559143
1683125730921387500,9.054387451171875,0.4545278549194336,-3.930130958557129,0.32409125566482544
1683125730939227100,9.07222705078125,0.4501371383666992,-3.9238433837890625,0.327434241771698
1683125730957064400,9.090064453125,0.45051002502441406,-3.912489891052246,0.3244788646697998
1683125730974904000,9.107904052734375,0.44292354583740234,-3.899303913116455,0.32561245560646057
1683125730992741400,9.125741455078124,0.4448385238647461,-3.895766258239746,0.32127276062965393
1683125731010580000,9.143580078125,0.44019603729248047,-3.881185531616211,0.319392591714859
1683125731028419300,9.16141943359375,0.4384288787841797,-3.8769850730895996,0.3268495202064514
1683125731046258000,9.1792578125,0.44138336181640625,-3.866945266723633,0.3164995312690735
1683125731064095000,9.197094970703125,0.4421873092651367,-3.8581180572509766,0.32886427640914917
1683125731081938700,9.214938720703126,0.4206886291503906,-3.850048542022705,0.3159415125846863
1683125731099770600,9.2327705078125,0.42467498779296875,-3.843216896057129,0.32091930508613586
1683125731117611800,9.25061181640625,0.4305715560913086,-3.833085536956787,0.31692636013031006
1683125731135444200,9.2684443359375,0.4156045913696289,-3.8225109577178955,0.31987109780311584
1683125731153298000,9.2862978515625,0.4130592346191406,-3.8177566528320312,0.3176990747451782
1683125731171126300,9.304126220703125,0.41223907470703125,-3.8074183464050293,0.3166557550430298
1683125731188962800,9.321962890625,0.4181690216064453,-3.8016300201416016,0.3166540265083313
1683125731206801000,9.33980078125,0.4113960266113281,-3.791120767593384,0.30319124460220337
1683125731224641500,9.3576416015625,0.41280460357666016,-3.7766761779785156,0.32199227809906006
1683125731242480600,9.375480712890624,0.404510498046875,-3.7706246376037598,0.31408363580703735
1683125731260318200,9.393318115234376,0.3979454040527344,-3.762617588043213,0.31481122970581055
1683125731278157600,9.411157470703126,0.4016427993774414,-3.757664442062378,0.3138544261455536
1683125731295996400,9.428996337890625,0.40392208099365234,-3.7515852451324463,0.3131778836250305
1683125731313833200,9.446833251953125,0.3875102996826172,-3.740975856781006,0.31314125657081604
1683125731331671800,9.464671875,0.3947019577026367,-3.728785753250122,0.3074875771999359
1683125731349510700,9.4825107421875,0.39008045196533203,-3.7216358184814453,0.3082677125930786
1683125731367350500,9.5003505859375,0.39748382568359375,-3.7089884281158447,0.30488091707229614
1683125731385187300,9.518187255859376,0.3869295120239258,-3.6986262798309326,0.3109949231147766
1683125731403027000,9.53602685546875,0.38275909423828125,-3.6975600719451904,0.30780327320098877
1683125731420864500,9.553864501953125,0.38108158111572266,-3.6921749114990234,0.3072252571582794
1683125731438703600,9.57170361328125,0.37736034393310547,-3.6853175163269043,0.3039035201072693
1683125731456541400,9.58954150390625,0.37094688415527344,-3.675023078918457,0.30738189816474915
1683125731474380800,9.607380859375,0.3662109375,-3.6669774055480957,0.30190804600715637
1683125731492217900,9.6252177734375,0.3641166687011719,-3.661496162414551,0.29689037799835205
1683125731510057700,9.6430576171875,0.3604412078857422,-3.655585765838623,0.3037072420120239
1683125731527890200,9.66089013671875,0.3653221130371094,-3.64294695854187,0.3034968972206116
1683125731545734700,9.678734619140625,0.35817909240722656,-3.6333837509155273,0.30235525965690613
1683125731563571700,9.69657177734375,0.36751270294189453,-3.6221835613250732,0.29727545380592346
1683125731581410300,9.714410400390625,0.3614788055419922,-3.616354465484619,0.30164021253585815
1683125731599250200,9.732250244140625,0.3602323532104492,-3.6046202182769775,0.3022419214248657
1683125731617085700,9.750085693359376,0.35991764068603516,-3.603055715560913,0.29677146673202515
1683125731634914600,9.76791455078125,0.3484306335449219,-3.5862817764282227,0.29464486241340637
1683125731652767000,9.78576708984375,0.3491525650024414,-3.583977460861206,0.29572153091430664
1683125731670603500,9.803603515625,0.3536653518676758,-3.575077772140503,0.29045382142066956
1683125731688440800,9.82144091796875,0.3388023376464844,-3.5632452964782715,0.29889482259750366
1683125731706280200,9.8392802734375,0.3368387222290039,-3.560992479324341,0.2974497675895691
1683125731724119000,9.857119140625,0.33481597900390625,-3.5517547130584717,0.29466891288757324
1683125731741956400,9.874956298828126,0.3363227844238281,-3.545597791671753,0.29518359899520874
1683125731759796000,9.8927958984375,0.33565711975097656,-3.5348916053771973,0.28802555799484253
1683125731777633000,9.910633056640625,0.3324899673461914,-3.5312304496765137,0.29453593492507935
1683125731795473000,9.928472900390625,0.32683849334716797,-3.522151470184326,0.2930968999862671
1683125731813310500,9.946310546875,0.3220634460449219,-3.517129421234131,0.29172366857528687
1683125731831138000,9.964137939453124,0.32353687286376953,-3.507542610168457,0.290672242641449
1683125731848987100,9.981987060546874,0.3231334686279297,-3.496434211730957,0.28625673055648804
1683125731866826500,9.999826416015624,0.3213939666748047,-3.483330011367798,0.288415789604187
1683125731884664000,10.0176640625,0.31911754608154297,-3.4794845581054688,0.293601393699646
1683125731902502700,10.035502685546875,0.31338977813720703,-3.469787836074829,0.2922919988632202
1683125731920342300,10.05334228515625,0.31026458740234375,-3.460386276245117,0.28550779819488525
1683125731938180600,10.0711806640625,0.30704593658447266,-3.4517314434051514,0.2900475263595581
1683125731956018000,10.089017822265625,0.3082389831542969,-3.447474718093872,0.29018861055374146
1683125731973857300,10.106857177734375,0.3044614791870117,-3.4390053749084473,0.2861398756504059
1683125731991694600,10.124694580078126,0.30810070037841797,-3.4317073822021484,0.2822921574115753
1683125732009533400,10.142533447265626,0.3055858612060547,-3.4222302436828613,0.2820854187011719
1683125732027372500,10.16037255859375,0.2980670928955078,-3.4094114303588867,0.28214097023010254
1683125732045211100,10.178211181640625,0.29705047607421875,-3.4124364852905273,0.2873280346393585
1683125732063048400,10.19604833984375,0.2904777526855469,-3.396688938140869,0.2836454510688782
1683125732080888300,10.213888427734375,0.2879362106323242,-3.3928747177124023,0.28018537163734436
1683125732098722800,10.231722900390626,0.2931976318359375,-3.383117198944092,0.2799624800682068
1683125732116568000,10.249568115234375,0.2820405960083008,-3.365478515625,0.27947255969047546
1683125732134402300,10.26740234375,0.2838306427001953,-3.364372730255127,0.2876822054386139
1683125732152242000,10.285241943359376,0.28456592559814453,-3.3527603149414062,0.27778172492980957
1683125732170079500,10.30307958984375,0.2806882858276367,-3.353933334350586,0.2720601260662079
1683125732187918600,10.320918701171875,0.2795391082763672,-3.345953941345215,0.27959102392196655
1683125732205756000,10.338755859375,0.28961658477783203,-3.337451219558716,0.2801758646965027
1683125732223596000,10.356595947265625,0.27781200408935547,-3.32684326171875,0.2787581980228424
1683125732241433300,10.374433349609374,0.266632080078125,-3.317178964614868,0.2734755873680115
1683125732259272700,10.392272705078126,0.2700643539428711,-3.3084378242492676,0.2748459577560425
1683125732277110000,10.410110107421875,0.26859188079833984,-3.297102451324463,0.2753450870513916
1683125732294945000,10.427945068359374,0.2752866744995117,-3.29353928565979,0.27632829546928406
1683125732312786700,10.44578662109375,0.26640892028808594,-3.290311574935913,0.2773436903953552
1683125732330626300,10.463626220703125,0.2714090347290039,-3.2791953086853027,0.2696274518966675
1683125732348463900,10.4814638671875,0.2567129135131836,-3.278026819229126,0.27372586727142334
1683125732366291500,10.49929150390625,0.2584848403930664,-3.2668020725250244,0.2725665271282196
1683125732384141300,10.517141357421876,0.25903797149658203,-3.2586724758148193,0.2713306248188019
1683125732401980400,10.53498046875,0.25948333740234375,-3.249488353729248,0.26572030782699585
1683125732419804200,10.55280419921875,0.25641345977783203,-3.2422962188720703,0.2688050866127014
1683125732437658400,10.570658447265625,0.2511882781982422,-3.228288173675537,0.2657530903816223
1683125732455492900,10.588492919921874,0.25243186950683594,-3.2262892723083496,0.2755601108074188
1683125732473336300,10.60633642578125,0.2494668960571289,-3.220733880996704,0.26489678025245667
1683125732491171600,10.624171630859376,0.2454662322998047,-3.2174768447875977,0.2748640179634094
1683125732509011200,10.64201123046875,0.2417459487915039,-3.2143149375915527,0.2693743109703064
1683125732526848500,10.6598486328125,0.24707698822021484,-3.1950137615203857,0.2676398754119873
1683125732544683500,10.67768359375,0.243988037109375,-3.1985597610473633,0.2694978713989258
1683125732562525200,10.695525146484375,0.23729324340820312,-3.1835274696350098,0.2648642957210541
1683125732580353300,10.713353271484374,0.23980331420898438,-3.175067901611328,0.26922622323036194
1683125732598202000,10.7312021484375,0.23246097564697266,-3.1670520305633545,0.2619716227054596
1683125732616037400,10.749037353515625,0.23145294189453125,-3.168222188949585,0.2625786364078522
1683125732633884000,10.7668837890625,0.23035144805908203,-3.1550517082214355,0.2617588937282562
1683125732651718700,10.78471875,0.23094463348388672,-3.1469271183013916,0.2624339759349823
1683125732669555000,10.802554931640625,0.22985267639160156,-3.136234998703003,0.2570336163043976
1683125732687395800,10.820395751953125,0.2232370376586914,-3.1340949535369873,0.2593748867511749
1683125732705234000,10.83823388671875,0.22853755950927734,-3.1266660690307617,0.26524055004119873
1683125732723072300,10.856072265625,0.22610950469970703,-3.113976001739502,0.26554134488105774
1683125732740908800,10.87390869140625,0.21939945220947266,-3.114328384399414,0.25674834847450256
1683125732758750700,10.891750732421874,0.20190715789794922,-3.103062629699707,0.2585494816303253
1683125732776586800,10.909586669921875,0.21631240844726562,-3.0891714096069336,0.2565626800060272
1683125732794414600,10.92741455078125,0.21263885498046875,-3.0837788581848145,0.25969380140304565
1683125732812263700,10.945263671875,0.21759033203125,-3.077568292617798,0.2523425817489624
1683125732830092000,10.963092041015624,0.2111530303955078,-3.071755886077881,0.2576485872268677
1683125732847940400,10.9809404296875,0.2122812271118164,-3.060380458831787,0.2541860342025757
1683125732865775600,10.998775634765625,0.21188640594482422,-3.061270236968994,0.2512950599193573
1683125732883618000,11.0166181640625,0.2097339630126953,-3.0498154163360596,0.25874149799346924
1683125732901457400,11.03445751953125,0.20404720306396484,-3.0378243923187256,0.251996785402298
1683125732919294500,11.05229443359375,0.1947031021118164,-3.038689136505127,0.25955432653427124
1683125732937129500,11.07012939453125,0.20331382751464844,-3.0338075160980225,0.2515334188938141
1683125732954971400,11.087971435546875,0.20755481719970703,-3.023930311203003,0.25424924492836
1683125732972810200,11.105810302734374,0.19822406768798828,-3.0160598754882812,0.248096764087677
1683125732990646800,11.123646728515626,0.1976022720336914,-3.0084738731384277,0.2514382600784302
1683125733008490200,11.141490234375,0.19547080993652344,-3.0055761337280273,0.2476312220096588
1683125733026325500,11.159325439453125,0.18980884552001953,-2.9940383434295654,0.24416999518871307
1683125733044165000,11.1771650390625,0.1841287612915039,-2.987467050552368,0.24675297737121582
1683125733061999400,11.194999267578124,0.19526004791259766,-2.976480484008789,0.24129463732242584
1683125733079844900,11.212844970703125,0.18670654296875,-2.971867561340332,0.24060237407684326
1683125733097679400,11.230679443359374,0.19198131561279297,-2.961611032485962,0.24093008041381836
1683125733115518700,11.248518798828124,0.1850442886352539,-2.959573268890381,0.2419300079345703
1683125733133356000,11.26635595703125,0.1839885711669922,-2.951437473297119,0.23968861997127533
1683125733151194000,11.284194091796875,0.18615150451660156,-2.9410157203674316,0.2495644986629486
1683125733169034200,11.3020341796875,0.1847677230834961,-2.9405674934387207,0.2473229169845581
1683125733186868000,11.319867919921874,0.17848873138427734,-2.928492546081543,0.24646039307117462
1683125733204710000,11.3377099609375,0.18241500854492188,-2.915686845779419,0.24209856986999512
1683125733222549200,11.35554931640625,0.17761707305908203,-2.9177284240722656,0.23833325505256653
1683125733240387000,11.373386962890624,0.17869091033935547,-2.9092321395874023,0.24059265851974487
1683125733258226700,11.391226806640624,0.17765522003173828,-2.8991246223449707,0.24364230036735535
1683125733276063700,11.409063720703125,0.1777486801147461,-2.8944876194000244,0.23944546282291412
1683125733293896400,11.426896484375,0.16469383239746094,-2.8947391510009766,0.23988905549049377
1683125733311739400,11.444739501953125,0.1649942398071289,-2.88504958152771,0.23951296508312225
1683125733329580800,11.462580810546875,0.16541767120361328,-2.8736255168914795,0.24036595225334167
1683125733347418600,11.480418701171875,0.1717205047607422,-2.8665225505828857,0.23955383896827698
1683125733365255000,11.4982548828125,0.1614227294921875,-2.8633761405944824,0.23927709460258484
1683125733383093500,11.516093505859375,0.1680154800415039,-2.8499820232391357,0.23259767889976501
1683125733400935700,11.533935791015624,0.15861797332763672,-2.8412420749664307,0.23833756148815155
1683125733418771000,11.55177099609375,0.15702247619628906,-2.841883420944214,0.23964746296405792
1683125733436611000,11.569611083984375,0.15490150451660156,-2.8327479362487793,0.23068036139011383
1683125733454448600,11.58744873046875,0.15083026885986328,-2.827813148498535,0.2341674268245697
1683125733472288300,11.605288330078125,0.14867591857910156,-2.8235316276550293,0.22932973504066467
1683125733490125300,11.623125244140626,0.15406513214111328,-2.810879707336426,0.2337341159582138
1683125733507965000,11.64096484375,0.150848388671875,-2.8070497512817383,0.22880731523036957
1683125733525802200,11.65880224609375,0.14810466766357422,-2.7948031425476074,0.2300598919391632
1683125733543641900,11.676641845703125,0.1471395492553711,-2.7915127277374268,0.2285955548286438
1683125733561479400,11.6944794921875,0.1502084732055664,-2.7894811630249023,0.22489213943481445
1683125733579318800,11.71231884765625,0.1438159942626953,-2.7790393829345703,0.23000052571296692
1683125733597156000,11.730156005859374,0.1494140625,-2.7688610553741455,0.2289343774318695
1683125733614995700,11.74799560546875,0.14690017700195312,-2.7610411643981934,0.22990253567695618
1683125733632831700,11.765831787109375,0.13785648345947266,-2.7555270195007324,0.23224644362926483
1683125733650673700,11.783673583984376,0.14606094360351562,-2.7516367435455322,0.22709645330905914
1683125733668510000,11.801510009765625,0.13539695739746094,-2.741184711456299,0.22491005063056946
1683125733686349600,11.819349609375,0.13640594482421875,-2.7388336658477783,0.2324753999710083
1683125733704182500,11.8371826171875,0.14105796813964844,-2.726867914199829,0.22769230604171753
1683125733722026200,11.855026123046875,0.13410568237304688,-2.7200074195861816,0.22240643203258514
1683125733739862800,11.87286279296875,0.13481616973876953,-2.717250347137451,0.22789247334003448
1683125733757703200,11.890703125,0.1356182098388672,-2.7027382850646973,0.22579650580883026
1683125733775538000,11.908537841796875,0.13390445709228516,-2.6986021995544434,0.22513535618782043
1683125733793382700,11.926382568359376,0.13722610473632812,-2.7014241218566895,0.21772640943527222
1683125733811217700,11.9442177734375,0.13535404205322266,-2.6888113021850586,0.21655093133449554
1683125733829052200,11.96205224609375,0.13057899475097656,-2.6815080642700195,0.22651393711566925
1683125733846895400,11.979895263671875,0.12440109252929688,-2.6773858070373535,0.2217610627412796
1683125733864738300,11.99773828125,0.13694477081298828,-2.6752572059631348,0.21895389258861542
1683125733882571500,12.015571533203126,0.11953544616699219,-2.6583170890808105,0.21869565546512604
1683125733900411000,12.033410888671876,0.12096118927001953,-2.6515636444091797,0.2165556102991104
1683125733918248200,12.051248291015625,0.12010669708251953,-2.6460623741149902,0.22105568647384644
1683125733936087800,12.069087890625,0.12038707733154297,-2.6382029056549072,0.21323691308498383
1683125733953921800,12.086921875,0.12326812744140625,-2.637906551361084,0.21574679017066956
1683125733971765000,12.104764892578125,0.1278533935546875,-2.6234636306762695,0.2188345491886139
1683125733989599700,12.122599853515625,0.1273059844970703,-2.623526096343994,0.2134466916322708
1683125734007444700,12.14044482421875,0.12259578704833984,-2.6183555126190186,0.21356357634067535
1683125734025273300,12.1582734375,0.12049388885498047,-2.615767002105713,0.2140032798051834
1683125734043120000,12.1761201171875,0.11034488677978516,-2.604858160018921,0.2155248373746872
1683125734060953000,12.193953125,0.12177276611328125,-2.5972609519958496,0.21319440007209778
1683125734078798300,12.21179833984375,0.10968589782714844,-2.5934853553771973,0.21377180516719818
1683125734096633000,12.229633056640624,0.10269927978515625,-2.5870859622955322,0.21127890050411224
1683125734114472400,12.247472412109374,0.10185718536376953,-2.583803653717041,0.21105848252773285
1683125734132309800,12.265309814453126,0.11536026000976562,-2.572756290435791,0.20555661618709564
1683125734150149600,12.283149658203126,0.10949993133544922,-2.5650551319122314,0.2121403068304062
1683125734167986700,12.300986572265625,0.10901069641113281,-2.5555968284606934,0.20858438313007355
1683125734185826600,12.31882666015625,0.11246395111083984,-2.552272319793701,0.20877130329608917
1683125734203664000,12.336663818359375,0.10567951202392578,-2.5482571125030518,0.20283319056034088
1683125734221503500,12.35450341796875,0.10332775115966797,-2.541649341583252,0.21105781197547913
1683125734239340500,12.372340576171876,0.10311603546142578,-2.530536413192749,0.21696563065052032
1683125734257180400,12.390180419921874,0.09760761260986328,-2.5335779190063477,0.2060377597808838
1683125734275012900,12.408012939453124,0.0919790267944336,-2.523298978805542,0.20269693434238434
1683125734292850400,12.425850341796876,0.10174942016601562,-2.515610694885254,0.20361541211605072
1683125734310694400,12.4436943359375,0.09282398223876953,-2.5121052265167236,0.20468361675739288
1683125734328535600,12.46153564453125,0.09231185913085938,-2.510190010070801,0.20489542186260223
1683125734346366700,12.47936669921875,0.09647750854492188,-2.4987704753875732,0.2057631015777588
1683125734364210700,12.497210693359374,0.09319114685058594,-2.48199200630188,0.19840951263904572
1683125734382048300,12.51504833984375,0.08830642700195312,-2.4831902980804443,0.20249830186367035
1683125734399886800,12.532886962890625,0.09051036834716797,-2.4718968868255615,0.1970570683479309
1683125734417726500,12.5507265625,0.08995246887207031,-2.4675402641296387,0.20371076464653015
1683125734435564800,12.568564697265625,0.08836746215820312,-2.4613356590270996,0.20354050397872925
1683125734453401900,12.58640185546875,0.09155082702636719,-2.457645893096924,0.20436875522136688
1683125734471242200,12.6042421875,0.08845806121826172,-2.4602699279785156,0.2027740627527237
1683125734489078000,12.622078125,0.08377265930175781,-2.4512898921966553,0.20689496397972107
1683125734506918700,12.639918701171876,0.07855510711669922,-2.4398255348205566,0.1911463737487793
1683125734524753000,12.6577529296875,0.08089637756347656,-2.4354987144470215,0.19955000281333923
1683125734542598700,12.6755986328125,0.08230113983154297,-2.432037353515625,0.20411300659179688
1683125734560431000,12.69343115234375,0.08975982666015625,-2.422929286956787,0.19115042686462402
1683125734578274000,12.711274169921875,0.08666515350341797,-2.4146904945373535,0.19831296801567078
1683125734596105500,12.72910546875,0.07478141784667969,-2.4122068881988525,0.1915050595998764
1683125734613945600,12.746945556640625,0.0775918960571289,-2.414651870727539,0.19496561586856842
1683125734631786500,12.764786376953126,0.07553577423095703,-2.399998664855957,0.19913260638713837
1683125734649626000,12.782626220703126,0.07390785217285156,-2.397012948989868,0.19263923168182373
1683125734667459000,12.800458984375,0.07424736022949219,-2.3909127712249756,0.1953442543745041
1683125734685303300,12.81830322265625,0.0744924545288086,-2.382594585418701,0.19104251265525818
1683125734703140600,12.836140625,0.06700992584228516,-2.3807859420776367,0.19721752405166626
1683125734720979200,12.853979248046874,0.0767354965209961,-2.3633744716644287,0.19162386655807495
1683125734738818600,12.871818603515624,0.07316017150878906,-2.3572335243225098,0.19472214579582214
1683125734756657000,12.889656982421876,0.07321929931640625,-2.3486969470977783,0.19022628664970398
1683125734774494500,12.907494384765625,0.0649576187133789,-2.3532564640045166,0.18946675956249237
1683125734792333600,12.92533349609375,0.06383609771728516,-2.347921133041382,0.19490034878253937
1683125734810167600,12.94316748046875,0.06987380981445312,-2.345745801925659,0.19757786393165588
1683125734828003600,12.961003662109375,0.06585025787353516,-2.3356990814208984,0.18823948502540588
1683125734845840100,12.978840087890624,0.06690597534179688,-2.3237152099609375,0.19205300509929657
1683125734863687700,12.996687744140624,0.05928325653076172,-2.324145555496216,0.19505159556865692
1683125734881525200,13.014525146484376,0.06906604766845703,-2.315556049346924,0.19525989890098572
1683125734899364900,13.03236474609375,0.0706624984741211,-2.305962562561035,0.1909903585910797
1683125734917197300,13.050197265625,0.05888652801513672,-2.3058862686157227,0.19139303267002106
1683125734935041300,13.068041259765625,0.06644821166992188,-2.2969722747802734,0.18451476097106934
1683125734952879000,13.085879150390625,0.06297111511230469,-2.2940163612365723,0.18861371278762817
1683125734970718700,13.10371875,0.057625770568847656,-2.289080858230591,0.18741782009601593
1683125734988552200,13.12155224609375,0.061797142028808594,-2.281294345855713,0.18336224555969238
1683125735006399200,13.139399169921875,0.05852985382080078,-2.2743451595306396,0.18620815873146057
1683125735024230400,13.15723046875,0.05755138397216797,-2.2781848907470703,0.18439695239067078
1683125735042073900,13.175073974609376,0.05342388153076172,-2.2610599994659424,0.18995103240013123
1683125735059908000,13.192908203125,0.0593414306640625,-2.25384521484375,0.1817433089017868
1683125735077749200,13.210749267578125,0.05985832214355469,-2.2506136894226074,0.17946892976760864
1683125735095587600,13.228587646484375,0.048442840576171875,-2.240018129348755,0.17617297172546387
1683125735113425200,13.246425048828126,0.054747581481933594,-2.238805055618286,0.18822810053825378
1683125735131263200,13.26426318359375,0.051570892333984375,-2.228538990020752,0.18558907508850098
1683125735149102800,13.282102783203126,0.05367755889892578,-2.2289810180664062,0.1825942099094391
1683125735166940200,13.299940185546875,0.044938087463378906,-2.2269608974456787,0.1821959763765335
1683125735184780000,13.317780029296875,0.04732322692871094,-2.2156357765197754,0.18764327466487885
1683125735202617300,13.335617431640625,0.05335521697998047,-2.215388298034668,0.18102625012397766
1683125735220457000,13.35345703125,0.0458831787109375,-2.2179441452026367,0.17876552045345306
1683125735238279400,13.371279541015625,0.042560577392578125,-2.207390069961548,0.18652115762233734
1683125735256136700,13.38913671875,0.04357337951660156,-2.206573009490967,0.18318673968315125
1683125735273967400,13.40696728515625,0.05373668670654297,-2.1991991996765137,0.1822729855775833
1683125735291810600,13.424810546875,0.04575347900390625,-2.1827938556671143,0.17227202653884888
1683125735309648100,13.442648193359375,0.04901313781738281,-2.1812081336975098,0.1761188507080078
1683125735327487700,13.46048779296875,0.04664039611816406,-2.1747286319732666,0.17402127385139465
1683125735345325000,13.478324951171874,0.041024208068847656,-2.1723837852478027,0.1714245080947876
1683125735363163100,13.4961630859375,0.041831016540527344,-2.1685590744018555,0.17700684070587158
1683125735381003300,13.514003173828126,0.050093650817871094,-2.151907205581665,0.17396821081638336
1683125735398841000,13.531841064453126,0.03839683532714844,-2.152050733566284,0.174829363822937
1683125735416679000,13.549678955078125,0.04154014587402344,-2.148773431777954,0.1765657663345337
1683125735434518000,13.56751806640625,0.04036521911621094,-2.1426219940185547,0.18370668590068817
1683125735452344000,13.585343994140626,0.0399322509765625,-2.1365394592285156,0.17243339121341705
1683125735470195200,13.6031953125,0.04000282287597656,-2.1267266273498535,0.17499083280563354
1683125735488031200,13.62103125,0.03359222412109375,-2.1253232955932617,0.1732485592365265
1683125735505873400,13.638873291015624,0.037967681884765625,-2.1210877895355225,0.17139184474945068
1683125735523702800,13.656702880859376,0.03202533721923828,-2.113978624343872,0.17341545224189758
1683125735541549300,13.67454931640625,0.03725910186767578,-2.1057162284851074,0.16792812943458557
1683125735559386400,13.692386474609375,0.027471542358398438,-2.104135274887085,0.17391952872276306
1683125735577226000,13.71022607421875,0.023700714111328125,-2.098083972930908,0.17095321416854858
1683125735595051500,13.728051513671875,0.025831222534179688,-2.0946428775787354,0.17419736087322235
1683125735612902700,13.745902587890624,0.030975341796875,-2.093865394592285,0.1692415475845337
1683125735630740000,13.763739990234376,0.02729034423828125,-2.081535816192627,0.16865479946136475
1683125735648579800,13.781579833984376,0.036884307861328125,-2.07474946975708,0.16912738978862762
1683125735666416600,13.799416748046875,0.028757095336914062,-2.0785696506500244,0.16799040138721466
1683125735684252200,13.817252197265624,0.02412128448486328,-2.0720584392547607,0.16956844925880432
1683125735702094000,13.835093994140625,0.02734375,-2.0618677139282227,0.1755441278219223
1683125735719933400,13.852933349609375,0.03587627410888672,-2.0587689876556396,0.16787798702716827
1683125735737759200,13.87075927734375,0.0247955322265625,-2.050147771835327,0.1674385368824005
1683125735755610600,13.888610595703126,0.024677276611328125,-2.041438102722168,0.16690148413181305
1683125735773448000,13.906447998046875,0.02523040771484375,-2.037827253341675,0.1685931533575058
1683125735791287300,13.924287353515625,0.033203125,-2.0341832637786865,0.16718095541000366
1683125735809124600,13.94212451171875,0.025804519653320312,-2.0326292514801025,0.16044111549854279
1683125735826964500,13.959964599609375,0.02553272247314453,-2.0215396881103516,0.16323724389076233
1683125735844801800,13.9778017578125,0.02635478973388672,-2.018490791320801,0.16532722115516663
1683125735862641200,13.99564111328125,0.02506256103515625,-2.013887405395508,0.16146516799926758
1683125735880478500,14.013478515625,0.029317855834960938,-2.0039584636688232,0.15819308161735535
1683125735898318000,14.031318115234376,0.030269622802734375,-2.00046968460083,0.16365596652030945
1683125735916155400,14.0491552734375,0.020742416381835938,-2.0002799034118652,0.16147488355636597
1683125735933991200,14.0669912109375,0.0048847198486328125,-1.9949188232421875,0.16525621712207794
1683125735951832000,14.08483203125,0.01715373992919922,-1.9924067258834839,0.16450278460979462
1683125735969671700,14.102671630859374,0.018495559692382812,-1.9799445867538452,0.16568401455879211
1683125735987509200,14.12050927734375,0.02378082275390625,-1.976271390914917,0.1605956107378006
1683125736005344000,14.138343994140625,0.014876365661621094,-1.974700927734375,0.15992188453674316
1683125736023186000,14.15618603515625,0.023759841918945312,-1.9688752889633179,0.1635453701019287
1683125736041027300,14.17402734375,0.019578933715820312,-1.9537043571472168,0.15993061661720276
1683125736058863000,14.191863037109375,0.011678695678710938,-1.9558141231536865,0.1609671413898468
1683125736076702200,14.2097021484375,0.01582622528076172,-1.9596127271652222,0.1556854397058487
1683125736094534100,14.2275341796875,0.013239860534667969,-1.9461580514907837,0.15746816992759705
1683125736112379100,14.245379150390624,0.015100479125976562,-1.9440288543701172,0.15619026124477386
1683125736130215400,14.26321533203125,0.015857696533203125,-1.9351022243499756,0.15476839244365692
1683125736148057600,14.2810576171875,0.015801429748535156,-1.9328622817993164,0.16035190224647522
1683125736165893400,14.298893310546875,0.010587692260742188,-1.9249324798583984,0.15089017152786255
1683125736183735000,14.316735107421875,0.011873245239257812,-1.9210275411605835,0.15422207117080688
1683125736201570800,14.33457080078125,0.013915061950683594,-1.9163596630096436,0.155055433511734
1683125736219410200,14.35241015625,0.011179924011230469,-1.9112581014633179,0.15487806499004364
1683125736237247200,14.370247314453126,0.012049674987792969,-1.9082974195480347,0.15447548031806946
1683125736255078100,14.388078125,0.0133209228515625,-1.9017488956451416,0.15459394454956055
1683125736272924200,14.405924072265625,0.006075859069824219,-1.8989384174346924,0.14940032362937927
1683125736290761000,14.423760986328125,0.0055370330810546875,-1.8952674865722656,0.1534295231103897
1683125736308604200,14.441604248046875,0.009659767150878906,-1.8934223651885986,0.1548548936843872
1683125736326428700,14.4594287109375,0.0055999755859375,-1.8885912895202637,0.15050029754638672
1683125736344278500,14.477278564453124,0.0049610137939453125,-1.877785563468933,0.15077197551727295
1683125736362117600,14.49511767578125,0.006829261779785156,-1.8721370697021484,0.14917266368865967
1683125736379943700,14.512943603515625,0.0060405731201171875,-1.8635673522949219,0.15324734151363373
1683125736397795600,14.530795654296876,0.0075473785400390625,-1.8632439374923706,0.15505854785442352
1683125736415632000,14.5486318359375,0.0044612884521484375,-1.8601744174957275,0.14743532240390778
1683125736433471200,14.56647119140625,-0.00226593017578125,-1.8536776304244995,0.14937759935855865
1683125736451307300,14.584307373046874,0.0026645660400390625,-1.8552114963531494,0.1521626114845276
1683125736469149200,14.602149169921875,0.004787445068359375,-1.8530330657958984,0.15374937653541565
1683125736486985700,14.61998583984375,-0.00020313262939453125,-1.8467087745666504,0.1565457433462143
1683125736504825300,14.637825439453126,0.0007066726684570312,-1.8386459350585938,0.14526715874671936
1683125736522662400,14.655662353515625,-0.0000476837158203125,-1.8325453996658325,0.1459943652153015
1683125736540490200,14.673490234375,0.0016126632690429688,-1.831816554069519,0.14252442121505737
1683125736558339300,14.69133935546875,-0.0038747787475585938,-1.8228398561477661,0.15026681125164032
1683125736576179000,14.709178955078125,0.0013246536254882812,-1.8137750625610352,0.1475025713443756
1683125736594012400,14.727012451171875,0.006182670593261719,-1.806623935699463,0.14599505066871643
1683125736611856000,14.74485595703125,0.0032110214233398438,-1.8099517822265625,0.1547243595123291
1683125736629693000,14.76269287109375,-0.0037593841552734375,-1.8052257299423218,0.14282536506652832
1683125736647528000,14.78052783203125,-0.00360870361328125,-1.8038280010223389,0.14460694789886475
1683125736665369600,14.79836962890625,-0.0012073516845703125,-1.7936052083969116,0.14285925030708313
1683125736683200000,14.816199951171875,-0.003948211669921875,-1.7923612594604492,0.14222604036331177
1683125736701045800,14.834045654296874,-0.0045871734619140625,-1.7861024141311646,0.143832266330719
1683125736718887400,14.851887451171875,-0.00370025634765625,-1.7816413640975952,0.1460382342338562
1683125736736723700,14.8697236328125,-0.0039691925048828125,-1.7776305675506592,0.148619145154953
1683125736754557200,14.88755712890625,0.0017938613891601562,-1.7679672241210938,0.1444976031780243
1683125736772399600,14.905399658203125,0.0008001327514648438,-1.7668424844741821,0.14241176843643188
1683125736790241300,14.9232412109375,-0.0019750595092773438,-1.7650201320648193,0.141612708568573
1683125736808077600,14.94107763671875,0.0005483627319335938,-1.757981777191162,0.14080877602100372
1683125736825917200,14.958917236328125,-0.009190559387207031,-1.7490487098693848,0.13937820494174957
1683125736843754800,14.976754638671874,0.0002079010009765625,-1.7460049390792847,0.14486044645309448
1683125736861594000,14.994593994140626,-0.012181282043457031,-1.7414798736572266,0.14020666480064392
1683125736879430400,15.012430419921875,-0.010908126831054688,-1.7358009815216064,0.1381198614835739
1683125736897272000,15.03027197265625,-0.004534721374511719,-1.7298493385314941,0.138811856508255
1683125736915107800,15.04810791015625,-0.007579803466796875,-1.7253386974334717,0.13835376501083374
1683125736932947500,15.065947509765625,-0.0066585540771484375,-1.7298346757888794,0.1419203132390976
1683125736950785500,15.08378564453125,-0.0062427520751953125,-1.7219326496124268,0.14416909217834473
1683125736968625000,15.101625,-0.010955810546875,-1.7189364433288574,0.13636323809623718
1683125736986462000,15.1194619140625,-0.015028953552246094,-1.7186660766601562,0.13259026408195496
1683125737004301800,15.1373017578125,-0.015505790710449219,-1.713745355606079,0.13683339953422546
1683125737022137900,15.155137939453125,-0.011545181274414062,-1.7021493911743164,0.1340506672859192
1683125737039979500,15.1729794921875,-0.018877029418945312,-1.698938250541687,0.1397702395915985
1683125737057815800,15.19081591796875,-0.013759613037109375,-1.6890263557434082,0.13449475169181824
1683125737075648000,15.20864794921875,-0.013760566711425781,-1.689868450164795,0.13880044221878052
1683125737093491500,15.226491455078126,-0.011574745178222656,-1.6882883310317993,0.13440991938114166
1683125737111334100,15.244334228515624,-0.013860702514648438,-1.6839569807052612,0.13738378882408142
1683125737129170200,15.262170166015625,-0.017119407653808594,-1.6700973510742188,0.13634878396987915
1683125737146997200,15.279997314453125,-0.014047622680664062,-1.671358346939087,0.13104379177093506
1683125737164834800,15.297834716796874,-0.010395050048828125,-1.6691534519195557,0.13490980863571167
1683125737182678000,15.315677978515625,-0.01837635040283203,-1.665428876876831,0.13368180394172668
1683125737200523500,15.3335234375,-0.020325660705566406,-1.6558669805526733,0.13786426186561584
1683125737218363000,15.35136279296875,-0.011793136596679688,-1.6542599201202393,0.13556429743766785
1683125737236200200,15.3692001953125,-0.011026382446289062,-1.6425411701202393,0.1315230429172516
1683125737254028300,15.3870283203125,-0.02169322967529297,-1.647420883178711,0.13677848875522614
1683125737271876900,15.404876953125,-0.018030166625976562,-1.6381598711013794,0.13538911938667297
1683125737289716700,15.422716796875,-0.011944770812988281,-1.6341865062713623,0.13399139046669006
1683125737307553800,15.4405537109375,-0.010126113891601562,-1.6300530433654785,0.13173913955688477
1683125737325393400,15.458393310546874,-0.0075511932373046875,-1.6272510290145874,0.12527361512184143
1683125737343230000,15.47622998046875,-0.015425682067871094,-1.626722812652588,0.12492083758115768
1683125737361071400,15.4940712890625,-0.021928787231445312,-1.6170971393585205,0.13107165694236755
1683125737378907600,15.51190771484375,-0.021788597106933594,-1.6142582893371582,0.12685158848762512
1683125737396747300,15.529747314453125,-0.013180732727050781,-1.6117632389068604,0.13553118705749512
1683125737414579700,15.547579833984376,-0.02016735076904297,-1.6139922142028809,0.13082343339920044
1683125737432424000,15.565423828125,-0.017128944396972656,-1.6010347604751587,0.13192470371723175
1683125737450261000,15.583260986328124,-0.02380657196044922,-1.5979454517364502,0.13145145773887634
1683125737468100600,15.6011005859375,-0.01837635040283203,-1.592942237854004,0.13175244629383087
1683125737485938200,15.618938232421876,-0.02054882049560547,-1.5925134420394897,0.1288432478904724
1683125737503778000,15.636778076171876,-0.02608203887939453,-1.5891737937927246,0.1312359869480133
1683125737521614800,15.65461474609375,-0.017806053161621094,-1.584122657775879,0.12208158522844315
1683125737539447000,15.672447021484375,-0.019884109497070312,-1.5803887844085693,0.13180088996887207
1683125737557292800,15.690292724609375,-0.02028942108154297,-1.5737853050231934,0.1255495548248291
1683125737575131100,15.708131103515624,-0.01928424835205078,-1.5662071704864502,0.12841665744781494
1683125737592963800,15.7259638671875,-0.021508216857910156,-1.56097412109375,0.12360809743404388
1683125737610808000,15.74380810546875,-0.027894020080566406,-1.55960214138031,0.12694315612316132
1683125737628634000,15.761634033203125,-0.027399063110351562,-1.549950122833252,0.12481699138879776
1683125737646485000,15.779485107421875,-0.0208740234375,-1.5584988594055176,0.1277168095111847
1683125737664308500,15.79730859375,-0.021869659423828125,-1.5525612831115723,0.12544521689414978
1683125737682162400,15.815162353515625,-0.022893905639648438,-1.5435618162155151,0.12869486212730408
1683125737699988000,15.832988037109375,-0.026277542114257812,-1.5453770160675049,0.12250031530857086
1683125737717838600,15.850838623046876,-0.019947052001953125,-1.5378847122192383,0.12285398691892624
1683125737735671800,15.868671875,-0.02352142333984375,-1.5327556133270264,0.117249995470047
1683125737753515800,15.886515869140625,-0.028074264526367188,-1.5270891189575195,0.12472386658191681
1683125737771353300,15.904353271484375,-0.027092933654785156,-1.5220386981964111,0.12516045570373535
1683125737789192700,15.922192626953125,-0.025300025939941406,-1.518106460571289,0.1221480444073677
1683125737807030500,15.940030517578125,-0.028224945068359375,-1.514904499053955,0.11885002255439758
1683125737824869600,15.95786962890625,-0.031459808349609375,-1.514527678489685,0.1221851110458374
1683125737842707000,15.97570703125,-0.0312652587890625,-1.504915475845337,0.12316873669624329
1683125737860545300,15.993545166015625,-0.025205612182617188,-1.5101594924926758,0.12262316048145294
1683125737878385000,16.011385009765625,-0.030801773071289062,-1.5004632472991943,0.12704820930957794
1683125737896223200,16.02922314453125,-0.029539108276367188,-1.4915231466293335,0.12135540693998337
1683125737914067200,16.047067138671874,-0.026981353759765625,-1.4933152198791504,0.11442939192056656
1683125737931900200,16.064900146484376,-0.02289867401123047,-1.4911518096923828,0.11993333697319031
1683125737949737200,16.0827373046875,-0.034175872802734375,-1.483227252960205,0.11304116249084473
1683125737967576800,16.100576904296876,-0.028853416442871094,-1.4777171611785889,0.1227194294333458
1683125737985409800,16.118409912109374,-0.03290557861328125,-1.4822742938995361,0.12669284641742706
1683125738003253800,16.136253662109375,-0.03346729278564453,-1.4764158725738525,0.1251506507396698
1683125738021076700,16.15407666015625,-0.034111976623535156,-1.4686403274536133,0.12388690561056137
1683125738038919400,16.17191943359375,-0.029634475708007812,-1.4660239219665527,0.1201426088809967
1683125738056766000,16.189765869140626,-0.023301124572753906,-1.4612770080566406,0.11501221358776093
1683125738074607400,16.207607421875,-0.029582977294921875,-1.4578170776367188,0.12064965069293976
1683125738092433000,16.225432861328127,-0.02598285675048828,-1.4599703550338745,0.11619283258914948
1683125738110283300,16.243283203125,-0.034236907958984375,-1.453321933746338,0.12536129355430603
1683125738128111400,16.261111328125,-0.02889537811279297,-1.4506866931915283,0.11243584752082825
1683125738145961000,16.2789609375,-0.025583267211914062,-1.4457331895828247,0.1127825602889061
1683125738163798500,16.296798583984376,-0.028800010681152344,-1.4380619525909424,0.11502225697040558
1683125738181633800,16.3146337890625,-0.022489547729492188,-1.4349610805511475,0.11326981335878372
1683125738199478500,16.332478515625,-0.031037330627441406,-1.429957389831543,0.11596782505512238
1683125738217315800,16.35031591796875,-0.033359527587890625,-1.4240834712982178,0.11674176156520844
1683125738235152400,16.36815234375,-0.02368927001953125,-1.4294193983078003,0.11229254305362701
1683125738252991700,16.38599169921875,-0.031661033630371094,-1.4195351600646973,0.11712905764579773
1683125738270828800,16.403828857421875,-0.026894569396972656,-1.4205220937728882,0.11463682353496552
1683125738288667100,16.421667236328126,-0.029832839965820312,-1.4182261228561401,0.11832187324762344
1683125738306503200,16.439503173828125,-0.028860092163085938,-1.4166975021362305,0.12092474848031998
1683125738324345600,16.457345703125,-0.029541969299316406,-1.4135057926177979,0.11451893299818039
1683125738342183000,16.475182861328125,-0.03402233123779297,-1.3982439041137695,0.10986886918544769
1683125738360019200,16.493019287109377,-0.03244209289550781,-1.3967151641845703,0.11487208306789398
1683125738377858000,16.510858154296876,-0.032448768615722656,-1.3969554901123047,0.11082816123962402
1683125738395701800,16.52870166015625,-0.035190582275390625,-1.389642357826233,0.11523843556642532
1683125738413539600,16.54653955078125,-0.03503131866455078,-1.3887040615081787,0.11440463364124298
1683125738431373800,16.564373779296876,-0.04553985595703125,-1.3883638381958008,0.10564011335372925
1683125738449215200,16.58221533203125,-0.03571891784667969,-1.3824174404144287,0.11252576857805252
1683125738467052800,16.600052734375,-0.03331470489501953,-1.3797587156295776,0.11393114179372787
1683125738484890400,16.617890380859375,-0.03705310821533203,-1.371184229850769,0.11233951151371002
1683125738502728400,16.635728515625,-0.04193115234375,-1.3676416873931885,0.1144183799624443
1683125738520568300,16.653568359375,-0.037926673889160156,-1.3632638454437256,0.11447655409574509
1683125738538406700,16.67140673828125,-0.03232288360595703,-1.359415054321289,0.11242707818746567
1683125738556244000,16.689243896484374,-0.038890838623046875,-1.3599987030029297,0.11173615604639053
1683125738574083300,16.707083251953126,-0.04133892059326172,-1.3529313802719116,0.11275884509086609
1683125738591906000,16.724906005859374,-0.03672504425048828,-1.347844123840332,0.11058375984430313
1683125738609760300,16.74276025390625,-0.02127552032470703,-1.3435505628585815,0.10754985362291336
1683125738627593000,16.760593017578124,-0.03972148895263672,-1.3474369049072266,0.11405376344919205
1683125738645437200,16.778437255859377,-0.04171180725097656,-1.3367083072662354,0.1098211258649826
1683125738663262500,16.796262451171874,-0.035269737243652344,-1.3407589197158813,0.10916674882173538
1683125738681114400,16.8141142578125,-0.028580665588378906,-1.3404881954193115,0.10860719531774521
1683125738698951700,16.83195166015625,-0.04370689392089844,-1.3286688327789307,0.1036023497581482
1683125738716790800,16.849790771484376,-0.03732776641845703,-1.3260293006896973,0.10592767596244812
1683125738734628000,16.867628173828123,-0.03285408020019531,-1.3256056308746338,0.1024717390537262
1683125738752466700,16.885466796875,-0.040940284729003906,-1.3292584419250488,0.10232798010110855
1683125738770306600,16.903306640625,-0.040111541748046875,-1.3208892345428467,0.10469896346330643
1683125738788144400,16.921144287109374,-0.043860435485839844,-1.312877893447876,0.10450480878353119
1683125738805982000,16.93898193359375,-0.03489875793457031,-1.3125386238098145,0.1107812374830246
1683125738823818800,16.95681884765625,-0.045090675354003906,-1.3083033561706543,0.10798497498035431
1683125738841662000,16.974661865234374,-0.03885078430175781,-1.3022871017456055,0.10747043788433075
1683125738859494100,16.992494140625,-0.03898048400878906,-1.3030049800872803,0.1051771342754364
1683125738877339600,17.010339599609374,-0.04411602020263672,-1.294506549835205,0.1062011569738388
1683125738895160000,17.02816015625,-0.03814697265625,-1.296893835067749,0.10655970126390457
1683125738913015600,17.046015625,-0.04062843322753906,-1.2893970012664795,0.10288813710212708
1683125738930851600,17.0638515625,-0.041001319885253906,-1.2849140167236328,0.10786988586187363
1683125738948676900,17.0816767578125,-0.03722858428955078,-1.2794384956359863,0.10599571466445923
1683125738966528500,17.099528564453124,-0.042621612548828125,-1.2749868631362915,0.0967688262462616
1683125738984366300,17.117366455078123,-0.03808307647705078,-1.2753047943115234,0.09827186912298203
1683125739002205400,17.135205322265627,-0.04138660430908203,-1.2722320556640625,0.09953193366527557
1683125739020034300,17.153034423828124,-0.04774951934814453,-1.265016794204712,0.10171402990818024
1683125739037882000,17.170882080078126,-0.049686431884765625,-1.2674509286880493,0.10760471224784851
1683125739055720200,17.18872021484375,-0.043908119201660156,-1.259630799293518,0.10546442866325378
1683125739073555200,17.20655517578125,-0.044734954833984375,-1.2585396766662598,0.10828319191932678
1683125739091393500,17.2243935546875,-0.04602813720703125,-1.2592889070510864,0.10264495760202408
1683125739109236000,17.242236083984373,-0.04469490051269531,-1.2536587715148926,0.1010933443903923
1683125739127073300,17.2600732421875,-0.044490814208984375,-1.257355809211731,0.10936744511127472
1683125739144908000,17.277907958984375,-0.045754432678222656,-1.2544634342193604,0.09775657951831818
1683125739162738400,17.295738525390625,-0.040233612060546875,-1.2467926740646362,0.10207949578762054
1683125739180589800,17.31358984375,-0.04488849639892578,-1.2373924255371094,0.10303963720798492
1683125739198427400,17.331427490234375,-0.035943031311035156,-1.2298136949539185,0.09408122301101685
1683125739216266500,17.3492666015625,-0.04112434387207031,-1.226689338684082,0.09361302852630615
1683125739234094300,17.36709423828125,-0.047321319580078125,-1.229211688041687,0.10175597667694092
1683125739251943400,17.384943359375,-0.0380096435546875,-1.2313828468322754,0.10027609765529633
1683125739269781000,17.402781005859374,-0.038784027099609375,-1.2325942516326904,0.09721645712852478
1683125739287617300,17.4206171875,-0.049744606018066406,-1.2244493961334229,0.10159827768802643
1683125739305460700,17.438460693359374,-0.055248260498046875,-1.217764139175415,0.0992545485496521
1683125739323294200,17.456294189453125,-0.047718048095703125,-1.2171285152435303,0.09872077405452728
1683125739341137700,17.4741376953125,-0.041385650634765625,-1.209729552268982,0.09507621824741364
1683125739358973700,17.4919736328125,-0.04350471496582031,-1.2058846950531006,0.09631563723087311
1683125739376804000,17.50980419921875,-0.045230865478515625,-1.1996572017669678,0.09589813649654388
1683125739394646300,17.527646240234375,-0.046378135681152344,-1.200400948524475,0.09642244875431061
1683125739412488200,17.54548828125,-0.04838275909423828,-1.198697566986084,0.09474499523639679
1683125739430327600,17.56332763671875,-0.0543060302734375,-1.1946537494659424,0.09426896274089813
1683125739448164900,17.581164794921875,-0.047989845275878906,-1.1921592950820923,0.09418827295303345
1683125739465999600,17.59899951171875,-0.04656791687011719,-1.1831015348434448,0.09512370824813843
1683125739483842000,17.616842041015627,-0.04631805419921875,-1.1824194192886353,0.09675189852714539
1683125739501681400,17.634681396484375,-0.048126220703125,-1.1816301345825195,0.09315626323223114
1683125739519508500,17.652508544921876,-0.044167518615722656,-1.1765551567077637,0.09066422283649445
1683125739537359000,17.670359130859374,-0.04762458801269531,-1.1710205078125,0.09327684342861176
1683125739555195600,17.688195556640625,-0.04400062561035156,-1.1712524890899658,0.08932676911354065
1683125739573034800,17.70603466796875,-0.05209922790527344,-1.1720389127731323,0.09081527590751648
1683125739590873600,17.72387353515625,-0.04773712158203125,-1.1632864475250244,0.09240385890007019
1683125739608714800,17.74171484375,-0.051299095153808594,-1.1565306186676025,0.09278738498687744
1683125739626549000,17.759549072265624,-0.047443389892578125,-1.1567546129226685,0.09815441071987152
1683125739644388600,17.777388671875,-0.04676628112792969,-1.1516730785369873,0.09902650117874146
1683125739662225700,17.7952255859375,-0.04785346984863281,-1.152585744857788,0.09365406632423401
1683125739680065800,17.813065673828124,-0.053025245666503906,-1.1508384943008423,0.0924282968044281
1683125739697904600,17.830904541015624,-0.04364013671875,-1.147695779800415,0.09488044679164886
1683125739715735800,17.84873583984375,-0.04746055603027344,-1.14741051197052,0.09181007742881775
1683125739733579500,17.86657958984375,-0.05711936950683594,-1.1416215896606445,0.08884398639202118
1683125739751419400,17.88441943359375,-0.04397392272949219,-1.1362342834472656,0.0898813009262085
1683125739769256400,17.90225634765625,-0.048110008239746094,-1.1396859884262085,0.09736509621143341
1683125739787091500,17.920091552734377,-0.04446983337402344,-1.1261188983917236,0.09259134531021118
1683125739804932900,17.937932861328125,-0.04423046112060547,-1.1283111572265625,0.08361154794692993
1683125739822773000,17.95577294921875,-0.046634674072265625,-1.1267139911651611,0.09399454295635223
1683125739840609000,17.973609130859376,-0.04664421081542969,-1.1270017623901367,0.0877016931772232
1683125739858452200,17.9914521484375,-0.04613780975341797,-1.1188852787017822,0.08885037899017334
1683125739876285700,18.00928564453125,-0.05266571044921875,-1.11835515499115,0.09119559824466705
1683125739894130000,18.0271298828125,-0.04935264587402344,-1.1174043416976929,0.08521579205989838
1683125739911963400,18.04496337890625,-0.04062652587890625,-1.1096177101135254,0.0881742537021637
1683125739929803300,18.06280322265625,-0.04909038543701172,-1.1034672260284424,0.09652049839496613
1683125739947640300,18.080640380859375,-0.047944068908691406,-1.1045652627944946,0.09033364057540894
1683125739965479700,18.098479736328127,-0.04644966125488281,-1.107891321182251,0.08798503875732422
1683125739983317500,18.1163173828125,-0.04722881317138672,-1.0950425863265991,0.08766140043735504
1683125740001157000,18.1341572265625,-0.04244709014892578,-1.0927612781524658,0.08988241851329803
1683125740018994400,18.151994384765626,-0.050772666931152344,-1.089971899986267,0.09068720042705536
1683125740036829000,18.169828857421876,-0.05402851104736328,-1.0874320268630981,0.08806507289409637
1683125740054671000,18.187671142578125,-0.050423622131347656,-1.0883986949920654,0.08793789148330688
1683125740072510500,18.205510498046873,-0.046004295349121094,-1.0907201766967773,0.08896702527999878
1683125740090347800,18.22334765625,-0.048043251037597656,-1.084568738937378,0.08026334643363953
1683125740108182800,18.241182861328124,-0.04551219940185547,-1.0803308486938477,0.09016862511634827
1683125740126024700,18.259024658203124,-0.04575347900390625,-1.0746893882751465,0.08795817196369171
1683125740143864800,18.27686474609375,-0.05574607849121094,-1.0692472457885742,0.08427773416042328
1683125740161700400,18.294700439453123,-0.04939079284667969,-1.0704835653305054,0.08064374327659607
1683125740179540000,18.3125400390625,-0.04662609100341797,-1.066570520401001,0.09258408844470978
1683125740197379000,18.330379150390623,-0.04962921142578125,-1.0703725814819336,0.08275678753852844
1683125740215215000,18.348215087890626,-0.051133155822753906,-1.0604560375213623,0.0839948058128357
1683125740233058000,18.36605810546875,-0.043578147888183594,-1.0605720281600952,0.08370047807693481
1683125740250894600,18.38389453125,-0.055080413818359375,-1.060413122177124,0.08790385723114014
1683125740268731600,18.401731689453126,-0.04868030548095703,-1.0533963441848755,0.08645085990428925
1683125740286571500,18.419571533203126,-0.052771568298339844,-1.0519133806228638,0.0821051150560379
1683125740304408600,18.43740869140625,-0.04295921325683594,-1.0519980192184448,0.09039629995822906
1683125740322248400,18.45524853515625,-0.058669090270996094,-1.0443143844604492,0.08623003959655762
1683125740340085800,18.473085693359376,-0.046733856201171875,-1.0504528284072876,0.08563584089279175
1683125740357920500,18.49092041015625,-0.04524803161621094,-1.0400625467300415,0.08706602454185486
1683125740375762200,18.50876220703125,-0.052620887756347656,-1.0309174060821533,0.08402468264102936
1683125740393601800,18.526601806640624,-0.047206878662109375,-1.0351636409759521,0.08220720291137695
1683125740411439000,18.544439208984375,-0.05148887634277344,-1.032961130142212,0.07732710242271423
1683125740429278700,18.56227880859375,-0.04854869842529297,-1.031553864479065,0.08297199010848999
1683125740447116000,18.580115966796875,-0.05187416076660156,-1.0270545482635498,0.08618825674057007
1683125740464955400,18.597955322265626,-0.05527496337890625,-1.0204719305038452,0.08369752764701843
1683125740482791700,18.615791748046874,-0.04607105255126953,-1.0150278806686401,0.07385049760341644
1683125740500633600,18.633633544921874,-0.04390430450439453,-1.0146045684814453,0.07973161339759827
1683125740518469600,18.6514697265625,-0.05333232879638672,-1.0143041610717773,0.07832901179790497
1683125740536295200,18.669295166015626,-0.04359912872314453,-1.0154668092727661,0.0842803418636322
1683125740554146800,18.687146728515625,-0.04647254943847656,-1.011288046836853,0.07886187732219696
1683125740571986400,18.704986328125,-0.05397224426269531,-1.0081391334533691,0.0756877213716507
1683125740589825000,18.722824951171877,-0.05660247802734375,-1.0040786266326904,0.08156080543994904
1683125740607644200,18.74064404296875,-0.05305194854736328,-0.9983013868331909,0.08204406499862671
1683125740625500400,18.75850048828125,-0.05222606658935547,-0.9969834685325623,0.08130951225757599
1683125740643339500,18.776339599609376,-0.05327129364013672,-0.9969866871833801,0.08384454250335693
1683125740661177000,18.794177001953123,-0.049541473388671875,-0.9953255653381348,0.0753551721572876
1683125740679016700,18.8120166015625,-0.054986000061035156,-0.9933698773384094,0.07558976113796234
1683125740696853800,18.829853759765626,-0.059081077575683594,-0.9943594932556152,0.08129005134105682
1683125740714693000,18.847693115234375,-0.05636024475097656,-0.9866769909858704,0.08437347412109375
1683125740732531200,18.86553125,-0.048371315002441406,-0.9838253259658813,0.0743851363658905
1683125740750359000,18.883359130859375,-0.04367351531982422,-0.9779274463653564,0.07752823829650879
1683125740768207000,18.90120703125,-0.054472923278808594,-0.977142333984375,0.07674673199653625
1683125740786048500,18.919048583984374,-0.04911613464355469,-0.9741469025611877,0.07577764987945557
1683125740803879700,18.936879638671876,-0.049510955810546875,-0.9686923623085022,0.0867389440536499
1683125740821722600,18.95472265625,-0.05283355712890625,-0.966580867767334,0.08053155243396759
1683125740839560400,18.972560546875,-0.050147056579589844,-0.9721441864967346,0.07107669115066528
1683125740857401600,18.990401611328124,-0.046123504638671875,-0.9562005996704102,0.08062884211540222
1683125740875237600,19.008237548828124,-0.05576610565185547,-0.9630603790283203,0.07281725108623505
1683125740893077200,19.0260771484375,-0.06157970428466797,-0.9593702554702759,0.07616202533245087
1683125740910914600,19.04391455078125,-0.05470752716064453,-0.9545133113861084,0.0721304714679718
1683125740928754200,19.061754150390627,-0.05250072479248047,-0.9453434944152832,0.07274612784385681
1683125740946595800,19.079595947265624,-0.049530982971191406,-0.9450442790985107,0.07373344898223877
1683125740964431000,19.09743115234375,-0.05245399475097656,-0.9534285068511963,0.07717911899089813
1683125740982268400,19.115268310546874,-0.05012702941894531,-0.9514143466949463,0.07643474638462067
1683125741000108000,19.13310791015625,-0.05794239044189453,-0.9481923580169678,0.07747557759284973
1683125741017944800,19.15094482421875,-0.051326751708984375,-0.9409252405166626,0.07138089835643768
1683125741035789600,19.16878955078125,-0.04996967315673828,-0.9416026473045349,0.0760248601436615
1683125741053622000,19.1866220703125,-0.05352306365966797,-0.9409158229827881,0.0724295824766159
1683125741071462000,19.2044619140625,-0.055710792541503906,-0.9334346652030945,0.08001740276813507
1683125741089298700,19.222298583984376,-0.05810356140136719,-0.9346650838851929,0.07687248289585114
1683125741107138300,19.24013818359375,-0.047379493713378906,-0.9317569136619568,0.07120905816555023
1683125741124970800,19.257970703125,-0.04892730712890625,-0.9295468926429749,0.07532119750976562
1683125741142815200,19.275815185546875,-0.05830860137939453,-0.9279719591140747,0.07827283442020416
1683125741160652300,19.29365234375,-0.05110454559326172,-0.9249385595321655,0.07745696604251862
1683125741178492000,19.311491943359375,-0.055084228515625,-0.916348397731781,0.07627947628498077
1683125741196329200,19.3293291015625,-0.05022907257080078,-0.9158816337585449,0.07235382497310638
1683125741214166000,19.347166015625,-0.05497550964355469,-0.9141606092453003,0.07518450915813446
1683125741231994400,19.364994384765627,-0.055843353271484375,-0.9133737087249756,0.07728579640388489
1683125741249847000,19.382846923828126,-0.05954170227050781,-0.9068503379821777,0.07265964150428772
1683125741267683600,19.40068359375,-0.05667591094970703,-0.9086029529571533,0.0719653069972992
1683125741285522000,19.41852197265625,-0.053226470947265625,-0.9089210629463196,0.06891757249832153
1683125741303359500,19.436359375,-0.05792713165283203,-0.9028114080429077,0.07688577473163605
1683125741321199400,19.454199462890625,-0.049530982971191406,-0.9034149646759033,0.07390201091766357
1683125741339036400,19.472036376953124,-0.0476226806640625,-0.8965177536010742,0.06999050080776215
1683125741356875800,19.489875732421876,-0.05399894714355469,-0.9011275768280029,0.06863214075565338
1683125741374713000,19.507713134765623,-0.05641746520996094,-0.8971207737922668,0.0721554160118103
1683125741392552700,19.525552734375,-0.050772666931152344,-0.8885618448257446,0.06826919317245483
1683125741410390000,19.54339013671875,-0.05407905578613281,-0.888453483581543,0.07244782149791718
1683125741428229600,19.561229736328126,-0.056183815002441406,-0.8817908763885498,0.06990531086921692
1683125741446062000,19.57906201171875,-0.04565620422363281,-0.8840416669845581,0.06990964710712433
1683125741463895000,19.59689501953125,-0.049495697021484375,-0.8789358735084534,0.07266475260257721
1683125741481743600,19.61474365234375,-0.047908782958984375,-0.8851892352104187,0.0722539871931076
1683125741499582200,19.632582275390625,-0.057257652282714844,-0.8790448904037476,0.07063545286655426
1683125741517421800,19.650421875,-0.061638832092285156,-0.8762882947921753,0.06526261568069458
1683125741535260000,19.668260009765625,-0.05431079864501953,-0.873022198677063,0.07249073684215546
1683125741553097500,19.686097412109376,-0.05921363830566406,-0.8752256631851196,0.07111841440200806
1683125741570935600,19.703935546875,-0.06104278564453125,-0.8732221126556396,0.07405363023281097
1683125741588775200,19.721775146484376,-0.04735088348388672,-0.8721000552177429,0.07301992177963257
1683125741606601700,19.739601806640625,-0.05794334411621094,-0.8656413555145264,0.06811444461345673
1683125741624451300,19.757451416015623,-0.06272506713867188,-0.8625398874282837,0.06861378252506256
1683125741642290700,19.775290771484375,-0.05835533142089844,-0.8597121834754944,0.07498177886009216
1683125741660127500,19.79312744140625,-0.05185508728027344,-0.863747775554657,0.07158163189888
1683125741677966800,19.810966796875,-0.05765056610107422,-0.8588483333587646,0.0739791989326477
1683125741695804400,19.828804443359374,-0.055785179138183594,-0.8549652099609375,0.06919033825397491
1683125741713644000,19.84664404296875,-0.05038928985595703,-0.8479961156845093,0.06840509176254272
1683125741731481000,19.864481201171873,-0.05000591278076172,-0.846825122833252,0.07200908660888672
1683125741749323800,19.88232373046875,-0.054741859436035156,-0.8433817625045776,0.06897588074207306
1683125741767153400,19.9001533203125,-0.0638265609741211,-0.8410754203796387,0.06756767630577087
1683125741784997600,19.91799755859375,-0.0592041015625,-0.8395043015480042,0.07549108564853668
1683125741802834700,19.935834716796876,-0.053101539611816406,-0.8334651589393616,0.06448499858379364
1683125741820665000,19.9536650390625,-0.054535865783691406,-0.8330143690109253,0.059679701924324036
1683125741838512600,19.9715126953125,-0.05219554901123047,-0.8341376185417175,0.0742664784193039
1683125741856351500,19.9893515625,-0.058971405029296875,-0.8286911845207214,0.07066789269447327
1683125741874188300,20.007188232421875,-0.061092376708984375,-0.8318572640419006,0.06783531606197357
1683125741892027000,20.02502685546875,-0.05989646911621094,-0.8227143287658691,0.06861022114753723
1683125741909866500,20.042866455078126,-0.049422264099121094,-0.8236510753631592,0.06822891533374786
1683125741927692800,20.06069287109375,-0.053924560546875,-0.8243667483329773,0.06846603751182556
1683125741945542000,20.0785419921875,-0.04831218719482422,-0.819454550743103,0.07187695801258087
1683125741963373800,20.096373779296876,-0.058167457580566406,-0.8092677593231201,0.06933493912220001
1683125741981218800,20.11421875,-0.060428619384765625,-0.814961314201355,0.06652668118476868
1683125741999058400,20.132058349609373,-0.05011749267578125,-0.8091111183166504,0.06645403802394867
1683125742016895200,20.149895263671876,-0.051749229431152344,-0.8083121180534363,0.0679464191198349
1683125742034735000,20.167735107421876,-0.057257652282714844,-0.8069587349891663,0.06600534915924072
1683125742052572700,20.18557275390625,-0.060753822326660156,-0.8076096773147583,0.06496793031692505
1683125742070412300,20.203412353515624,-0.05190086364746094,-0.8050453662872314,0.0653136670589447
1683125742088249000,20.2212490234375,-0.04729175567626953,-0.8064239621162415,0.06169514358043671
1683125742106088700,20.239088623046875,-0.052043914794921875,-0.79808109998703,0.06717099249362946
1683125742123922200,20.256922119140626,-0.05449199676513672,-0.8001971244812012,0.06540922820568085
1683125742141764400,20.274764404296874,-0.05402374267578125,-0.7932754755020142,0.0645330399274826
1683125742159601000,20.292600830078126,-0.054012298583984375,-0.7926855087280273,0.06457829475402832
1683125742177445000,20.310445068359375,-0.05172538757324219,-0.7893072962760925,0.063239187002182
1683125742195268400,20.328268310546875,-0.053752899169921875,-0.7819607257843018,0.06343357264995575
1683125742213118000,20.346117919921873,-0.053910255432128906,-0.7878443002700806,0.0647726058959961
1683125742230957300,20.363957275390625,-0.06123542785644531,-0.7867779731750488,0.06374195218086243
1683125742248792300,20.381792236328124,-0.05516815185546875,-0.7810388803482056,0.06260542571544647
1683125742266632700,20.3996328125,-0.05608367919921875,-0.7838404178619385,0.06440788507461548
1683125742284473000,20.41747314453125,-0.053559303283691406,-0.7807027697563171,0.06346805393695831
1683125742302310100,20.43531005859375,-0.04686546325683594,-0.7778872847557068,0.060368046164512634
1683125742320149200,20.453149169921875,-0.05098438262939453,-0.7711613178253174,0.06448225677013397
1683125742337986800,20.47098681640625,-0.047501564025878906,-0.7777557373046875,0.06480671465396881
1683125742355814700,20.488814697265624,-0.06517505645751953,-0.7655892968177795,0.064867302775383
1683125742373663700,20.506663818359375,-0.0538177490234375,-0.764866828918457,0.06154465675354004
1683125742391491000,20.524490966796876,-0.055426597595214844,-0.7650293111801147,0.05866295099258423
1683125742409340700,20.542340576171874,-0.050498008728027344,-0.7662631869316101,0.06308090686798096
1683125742427169800,20.560169677734375,-0.04882240295410156,-0.7621429562568665,0.06636053323745728
1683125742445017300,20.578017333984373,-0.049526214599609375,-0.7618626952171326,0.05963747203350067
1683125742462855400,20.59585546875,-0.056308746337890625,-0.7597876191139221,0.05701075494289398
1683125742480695000,20.613695068359377,-0.049376487731933594,-0.7543947696685791,0.06311362981796265
1683125742498534000,20.631533935546877,-0.05651664733886719,-0.7533004879951477,0.05964981019496918
1683125742516370700,20.64937060546875,-0.05348014831542969,-0.7491500973701477,0.061115607619285583
1683125742534205400,20.667205322265627,-0.05165863037109375,-0.7447713017463684,0.06850884854793549
1683125742552047600,20.685047607421875,-0.05380058288574219,-0.747799277305603,0.05818822979927063
1683125742569887000,20.702886962890624,-0.05722808837890625,-0.7481189966201782,0.06099078059196472
1683125742587724300,20.720724365234375,-0.047766685485839844,-0.7400090098381042,0.06004969775676727
1683125742605563600,20.738563720703127,-0.05215740203857422,-0.7396047711372375,0.056147500872612
1683125742623401200,20.756401123046874,-0.05413055419921875,-0.743898868560791,0.05817693471908569
1683125742641240600,20.774240478515626,-0.05722618103027344,-0.7328491806983948,0.06359648704528809
1683125742659078000,20.792077880859374,-0.05766582489013672,-0.7339078783988953,0.057277485728263855
1683125742676917200,20.809917236328126,-0.06020832061767578,-0.7349302172660828,0.06585453450679779
1683125742694748000,20.827747802734375,-0.05480766296386719,-0.7344357967376709,0.05784747004508972
1683125742712594000,20.845593994140625,-0.05663871765136719,-0.7353228330612183,0.05943037569522858
1683125742730431200,20.86343115234375,-0.05252265930175781,-0.7322947978973389,0.05805414915084839
1683125742748270600,20.8812705078125,-0.05550670623779297,-0.7269014120101929,0.058141157031059265
1683125742766108200,20.899108154296876,-0.058371543884277344,-0.7272348403930664,0.05462464690208435
1683125742783944400,20.9169443359375,-0.058666229248046875,-0.7195482850074768,0.05866961181163788
1683125742801785300,20.934785400390624,-0.055065155029296875,-0.7200438380241394,0.05663619935512543
1683125742819621400,20.952621337890626,-0.057106971740722656,-0.7199149131774902,0.06264999508857727
1683125742837459700,20.970459716796874,-0.051082611083984375,-0.7174979448318481,0.06412741541862488
1683125742855293000,20.98829296875,-0.05787372589111328,-0.7184834480285645,0.05576173961162567
1683125742873142500,21.006142578125,-0.048676490783691406,-0.7180474400520325,0.0538373738527298
1683125742890971600,21.0239716796875,-0.04903984069824219,-0.7181850671768188,0.056073397397994995
1683125742908803800,21.041803955078127,-0.05280494689941406,-0.7077932357788086,0.05869743227958679
1683125742926654700,21.05965478515625,-0.04983329772949219,-0.7088386416435242,0.05693076550960541
1683125742944492300,21.0774921875,-0.0487823486328125,-0.7077412605285645,0.056382179260253906
1683125742962331400,21.095331298828125,-0.054953575134277344,-0.7044028043746948,0.05866757035255432
1683125742980168000,21.11316796875,-0.05805778503417969,-0.7040582299232483,0.06246502697467804
1683125742998009600,21.131009521484376,-0.046538352966308594,-0.7040424942970276,0.05395422875881195
1683125743015846000,21.148845947265624,-0.06087493896484375,-0.6973003149032593,0.05122785270214081
1683125743033685200,21.166685302734376,-0.05467510223388672,-0.6943009495735168,0.050571292638778687
1683125743051522600,21.1845224609375,-0.0492095947265625,-0.6921228766441345,0.06222155690193176
1683125743069362000,21.20236181640625,-0.055558204650878906,-0.6910149455070496,0.0570061057806015
1683125743087199700,21.22019970703125,-0.05414009094238281,-0.6876518726348877,0.06173774600028992
1683125743105034000,21.238033935546873,-0.05166053771972656,-0.6856257319450378,0.05426926910877228
1683125743122874400,21.255874267578125,-0.043163299560546875,-0.6801445484161377,0.05605444312095642
1683125743140717000,21.273717041015626,-0.04452705383300781,-0.6836456060409546,0.05227296054363251
1683125743158552600,21.291552490234373,-0.04907417297363281,-0.688943088054657,0.049105435609817505
1683125743176387800,21.309387939453124,-0.04182720184326172,-0.6850853562355042,0.05609935522079468
1683125743194216200,21.32721630859375,-0.048066139221191406,-0.6800040006637573,0.06127515435218811
1683125743212068900,21.34506884765625,-0.05360221862792969,-0.6778576374053955,0.056077346205711365
1683125743229905200,21.3629052734375,-0.05035591125488281,-0.677588939666748,0.059244975447654724
1683125743247746800,21.380746826171876,-0.05575847625732422,-0.6735053658485413,0.05557344853878021
1683125743265583000,21.3985830078125,-0.04995155334472656,-0.6715191602706909,0.0521748811006546
1683125743283423000,21.416423095703124,-0.05227375030517578,-0.672177255153656,0.05545492470264435
1683125743301259000,21.434259033203126,-0.05679798126220703,-0.6692644357681274,0.048570647835731506
1683125743319100700,21.4521005859375,-0.05276775360107422,-0.6691329479217529,0.04888470470905304
1683125743336932400,21.469932373046873,-0.05588722229003906,-0.6666041612625122,0.05488520860671997
1683125743354780400,21.487780517578123,-0.05315399169921875,-0.6645706295967102,0.05139148235321045
1683125743372613400,21.50561328125,-0.051589012145996094,-0.66229248046875,0.05551961064338684
1683125743390452700,21.52345263671875,-0.05959129333496094,-0.6588377952575684,0.047441303730010986
1683125743408290000,21.5412900390625,-0.04493999481201172,-0.6569191217422485,0.0531185120344162
1683125743426125300,21.559125244140624,-0.05144500732421875,-0.6569817066192627,0.05366189777851105
1683125743443963400,21.57696337890625,-0.05637550354003906,-0.6589380502700806,0.052676036953926086
1683125743461806600,21.594806640625,-0.05359649658203125,-0.6550028324127197,0.052115365862846375
1683125743479643600,21.6126435546875,-0.05465984344482422,-0.6488957405090332,0.046568483114242554
1683125743497472300,21.63047216796875,-0.055771827697753906,-0.649623453617096,0.04505510628223419
1683125743515320600,21.648320556640623,-0.05364990234375,-0.652441680431366,0.045548200607299805
1683125743533160200,21.66616015625,-0.05445384979248047,-0.6459607481956482,0.04617823660373688
1683125743550996200,21.683996337890626,-0.053420066833496094,-0.6403910517692566,0.04621550440788269
1683125743568824300,21.70182421875,-0.05884742736816406,-0.6410882472991943,0.04254244267940521
1683125743586671400,21.71967138671875,-0.05039787292480469,-0.6439437866210938,0.04911819100379944
1683125743604516600,21.7375166015625,-0.053386688232421875,-0.6390489339828491,0.048868417739868164
1683125743622347500,21.755347412109376,-0.05102062225341797,-0.6431403160095215,0.054348722100257874
1683125743640193500,21.773193603515626,-0.060710906982421875,-0.6411424875259399,0.04798071086406708
1683125743658028000,21.791028076171877,-0.046654701232910156,-0.6385021805763245,0.04775574803352356
1683125743675867100,21.8088671875,-0.057074546813964844,-0.6348373889923096,0.05073589086532593
1683125743693704400,21.826704345703124,-0.05674266815185547,-0.6318882703781128,0.04444292187690735
1683125743711543800,21.844543701171876,-0.054047584533691406,-0.6274166703224182,0.05472840368747711
1683125743729381000,21.862381103515624,-0.049327850341796875,-0.6267682909965515,0.04997996985912323
1683125743747216000,21.8802158203125,-0.05811595916748047,-0.6184225678443909,0.05146925151348114
1683125743765058000,21.89805810546875,-0.04905509948730469,-0.6306512355804443,0.058267757296562195
1683125743782897700,21.915897705078127,-0.04836845397949219,-0.6163402795791626,0.053801000118255615
1683125743800735000,21.93373486328125,-0.049103736877441406,-0.62647545337677,0.04597088694572449
1683125743818571300,21.9515712890625,-0.05823326110839844,-0.6218478083610535,0.045899391174316406
1683125743836414500,21.96941455078125,-0.05409526824951172,-0.6168739795684814,0.05272677540779114
1683125743854251000,21.9872509765625,-0.05591583251953125,-0.6151418089866638,0.04654094576835632
1683125743872087300,22.00508740234375,-0.047883033752441406,-0.6117112040519714,0.05069783329963684
1683125743889926100,22.022926025390625,-0.04967975616455078,-0.6125971674919128,0.04882124066352844
1683125743907767800,22.040767822265625,-0.05127143859863281,-0.6087221503257751,0.046055927872657776
1683125743925604900,22.05860498046875,-0.05246734619140625,-0.6092305183410645,0.04597741365432739
1683125743943441200,22.076441162109376,-0.04961395263671875,-0.6073130965232849,0.03938651084899902
1683125743961282600,22.094282470703124,-0.04794502258300781,-0.6041718125343323,0.04674418270587921
1683125743979118600,22.11211865234375,-0.04604053497314453,-0.6075615882873535,0.053791344165802
1683125743996955100,22.129955078125,-0.04757404327392578,-0.6074339151382446,0.051924511790275574
1683125744014795500,22.14779541015625,-0.04887580871582031,-0.6033479571342468,0.05025568604469299
1683125744032635000,22.165634765625,-0.04882526397705078,-0.6033059358596802,0.04544183611869812
1683125744050472000,22.183471923828126,-0.048644065856933594,-0.5987773537635803,0.04394160211086273
1683125744068311800,22.201311767578126,-0.05003833770751953,-0.592670738697052,0.045011356472969055
1683125744086145300,22.219145263671876,-0.047934532165527344,-0.6026177406311035,0.04481379687786102
1683125744103988200,22.23698828125,-0.056525230407714844,-0.5990099310874939,0.050654858350753784
1683125744121825000,22.254824951171877,-0.055609703063964844,-0.5922495126724243,0.04441128671169281
1683125744139654000,22.27265380859375,-0.05045890808105469,-0.5990234017372131,0.04630523920059204
1683125744157502500,22.29050244140625,-0.04911994934082031,-0.5887525081634521,0.043588787317276
1683125744175341300,22.30834130859375,-0.050988197326660156,-0.5946781635284424,0.04846577346324921
1683125744193176600,22.326176513671875,-0.05170917510986328,-0.5839792490005493,0.04630526900291443
1683125744211019800,22.344019775390624,-0.04673194885253906,-0.5864570736885071,0.04924188554286957
