time,seconds_elapsed,z,y,x
1683127765540563200,0.150563232421875,2.560737133026123,-6.123079299926758,1.632834792137146
1683127765558416000,0.168415771484375,2.6009702682495117,-6.129815101623535,1.6524240970611572
1683127765576247600,0.18624755859375,2.5195088386535645,-6.112841606140137,1.671748161315918
1683127765594081800,0.204081787109375,2.6548190116882324,-6.122267723083496,1.6551530361175537
1683127765611929900,0.221929931640625,2.528604507446289,-6.111859321594238,1.6608818769454956
1683127765629767700,0.239767578125,2.528891086578369,-6.103651523590088,1.7216992378234863
1683127765647609000,0.257609130859375,2.709625244140625,-6.150296688079834,1.64327073097229
1683127765665448000,0.275447998046875,2.5067873001098633,-6.13221549987793,1.633509635925293
1683127765683286000,0.2932861328125,2.631013870239258,-6.144252300262451,1.7137588262557983
1683127765701123600,0.31112353515625,2.5734925270080566,-6.096409797668457,1.6643332242965698
1683127765718965000,0.328965087890625,2.604999542236328,-6.1431050300598145,1.6643943786621094
1683127765736803800,0.346803955078125,2.590949535369873,-6.120142459869385,1.6716479063034058
1683127765754640000,0.364639892578125,2.5019683837890625,-6.124759674072266,1.6685677766799927
1683127765772482600,0.382482666015625,2.6374011039733887,-6.131453514099121,1.655686616897583
1683127765790319600,0.400319580078125,2.5508322715759277,-6.10798978805542,1.6215989589691162
1683127765808159700,0.41815966796875,2.504091739654541,-6.1383233070373535,1.6835758686065674
1683127765825979600,0.435979736328125,2.6080822944641113,-6.155216693878174,1.6632705926895142
1683127765843837000,0.4538369140625,2.519805908203125,-6.071681022644043,1.6309455633163452
1683127765861675500,0.471675537109375,2.6138882637023926,-6.144826889038086,1.7384953498840332
1683127765879515000,0.489514892578125,2.516475200653076,-6.15283727645874,1.6679177284240723
1683127765897347800,0.507347900390625,2.7045021057128906,-6.112947940826416,1.6418116092681885
1683127765915194600,0.525194580078125,2.550786018371582,-6.121551036834717,1.6730574369430542
1683127765933031700,0.54303173828125,2.5499086380004883,-6.091405391693115,1.6444106101989746
1683127765950870500,0.56087060546875,2.703852653503418,-6.083863258361816,1.6139196157455444
1683127765968710400,0.57871044921875,2.532439708709717,-6.105301380157471,1.68232262134552
1683127765986548700,0.596548828125,2.511570930480957,-6.164224624633789,1.7065905332565308
1683127766004387000,0.614386962890625,2.5383763313293457,-6.131522178649902,1.676363229751587
1683127766022226400,0.632226318359375,2.6019091606140137,-6.1042094230651855,1.6564631462097168
1683127766040054500,0.650054443359375,2.4549241065979004,-6.1403937339782715,1.6854631900787354
1683127766057904000,0.667904052734375,2.6488852500915527,-6.112310409545898,1.6008325815200806
1683127766075739600,0.68573974609375,2.578242301940918,-6.058532238006592,1.6440712213516235
1683127766093586400,0.70358642578125,2.531674861907959,-6.136225700378418,1.7142086029052734
1683127766111421000,0.7214208984375,2.624631881713867,-6.090676307678223,1.6505917310714722
1683127766129260000,0.739260009765625,2.545778274536133,-6.117094993591309,1.664292812347412
1683127766147094300,0.75709423828125,2.561985969543457,-6.13370418548584,1.6882368326187134
1683127766164939300,0.774939208984375,2.581887722015381,-6.0763773918151855,1.638855218887329
1683127766182774500,0.7927744140625,2.533694267272949,-6.076947212219238,1.6155918836593628
1683127766200619000,0.810618896484375,2.585369110107422,-6.114299774169922,1.6785187721252441
1683127766218455000,0.828455078125,2.479004383087158,-6.0712504386901855,1.6710643768310547
1683127766236295000,0.846294921875,2.6137657165527344,-6.113566875457764,1.6607708930969238
1683127766254132700,0.8641328125,2.4701924324035645,-6.092071533203125,1.6634550094604492
1683127766271970800,0.881970703125,2.526467800140381,-6.097492218017578,1.7086259126663208
1683127766289807400,0.899807373046875,2.673006057739258,-6.110558032989502,1.621870994567871
1683127766307652400,0.91765234375,2.466731071472168,-6.086921215057373,1.6221072673797607
1683127766325491700,0.93549169921875,2.6155600547790527,-6.12923526763916,1.698838233947754
1683127766343326500,0.953326416015625,2.5037922859191895,-6.069330215454102,1.6605439186096191
1683127766361163500,0.97116357421875,2.5939717292785645,-6.113955497741699,1.6565922498703003
1683127766379006200,0.989006103515625,2.532528877258301,-6.123338222503662,1.6439050436019897
1683127766396844800,1.0068447265625,2.509153366088867,-6.0711870193481445,1.6562633514404297
1683127766414684000,1.024683837890625,2.6088342666625977,-6.083456039428711,1.6146974563598633
1683127766432523500,1.0425234375,2.513214588165283,-6.068422794342041,1.6221643686294556
1683127766450361600,1.060361572265625,2.486652374267578,-6.064761161804199,1.6627118587493896
1683127766468200400,1.078200439453125,2.526944637298584,-6.106372833251953,1.6743552684783936
1683127766486039300,1.096039306640625,2.4952239990234375,-6.059070110321045,1.6457512378692627
1683127766503885800,1.1138857421875,2.531909465789795,-6.093903064727783,1.7261335849761963
1683127766521722600,1.13172265625,2.471879482269287,-6.109842300415039,1.6588090658187866
1683127766539555300,1.149555419921875,2.6594338417053223,-6.056380271911621,1.6080496311187744
1683127766557395500,1.1673955078125,2.4877161979675293,-6.055525302886963,1.6706618070602417
1683127766575233300,1.1852333984375,2.5193915367126465,-6.056780815124512,1.6374075412750244
1683127766593074700,1.20307470703125,2.627446174621582,-6.028426170349121,1.594882607460022
1683127766610913300,1.220913330078125,2.521183490753174,-6.068214416503906,1.6798770427703857
1683127766628736300,1.238736328125,2.453695774078369,-6.105433464050293,1.6690688133239746
1683127766646592800,1.2565927734375,2.4683804512023926,-6.078614234924316,1.6603072881698608
1683127766664425200,1.27442529296875,2.580045700073242,-6.074384689331055,1.6342853307724
1683127766682267600,1.292267578125,2.378096580505371,-6.0863261222839355,1.6661967039108276
1683127766700106200,1.310106201171875,2.600147247314453,-6.0755438804626465,1.598685622215271
1683127766717946000,1.327946044921875,2.4845728874206543,-6.008702754974365,1.6222761869430542
1683127766735785700,1.34578564453125,2.5022692680358887,-6.0801310539245605,1.7146625518798828
1683127766753623800,1.363623779296875,2.555358409881592,-6.044366836547852,1.6503721475601196
1683127766771463000,1.381462890625,2.4994277954101562,-6.03610897064209,1.6116920709609985
1683127766789301800,1.3993017578125,2.531229019165039,-6.063881874084473,1.6614102125167847
1683127766807138800,1.417138916015625,2.4980363845825195,-6.003096103668213,1.6136850118637085
1683127766824979200,1.434979248046875,2.4985828399658203,-5.982143878936768,1.5794224739074707
1683127766842821400,1.4528212890625,2.47674560546875,-6.055783271789551,1.6873934268951416
1683127766860657400,1.470657470703125,2.402034282684326,-6.026487827301025,1.6655731201171875
1683127766878497300,1.488497314453125,2.577319622039795,-6.065222263336182,1.6573028564453125
1683127766896335000,1.506335205078125,2.363037109375,-6.046666622161865,1.6619999408721924
1683127766914169900,1.524169921875,2.4904603958129883,-6.047035217285156,1.6692678928375244
1683127766932013300,1.542013427734375,2.5883684158325195,-6.043227672576904,1.5808355808258057
1683127766949853200,1.559853271484375,2.4098105430603027,-6.009718894958496,1.601773977279663
1683127766967691300,1.577691162109375,2.5477867126464844,-6.041769504547119,1.670864462852478
1683127766985525200,1.595525146484375,2.443148612976074,-6.002788543701172,1.6444683074951172
1683127767003358500,1.6133583984375,2.547110080718994,-6.039497375488281,1.634962797164917
1683127767021208800,1.631208740234375,2.4015984535217285,-6.040210723876953,1.6392064094543457
1683127767039035100,1.64903515625,2.4769973754882812,-5.9841766357421875,1.6392576694488525
1683127767056886000,1.666885986328125,2.5051488876342773,-5.990039825439453,1.5826084613800049
1683127767074724900,1.684724853515625,2.437808036804199,-5.9776387214660645,1.6241704225540161
1683127767092564700,1.702564697265625,2.4230637550354004,-5.966312885284424,1.633788824081421
1683127767110402800,1.72040283203125,2.4210095405578613,-6.034041404724121,1.654415249824524
1683127767128229600,1.738229736328125,2.4266152381896973,-5.999692916870117,1.6532933712005615
1683127767146080500,1.75608056640625,2.4457573890686035,-5.981361389160156,1.6803048849105835
1683127767163917300,1.773917236328125,2.411825656890869,-6.030409812927246,1.6284527778625488
1683127767181758500,1.791758544921875,2.54177188873291,-5.978351593017578,1.5654296875
1683127767199594800,1.8095947265625,2.407406806945801,-5.950462341308594,1.6585888862609863
1683127767217439200,1.827439208984375,2.4549460411071777,-5.982535362243652,1.627922773361206
1683127767235272000,1.84527197265625,2.5027709007263184,-5.941489219665527,1.5666170120239258
1683127767253114000,1.863114013671875,2.4665579795837402,-6.028151988983154,1.6335803270339966
1683127767270953200,1.880953125,2.3838634490966797,-5.988763809204102,1.6356455087661743
1683127767288792300,1.898792236328125,2.3950886726379395,-5.973039627075195,1.6158840656280518
1683127767306627800,1.9166279296875,2.5224289894104004,-5.976686000823975,1.6127984523773193
1683127767324467200,1.93446728515625,2.2895212173461914,-5.972382545471191,1.6476597785949707
1683127767342311700,1.952311767578125,2.4807333946228027,-5.991487503051758,1.5946873426437378
1683127767360133000,1.970133056640625,2.375739097595215,-5.930604934692383,1.6176326274871826
1683127767377989400,1.9879892578125,2.4215097427368164,-5.955930233001709,1.6919775009155273
1683127767395824400,2.005824462890625,2.452475070953369,-5.955203056335449,1.62648606300354
1683127767413666600,2.02366650390625,2.4200491905212402,-5.9251556396484375,1.557955026626587
1683127767431504100,2.041504150390625,2.4596381187438965,-5.944605350494385,1.635877251625061
1683127767449344300,2.05934423828125,2.3572793006896973,-5.915130138397217,1.6032243967056274
1683127767467181300,2.077181396484375,2.4538321495056152,-5.866909503936768,1.5423088073730469
1683127767485006600,2.095006591796875,2.3400955200195312,-5.965389728546143,1.6760587692260742
1683127767502862600,2.112862548828125,2.3308944702148438,-5.947082042694092,1.634598731994629
1683127767520699600,2.13069970703125,2.4504823684692383,-5.965303897857666,1.619539499282837
1683127767538537500,2.148537353515625,2.2494091987609863,-5.953507900238037,1.638883113861084
1683127767556371700,2.166371826171875,2.413644313812256,-5.943320274353027,1.6199893951416016
1683127767574215700,2.184215576171875,2.449559211730957,-5.919353008270264,1.5547187328338623
1683127767592040700,2.202040771484375,2.332594871520996,-5.890472888946533,1.5924460887908936
1683127767609896200,2.219896240234375,2.412565231323242,-5.8990278244018555,1.62405264377594
1683127767627727600,2.2377275390625,2.360504627227783,-5.90618896484375,1.628694772720337
1683127767645571800,2.25557177734375,2.449934482574463,-5.917089462280273,1.5861982107162476
1683127767663411500,2.273411376953125,2.2660608291625977,-5.916906356811523,1.6476671695709229
1683127767681248300,2.291248291015625,2.405228614807129,-5.881155014038086,1.5915207862854004
1683127767699089700,2.309089599609375,2.368072986602783,-5.872018337249756,1.5594173669815063
1683127767716927000,2.326927001953125,2.325896739959717,-5.876162052154541,1.6163407564163208
1683127767734767000,2.34476708984375,2.299656391143799,-5.842926979064941,1.605263352394104
1683127767752605000,2.36260498046875,2.3115897178649902,-5.914497375488281,1.6190521717071533
1683127767770444300,2.3804443359375,2.322498321533203,-5.883980751037598,1.6405781507492065
1683127767788283000,2.398282958984375,2.3169360160827637,-5.850611209869385,1.6166884899139404
1683127767806123300,2.416123291015625,2.334850311279297,-5.917750358581543,1.5832746028900146
1683127767823957200,2.433957275390625,2.379119396209717,-5.865224361419678,1.5424636602401733
1683127767841800000,2.451800048828125,2.3145179748535156,-5.811867713928223,1.6016340255737305
1683127767859638500,2.469638427734375,2.341266632080078,-5.87040901184082,1.622707724571228
1683127767877474000,2.48747412109375,2.3501319885253906,-5.829986572265625,1.5533198118209839
1683127767895305200,2.50530517578125,2.3725314140319824,-5.9032368659973145,1.5919785499572754
1683127767913145900,2.523145751953125,2.260183334350586,-5.847759246826172,1.5941216945648193
1683127767930997500,2.54099755859375,2.2990102767944336,-5.827550888061523,1.5488539934158325
1683127767948831500,2.55883154296875,2.401203155517578,-5.8172926902771,1.5781610012054443
1683127767966675700,2.57667578125,2.168450355529785,-5.811816215515137,1.6194640398025513
1683127767984504800,2.5945048828125,2.3512558937072754,-5.856625080108643,1.5767152309417725
1683127768002349300,2.612349365234375,2.2135558128356934,-5.811812877655029,1.5963516235351562
1683127768020191500,2.63019140625,2.321176528930664,-5.795746803283691,1.647750735282898
1683127768038014200,2.64801416015625,2.279142379760742,-5.8395586013793945,1.583467721939087
1683127768055867100,2.6658671875,2.322465419769287,-5.790698051452637,1.5121865272521973
1683127768073706200,2.683706298828125,2.3434576988220215,-5.795495510101318,1.6047284603118896
1683127768091546400,2.70154638671875,2.2437925338745117,-5.780265808105469,1.5816375017166138
1683127768109384000,2.719384033203125,2.343871593475342,-5.7316179275512695,1.5141793489456177
1683127768127222800,2.737222900390625,2.190056800842285,-5.84490966796875,1.6363168954849243
1683127768145049600,2.755049560546875,2.2131423950195312,-5.809642791748047,1.60932457447052
1683127768162893300,2.772893310546875,2.2977209091186523,-5.783797740936279,1.5555237531661987
1683127768180739800,2.79073974609375,2.1440939903259277,-5.800783157348633,1.5857821702957153
1683127768198579000,2.808578857421875,2.2591018676757812,-5.794688701629639,1.570188045501709
1683127768216415000,2.8264150390625,2.2838759422302246,-5.733799457550049,1.5197948217391968
1683127768234260500,2.844260498046875,2.2095489501953125,-5.751055717468262,1.570396900177002
1683127768252095700,2.862095703125,2.2835631370544434,-5.735596179962158,1.5722144842147827
1683127768269934600,2.8799345703125,2.2735157012939453,-5.768446922302246,1.5786404609680176
1683127768287771600,2.897771728515625,2.293304920196533,-5.762908935546875,1.537038803100586
1683127768305615400,2.915615478515625,2.121993064880371,-5.748373031616211,1.5801215171813965
1683127768323449900,2.933449951171875,2.308450222015381,-5.733828067779541,1.5514472723007202
1683127768341291800,2.951291748046875,2.1910557746887207,-5.714505195617676,1.520809531211853
1683127768359129000,2.969129150390625,2.21658992767334,-5.741434097290039,1.5851527452468872
1683127768376969500,2.986969482421875,2.144362449645996,-5.729381561279297,1.5702368021011353
1683127768394807000,3.00480712890625,2.213533401489258,-5.736563682556152,1.5472707748413086
1683127768412646100,3.022646240234375,2.204029083251953,-5.7175469398498535,1.58106529712677
1683127768430484200,3.040484130859375,2.1663918495178223,-5.710253715515137,1.5291986465454102
1683127768448326100,3.058326171875,2.230868339538574,-5.7241339683532715,1.5181728601455688
1683127768466151400,3.0761513671875,2.1664109230041504,-5.710230827331543,1.5345911979675293
1683127768483994600,3.09399462890625,2.2034153938293457,-5.654263019561768,1.5488604307174683
1683127768501844700,3.1118447265625,2.171816349029541,-5.727599620819092,1.5992374420166016
1683127768519680800,3.1296806640625,2.173466205596924,-5.683696269989014,1.522653341293335
1683127768537507300,3.14750732421875,2.255187511444092,-5.71255350112915,1.5476740598678589
1683127768555358200,3.165358154296875,2.093635082244873,-5.684314250946045,1.5567760467529297
1683127768573197000,3.183197021484375,2.214114189147949,-5.65537691116333,1.4717392921447754
1683127768591036700,3.20103662109375,2.2293429374694824,-5.636608600616455,1.5265920162200928
1683127768608874500,3.21887451171875,2.0362420082092285,-5.648255825042725,1.5765326023101807
1683127768626713600,3.236713623046875,2.1867995262145996,-5.674834728240967,1.533766746520996
1683127768644547800,3.2545478515625,2.049121856689453,-5.659316539764404,1.564117670059204
1683127768662392600,3.272392578125,2.2010631561279297,-5.651898384094238,1.5822645425796509
1683127768680219400,3.290219482421875,2.112809181213379,-5.670291423797607,1.534388542175293
1683127768698069500,3.308069580078125,2.188310146331787,-5.637009620666504,1.477016568183899
1683127768715904300,3.325904296875,2.1687893867492676,-5.604215621948242,1.5616462230682373
1683127768733740000,3.343739990234375,2.0919442176818848,-5.63122034072876,1.5467774868011475
1683127768751576300,3.361576416015625,2.2045536041259766,-5.58353328704834,1.4685310125350952
1683127768769410800,3.379410888671875,2.043959140777588,-5.6611328125,1.5444977283477783
1683127768787265000,3.39726513671875,2.083397388458252,-5.633450031280518,1.5665723085403442
1683127768805104000,3.415104248046875,2.1486778259277344,-5.575013160705566,1.4504656791687012
1683127768822930400,3.432930419921875,2.0110278129577637,-5.598633289337158,1.5182719230651855
1683127768840781000,3.450781005859375,2.057133674621582,-5.632268905639648,1.5543936491012573
1683127768858620200,3.4686201171875,2.1300272941589355,-5.543135166168213,1.469046711921692
1683127768876457500,3.48645751953125,2.0505847930908203,-5.577119827270508,1.5372071266174316
1683127768894299000,3.504298828125,2.061990261077881,-5.560888767242432,1.5421829223632812
1683127768912135700,3.5221357421875,2.171359062194824,-5.600918769836426,1.5263603925704956
1683127768929975800,3.539975830078125,2.08896541595459,-5.583338260650635,1.469756841659546
1683127768947816000,3.55781591796875,1.996812343597412,-5.559360980987549,1.5396456718444824
1683127768965649200,3.575649169921875,2.1712541580200195,-5.5437541007995605,1.4871768951416016
1683127768983492900,3.593492919921875,2.05035400390625,-5.530681610107422,1.483295202255249
1683127769001331700,3.611331787109375,2.068218231201172,-5.56806755065918,1.537796974182129
1683127769019171600,3.629171630859375,1.9148616790771484,-5.563114166259766,1.5299901962280273
1683127769037011700,3.64701171875,2.117495059967041,-5.516580581665039,1.4883445501327515
1683127769054837800,3.664837646484375,1.9932546615600586,-5.526307582855225,1.505902647972107
1683127769072687900,3.68268798828125,1.9930377006530762,-5.533840656280518,1.4705396890640259
1683127769090526000,3.70052587890625,2.1253628730773926,-5.507758617401123,1.4421919584274292
1683127769108367000,3.7183671875,1.9559335708618164,-5.502486228942871,1.4960213899612427
1683127769126204400,3.736204345703125,2.090272903442383,-5.460253715515137,1.5073843002319336
1683127769144039000,3.754038818359375,1.974499225616455,-5.54642391204834,1.5269463062286377
1683127769161883100,3.771883056640625,2.0412940979003906,-5.524108409881592,1.4840847253799438
1683127769179721200,3.78972119140625,2.0629053115844727,-5.496631622314453,1.4928169250488281
1683127769197560600,3.807560546875,1.8985133171081543,-5.472126007080078,1.4930949211120605
1683127769215399400,3.8253994140625,2.098072052001953,-5.457796096801758,1.4337131977081299
1683127769233239000,3.843239013671875,2.019949436187744,-5.4225287437438965,1.469178557395935
1683127769251076900,3.861076904296875,1.9513683319091797,-5.481956481933594,1.5171347856521606
1683127769268917200,3.878917236328125,1.979301929473877,-5.437884330749512,1.4481680393218994
1683127769286751000,3.8967509765625,1.912912368774414,-5.457238674163818,1.5164746046066284
1683127769304595000,3.914594970703125,2.0654001235961914,-5.4481730461120605,1.5098294019699097
1683127769322433000,3.93243310546875,1.9034404754638672,-5.452475547790527,1.4560339450836182
1683127769340270600,3.9502705078125,2.021444320678711,-5.4596476554870605,1.4448213577270508
1683127769358112000,3.968112060546875,1.953233242034912,-5.4157562255859375,1.518312692642212
1683127769375950600,3.98595068359375,1.956059455871582,-5.4303131103515625,1.504348874092102
1683127769393788700,4.00378857421875,2.0053048133850098,-5.386470317840576,1.4343996047973633
1683127769411626500,4.02162646484375,1.9094905853271484,-5.4303460121154785,1.4206438064575195
1683127769429467000,4.039466796875,1.9647345542907715,-5.401150703430176,1.4930291175842285
1683127769447307800,4.057307861328125,1.9548697471618652,-5.365485668182373,1.380168080329895
1683127769465144600,4.07514453125,1.928469181060791,-5.369591236114502,1.4556289911270142
1683127769482983400,4.0929833984375,1.8235187530517578,-5.417460918426514,1.5238747596740723
1683127769500822500,4.110822509765625,1.958726406097412,-5.340855121612549,1.4101862907409668
1683127769518662400,4.128662353515625,1.8617773056030273,-5.392951965332031,1.5074067115783691
1683127769536500500,4.14650048828125,1.841374397277832,-5.35897159576416,1.5022695064544678
1683127769554339300,4.16433935546875,2.040480613708496,-5.364750862121582,1.444055438041687
1683127769572180700,4.1821806640625,1.8597779273986816,-5.359708786010742,1.4191452264785767
1683127769590015500,4.200015380859375,1.8992938995361328,-5.349819183349609,1.473954200744629
1683127769607854600,4.2178544921875,1.980837345123291,-5.310392379760742,1.414214849472046
1683127769625694200,4.235694091796875,1.9170928001403809,-5.312860012054443,1.4171699285507202
1683127769643535000,4.25353515625,1.880704402923584,-5.3595075607299805,1.4594438076019287
1683127769661373200,4.271373291015625,1.7637958526611328,-5.337978363037109,1.4714542627334595
1683127769679213600,4.289213623046875,1.9875950813293457,-5.326199054718018,1.412764072418213
1683127769697038600,4.30703857421875,1.785851001739502,-5.306681156158447,1.4480570554733276
1683127769714889700,4.3248896484375,1.8214302062988281,-5.331634521484375,1.4228483438491821
1683127769732729000,4.34272900390625,1.9544148445129395,-5.27313756942749,1.4025408029556274
1683127769750569200,4.3605693359375,1.7599492073059082,-5.315435409545898,1.4573572874069214
1683127769768406800,4.37840673828125,1.8943042755126953,-5.246211528778076,1.4639520645141602
1683127769786245600,4.39624560546875,1.797173023223877,-5.302234172821045,1.4360686540603638
1683127769804079900,4.414079833984375,1.8994746208190918,-5.2901201248168945,1.4249335527420044
1683127769821911800,4.431911865234375,1.8443331718444824,-5.238942623138428,1.4223889112472534
1683127769839762700,4.4497626953125,1.7705864906311035,-5.231807231903076,1.4129886627197266
1683127769857601500,4.4676015625,1.89011812210083,-5.249819278717041,1.39767587184906
1683127769875438600,4.4854384765625,1.8129239082336426,-5.20756196975708,1.4164379835128784
1683127769893282600,4.503282470703125,1.786259651184082,-5.27559232711792,1.4668127298355103
1683127769911118600,4.52111865234375,1.75872802734375,-5.242228984832764,1.3939634561538696
1683127769928957400,4.53895751953125,1.8225784301757812,-5.225594520568848,1.4462970495224
1683127769946793700,4.556793701171875,1.8055877685546875,-5.235109806060791,1.4247139692306519
1683127769964635600,4.5746357421875,1.786677360534668,-5.21685791015625,1.3679710626602173
1683127769982473500,4.592473388671875,1.8312773704528809,-5.209422588348389,1.3789469003677368
1683127770000298000,4.610298095703125,1.7293925285339355,-5.189311504364014,1.452959418296814
1683127770018153500,4.628153564453125,1.820329189300537,-5.211755275726318,1.4438108205795288
1683127770035988000,4.645988037109375,1.7465105056762695,-5.185331344604492,1.3992102146148682
1683127770053833000,4.6638330078125,1.7899255752563477,-5.179336071014404,1.3652222156524658
1683127770071665700,4.681665771484375,1.7730121612548828,-5.144468784332275,1.4095743894577026
1683127770089508600,4.699508544921875,1.7822628021240234,-5.1256866455078125,1.328295350074768
1683127770107347200,4.71734716796875,1.797739028930664,-5.110063076019287,1.3797428607940674
1683127770125189000,4.735189208984375,1.606297492980957,-5.178777694702148,1.4600025415420532
1683127770143025000,4.75302490234375,1.8158721923828125,-5.138541221618652,1.3783117532730103
1683127770160853200,4.770853271484375,1.6605348587036133,-5.161487579345703,1.4319255352020264
1683127770178702600,4.78870263671875,1.6586847305297852,-5.154635906219482,1.4509789943695068
1683127770196542200,4.806542236328125,1.865483283996582,-5.122542858123779,1.3387603759765625
1683127770214380800,4.824380859375,1.6694440841674805,-5.106042385101318,1.3509209156036377
1683127770232209200,4.842209228515625,1.755929946899414,-5.137378215789795,1.4207345247268677
1683127770250058800,4.860058837890625,1.7566518783569336,-5.068728923797607,1.354555368423462
1683127770267897900,4.87789794921875,1.7841739654541016,-5.091351509094238,1.376915454864502
1683127770285736400,4.895736328125,1.6802444458007812,-5.12166166305542,1.3560419082641602
1683127770303576600,4.91357666015625,1.6155881881713867,-5.083069801330566,1.4139735698699951
1683127770321414700,4.93141455078125,1.8170804977416992,-5.088996887207031,1.3337702751159668
1683127770339253800,4.949253662109375,1.5927104949951172,-5.0559401512146,1.3781187534332275
1683127770357092600,4.967092529296875,1.6561660766601562,-5.105578422546387,1.394562840461731
1683127770374928000,4.984927978515625,1.727365493774414,-5.026805400848389,1.3429867029190063
1683127770392767700,5.002767822265625,1.613520622253418,-5.060566425323486,1.3942294120788574
1683127770410612200,5.0206123046875,1.6750926971435547,-5.006232261657715,1.4180716276168823
1683127770428448300,5.0384482421875,1.6870613098144531,-5.027590751647949,1.337316870689392
1683127770446288600,5.05628857421875,1.725377082824707,-5.038000583648682,1.3352211713790894
1683127770464126500,5.07412646484375,1.622572898864746,-4.9925336837768555,1.3585734367370605
1683127770481965600,5.091965576171875,1.639002799987793,-4.962233066558838,1.324835181236267
1683127770499803400,5.109803466796875,1.659562110900879,-5.002203941345215,1.367212176322937
1683127770517631000,5.127630859375,1.6435127258300781,-4.985651969909668,1.3538894653320312
1683127770535485200,5.145485107421875,1.5918865203857422,-5.041343688964844,1.3993089199066162
1683127770553321200,5.1633212890625,1.5532207489013672,-5.012355327606201,1.3494724035263062
1683127770571159800,5.181159912109375,1.7059383392333984,-4.951542377471924,1.345311164855957
1683127770588996900,5.198996826171875,1.5617637634277344,-4.983975410461426,1.334676742553711
1683127770606838300,5.21683837890625,1.6536903381347656,-4.970340728759766,1.3014332056045532
1683127770624669400,5.23466943359375,1.6164684295654297,-4.9247660636901855,1.2951931953430176
1683127770642518800,5.252518798828125,1.6060657501220703,-4.940852165222168,1.39203679561615
1683127770660355800,5.27035595703125,1.6476173400878906,-4.964837551116943,1.3354556560516357
1683127770678194000,5.28819384765625,1.5301322937011719,-4.944944858551025,1.3324202299118042
1683127770696032500,5.306032470703125,1.675924301147461,-4.93287992477417,1.3148168325424194
1683127770713872000,5.323871826171875,1.5260143280029297,-4.889721870422363,1.3195925951004028
1683127770731697000,5.34169677734375,1.6470985412597656,-4.897594928741455,1.278564691543579
1683127770749552400,5.359552490234375,1.5963268280029297,-4.849842548370361,1.317449688911438
1683127770767389400,5.377389404296875,1.4436683654785156,-4.939556121826172,1.3788856267929077
1683127770785227800,5.395227783203125,1.6496162414550781,-4.882422924041748,1.319082260131836
1683127770803067600,5.413067626953125,1.4589920043945312,-4.868831157684326,1.331982135772705
1683127770820904700,5.43090478515625,1.5313482284545898,-4.942119598388672,1.358629584312439
1683127770838742500,5.448742431640625,1.620875358581543,-4.871431350708008,1.250149130821228
1683127770856586200,5.466586181640625,1.49908447265625,-4.825660705566406,1.2843526601791382
1683127770874423600,5.484423583984375,1.5659027099609375,-4.886427879333496,1.3751612901687622
1683127770892262000,5.502261962890625,1.5426959991455078,-4.8170013427734375,1.2980440855026245
1683127770910100500,5.5201005859375,1.6603870391845703,-4.868106365203857,1.3117631673812866
1683127770927939600,5.537939697265625,1.4537792205810547,-4.879208087921143,1.2767812013626099
1683127770945767700,5.555767578125,1.5189590454101562,-4.802581310272217,1.3329588174819946
1683127770963617300,5.5736171875,1.6036090850830078,-4.799439430236816,1.2497880458831787
1683127770981456600,5.59145654296875,1.4527978897094727,-4.785025596618652,1.294144868850708
1683127770999295500,5.60929541015625,1.4793767929077148,-4.835158824920654,1.3317255973815918
1683127771017131000,5.627131103515625,1.4841680526733398,-4.778877258300781,1.2789379358291626
1683127771034973200,5.64497314453125,1.4809541702270508,-4.79949951171875,1.3211675882339478
1683127771052812300,5.662812255859375,1.4210968017578125,-4.787912368774414,1.3627064228057861
1683127771070644200,5.680644287109375,1.555342674255371,-4.777480602264404,1.2431074380874634
1683127771088492500,5.698492431640625,1.5218257904052734,-4.765397548675537,1.2517651319503784
1683127771106329300,5.716329345703125,1.462799072265625,-4.73815393447876,1.3082908391952515
1683127771124168400,5.73416845703125,1.5307674407958984,-4.704914093017578,1.24295973777771
1683127771142006300,5.75200634765625,1.456369400024414,-4.758908271789551,1.2935298681259155
1683127771159843800,5.76984375,1.4944219589233398,-4.758954048156738,1.2894259691238403
1683127771177689900,5.78768994140625,1.4061346054077148,-4.752588748931885,1.3088651895523071
1683127771195524000,5.805524169921875,1.3920440673828125,-4.738354682922363,1.2669306993484497
1683127771213363000,5.823363037109375,1.5174636840820312,-4.696717262268066,1.2510137557983398
1683127771231203000,5.841203125,1.3459405899047852,-4.695864200592041,1.2872370481491089
1683127771249026000,5.859026123046875,1.4900274276733398,-4.716094493865967,1.2389845848083496
1683127771266875400,5.87687548828125,1.4128503799438477,-4.6351189613342285,1.2371007204055786
1683127771284719000,5.894718994140625,1.4826745986938477,-4.6763153076171875,1.334697961807251
1683127771302559000,5.91255908203125,1.4424676895141602,-4.702876091003418,1.254287600517273
1683127771320382000,5.9303818359375,1.385894775390625,-4.688770294189453,1.262725830078125
1683127771338239000,5.948239013671875,1.5249176025390625,-4.670572280883789,1.2778477668762207
1683127771356075000,5.966074951171875,1.3409719467163086,-4.615675449371338,1.2482303380966187
1683127771373911300,5.983911376953125,1.476572036743164,-4.658426761627197,1.22263765335083
1683127771391742500,6.001742431640625,1.4102373123168945,-4.607211589813232,1.2620830535888672
1683127771409591800,6.019591796875,1.3233308792114258,-4.663405418395996,1.2918803691864014
1683127771427432000,6.037431884765625,1.4076738357543945,-4.610778331756592,1.2393640279769897
1683127771445270800,6.055270751953125,1.321223258972168,-4.575725078582764,1.231080412864685
1683127771463107600,6.073107666015625,1.4036312103271484,-4.64276647567749,1.248430848121643
1683127771480949200,6.09094921875,1.386404037475586,-4.606216907501221,1.1929829120635986
1683127771498786800,6.108786865234375,1.3493432998657227,-4.535915851593018,1.195045828819275
1683127771516626400,6.12662646484375,1.3464031219482422,-4.614879608154297,1.3033217191696167
1683127771534450000,6.144449951171875,1.3878288269042969,-4.57170295715332,1.2396920919418335
1683127771552303400,6.162303466796875,1.4409589767456055,-4.606423377990723,1.2409652471542358
1683127771570142500,6.180142578125,1.2397899627685547,-4.600560665130615,1.255753993988037
1683127771587985000,6.19798486328125,1.424962043762207,-4.523024559020996,1.2316737174987793
1683127771605809000,6.215808837890625,1.4012107849121094,-4.51564359664917,1.1702851057052612
1683127771623659500,6.233659423828125,1.3319063186645508,-4.512598991394043,1.2409577369689941
1683127771641495800,6.251495849609375,1.2846622467041016,-4.530508995056152,1.2456622123718262
1683127771659341600,6.269341552734375,1.3200454711914062,-4.540285587310791,1.2227753400802612
1683127771677176600,6.287176513671875,1.3185920715332031,-4.525915145874023,1.2371628284454346
1683127771695015200,6.30501513671875,1.185628890991211,-4.530583381652832,1.2847973108291626
1683127771712853500,6.322853515625,1.441488265991211,-4.517993450164795,1.1651942729949951
1683127771730677500,6.340677490234375,1.3173065185546875,-4.47255277633667,1.1677862405776978
1683127771748532500,6.358532470703125,1.298640251159668,-4.484031677246094,1.2624332904815674
1683127771766371300,6.376371337890625,1.362288475036621,-4.423374176025391,1.1836059093475342
1683127771784205800,6.394205810546875,1.2813129425048828,-4.492531776428223,1.2087105512619019
1683127771802050600,6.412050537109375,1.329655647277832,-4.50118350982666,1.2060949802398682
1683127771819888000,6.42988818359375,1.2402591705322266,-4.442217826843262,1.2124826908111572
1683127771837727200,6.447727294921875,1.2400579452514648,-4.464006423950195,1.1722677946090698
1683127771855559200,6.46555908203125,1.326211929321289,-4.433547496795654,1.1813700199127197
1683127771873406200,6.48340625,1.1832761764526367,-4.3862504959106445,1.205024003982544
1683127771891241500,6.501241455078125,1.304387092590332,-4.433840274810791,1.1939074993133545
1683127771909086200,6.519086181640625,1.1909503936767578,-4.386378765106201,1.189305067062378
1683127771926908000,6.536907958984375,1.3462848663330078,-4.408347129821777,1.255452275276184
1683127771944750800,6.554750732421875,1.2625970840454102,-4.433596134185791,1.1657508611679077
1683127771962603000,6.57260302734375,1.2320365905761719,-4.399444103240967,1.1641653776168823
1683127771980438800,6.590438720703125,1.352548599243164,-4.393941879272461,1.2192158699035645
1683127771998281700,6.60828173828125,1.1925582885742188,-4.35216760635376,1.1666853427886963
1683127772016118300,6.6261181640625,1.302393913269043,-4.394911289215088,1.1634044647216797
1683127772033952500,6.643952392578125,1.1877565383911133,-4.372549057006836,1.1968600749969482
1683127772051794400,6.66179443359375,1.2051410675048828,-4.367241382598877,1.2009987831115723
1683127772069631500,6.679631591796875,1.2111339569091797,-4.362569332122803,1.1675080060958862
1683127772087477500,6.6974775390625,1.2045812606811523,-4.315202236175537,1.13395357131958
1683127772105300500,6.715300537109375,1.2202043533325195,-4.348068714141846,1.1643884181976318
1683127772123139300,6.733139404296875,1.2036447525024414,-4.323000907897949,1.1396853923797607
1683127772140990200,6.750990234375,1.2048511505126953,-4.266898155212402,1.1263364553451538
1683127772158830000,6.768830078125,1.1355371475219727,-4.337742328643799,1.2430870532989502
1683127772176668200,6.786668212890625,1.2342472076416016,-4.316284656524658,1.180525302886963
1683127772194507000,6.804507080078125,1.2624998092651367,-4.315296173095703,1.1526567935943604
1683127772212345900,6.822345947265625,1.071660041809082,-4.3221635818481445,1.2004810571670532
1683127772230186000,6.84018603515625,1.2908096313476562,-4.254938125610352,1.127934455871582
1683127772248023600,6.8580234375,1.207758903503418,-4.222437381744385,1.1022661924362183
1683127772265863200,6.87586328125,1.186690330505371,-4.237040042877197,1.1738574504852295
1683127772283702000,6.893701904296875,1.0949344635009766,-4.250725746154785,1.1508241891860962
1683127772301542100,6.911542236328125,1.1760644912719727,-4.259590148925781,1.1559754610061646
1683127772319379700,6.929379638671875,1.1892871856689453,-4.235617637634277,1.1561414003372192
1683127772337218800,6.94721875,1.0081119537353516,-4.269527435302734,1.1781532764434814
1683127772355053300,6.96505322265625,1.2849235534667969,-4.252987384796143,1.093645691871643
1683127772372898000,6.98289794921875,1.099757194519043,-4.198545455932617,1.1131374835968018
1683127772390732800,7.00073291015625,1.1679821014404297,-4.2248053550720215,1.1787569522857666
1683127772408566000,7.01856591796875,1.174356460571289,-4.1604485511779785,1.1186182498931885
1683127772426409000,7.036408935546875,1.1407537460327148,-4.206874847412109,1.1157306432724
1683127772444253700,7.054253662109375,1.187112808227539,-4.213154315948486,1.1232578754425049
1683127772462091800,7.072091796875,1.071537971496582,-4.143410682678223,1.1141581535339355
1683127772479918000,7.08991796875,1.130594253540039,-4.172473907470703,1.0875604152679443
1683127772497768000,7.107767822265625,1.1186389923095703,-4.1681132316589355,1.14098060131073
1683127772515607000,7.12560693359375,1.0424299240112305,-4.113245487213135,1.1290442943572998
1683127772533450200,7.1434501953125,1.1289453506469727,-4.181403160095215,1.1373646259307861
1683127772551287000,7.161287109375,0.9906978607177734,-4.125422954559326,1.1295604705810547
1683127772569125400,7.17912548828125,1.185525894165039,-4.119899749755859,1.1765422821044922
1683127772586965500,7.196965576171875,1.1023035049438477,-4.15482759475708,1.080177664756775
1683127772604792300,7.214792236328125,1.0863313674926758,-4.126073360443115,1.0766347646713257
1683127772622646300,7.232646240234375,1.1794567108154297,-4.111074447631836,1.131664514541626
1683127772640481800,7.250481689453125,1.0548887252807617,-4.07930850982666,1.1045663356781006
1683127772658321700,7.26832177734375,1.1341428756713867,-4.108644485473633,1.0885392427444458
1683127772676155100,7.286155029296875,1.0158071517944336,-4.117393493652344,1.1106557846069336
1683127772693987300,7.3039873046875,1.0935373306274414,-4.084756374359131,1.1173014640808105
1683127772711837700,7.321837646484375,1.036844253540039,-4.0868682861328125,1.0844827890396118
1683127772729677600,7.339677490234375,1.072113037109375,-4.05115270614624,1.0614299774169922
1683127772747503600,7.357503662109375,1.0516786575317383,-4.044402122497559,1.0995161533355713
1683127772765343500,7.375343505859375,1.05682373046875,-4.061169147491455,1.0909026861190796
1683127772783193900,7.39319384765625,1.053593635559082,-3.997091293334961,1.0763015747070312
1683127772801031400,7.411031494140625,0.9824848175048828,-4.046286582946777,1.157844066619873
1683127772818874000,7.4288740234375,1.098642349243164,-4.047423362731934,1.1123148202896118
1683127772836710400,7.44671044921875,1.090926170349121,-4.007970809936523,1.0396192073822021
1683127772854549800,7.4645498046875,0.9253149032592773,-4.033023357391357,1.1282010078430176
1683127772872389400,7.482389404296875,1.1019153594970703,-3.983212947845459,1.0588886737823486
1683127772890227500,7.5002275390625,1.0697050094604492,-3.9452624320983887,1.0255366563796997
1683127772908063500,7.5180634765625,1.044565200805664,-3.994807243347168,1.1198601722717285
1683127772925908500,7.535908447265625,0.9090394973754883,-3.9896717071533203,1.0722252130508423
1683127772943745300,7.553745361328125,1.0820426940917969,-3.9807164669036865,1.0813093185424805
1683127772961583600,7.57158349609375,1.0233268737792969,-3.9627420902252197,1.0666773319244385
1683127772979416800,7.589416748046875,0.865056037902832,-3.980595111846924,1.0783112049102783
1683127772997256400,7.60725634765625,1.140671730041504,-3.978637933731079,1.0281450748443604
1683127773015101700,7.625101806640625,0.9207048416137695,-3.91245436668396,1.0551050901412964
1683127773032939500,7.642939453125,1.0331058502197266,-3.9647440910339355,1.1102522611618042
1683127773050778400,7.6607783203125,0.989588737487793,-3.894984245300293,1.0598020553588867
1683127773068617500,7.678617431640625,1.0320472717285156,-3.8913791179656982,1.0196363925933838
1683127773086457300,7.696457275390625,1.0268526077270508,-3.9177098274230957,1.0631991624832153
1683127773104295400,7.71429541015625,0.9453802108764648,-3.862399101257324,1.023375153541565
1683127773122121500,7.73212158203125,1.0120925903320312,-3.855440616607666,0.991942286491394
1683127773139967000,7.749967041015625,0.939549446105957,-3.896853446960449,1.0863890647888184
1683127773157809200,7.76780908203125,0.9192390441894531,-3.8609588146209717,1.056477665901184
1683127773175656200,7.78565625,0.9760322570800781,-3.899930238723755,1.0661931037902832
1683127773193490400,7.803490478515625,0.8270959854125977,-3.875075340270996,1.0815978050231934
1683127773211317500,7.8213173828125,1.0397634506225586,-3.860241413116455,1.074310064315796
1683127773229157400,7.839157470703125,0.9469842910766602,-3.8716654777526855,1.0042212009429932
1683127773247007200,7.85700732421875,0.9494419097900391,-3.839250087738037,1.0033835172653198
1683127773264846300,7.874846435546875,1.0109939575195312,-3.821197748184204,1.039314866065979
1683127773282682400,7.892682373046875,0.9521303176879883,-3.8071534633636475,1.0385775566101074
1683127773300528400,7.9105283203125,0.9775409698486328,-3.833921432495117,1.0199575424194336
1683127773318363400,7.92836328125,0.8534221649169922,-3.8440957069396973,1.0299396514892578
1683127773336190700,7.946190673828125,0.9902381896972656,-3.810387134552002,1.0351890325546265
1683127773354037000,7.964037109375,0.8839426040649414,-3.795015573501587,1.0058389902114868
1683127773371881500,7.981881591796875,0.9579687118530273,-3.7789907455444336,0.9943679571151733
1683127773389719800,7.9997197265625,0.8814592361450195,-3.7572436332702637,1.0426089763641357
1683127773407558400,8.017558349609375,0.8997373580932617,-3.8028461933135986,1.0301525592803955
1683127773425397200,8.035397216796875,0.9011287689208984,-3.7396035194396973,1.0123311281204224
1683127773443236400,8.053236328125,0.8353424072265625,-3.7432191371917725,1.0685324668884277
1683127773461074700,8.07107470703125,0.9771480560302734,-3.770407199859619,1.0093399286270142
1683127773478914300,8.088914306640625,0.9238176345825195,-3.7240052223205566,0.9407272934913635
1683127773496741600,8.10674169921875,0.8417806625366211,-3.733689546585083,1.0473911762237549
1683127773514593800,8.12459375,0.9247255325317383,-3.733336925506592,1.0121726989746094
1683127773532431600,8.142431640625,0.9317922592163086,-3.67970609664917,0.9538194537162781
1683127773550270200,8.160270263671874,0.9083461761474609,-3.75567364692688,1.0479278564453125
1683127773568109300,8.178109375,0.7546319961547852,-3.7211287021636963,1.0057638883590698
1683127773585949400,8.195949462890624,0.9575862884521484,-3.6965115070343018,0.9985125660896301
1683127773603783000,8.213782958984375,0.8882684707641602,-3.679105758666992,0.9797319173812866
1683127773621626400,8.23162646484375,0.758763313293457,-3.6923623085021973,1.00603449344635
1683127773639464200,8.249464111328125,0.9894037246704102,-3.6939070224761963,0.9474953413009644
1683127773657306400,8.267306396484376,0.7888307571411133,-3.6317391395568848,0.9979106783866882
1683127773675143200,8.28514306640625,0.9241952896118164,-3.672686815261841,1.0478978157043457
1683127773692982500,8.302982421875,0.8111820220947266,-3.659759283065796,0.99446702003479
1683127773710821400,8.3208212890625,0.9161643981933594,-3.626849889755249,0.9455273747444153
1683127773728661200,8.3386611328125,0.879481315612793,-3.619905471801758,1.0017619132995605
1683127773746499300,8.356499267578124,0.8338994979858398,-3.5919394493103027,0.9468234777450562
1683127773764333800,8.374333740234375,0.9208650588989258,-3.568136692047119,0.9060912132263184
1683127773782177000,8.392177001953126,0.7608089447021484,-3.6376638412475586,1.0363229513168335
1683127773800009000,8.410009033203124,0.8239164352416992,-3.612081527709961,0.9911050200462341
1683127773817855500,8.42785546875,0.8151178359985352,-3.6270945072174072,0.9849145412445068
1683127773835693600,8.445693603515625,0.7128562927246094,-3.6179990768432617,1.0126324892044067
1683127773853534200,8.4635341796875,0.8951387405395508,-3.592238187789917,0.9606120586395264
1683127773871373600,8.48137353515625,0.8118782043457031,-3.5887348651885986,0.9312146306037903
1683127773889211600,8.499211669921875,0.8189220428466797,-3.5672154426574707,0.9412068724632263
1683127773907050800,8.51705078125,0.8642263412475586,-3.5292556285858154,0.9572166204452515
1683127773924889300,8.534889404296875,0.8583850860595703,-3.5601589679718018,0.9846904873847961
1683127773942729000,8.55272900390625,0.8330726623535156,-3.5510830879211426,0.9392123818397522
1683127773960568000,8.570568115234375,0.7308063507080078,-3.5645298957824707,0.9622754454612732
1683127773978406400,8.588406494140624,0.8851966857910156,-3.5412654876708984,0.9595625400543213
1683127773996233700,8.606233642578125,0.7604837417602539,-3.5062246322631836,0.9208150506019592
1683127774014085600,8.624085693359374,0.8412199020385742,-3.5286879539489746,0.9452195167541504
1683127774031923500,8.64192333984375,0.7305526733398438,-3.4939510822296143,0.9725396633148193
1683127774049762600,8.659762451171876,0.7882289886474609,-3.5266222953796387,0.968412458896637
1683127774067597000,8.67759716796875,0.7493782043457031,-3.475334882736206,0.9636402726173401
1683127774085440800,8.695440673828125,0.7448129653930664,-3.4603629112243652,0.9644047021865845
1683127774103279000,8.713279052734375,0.8702726364135742,-3.4992828369140625,0.9194003343582153
1683127774121118700,8.73111865234375,0.7725734710693359,-3.4496781826019287,0.8769964575767517
1683127774138957300,8.748957275390625,0.7420368194580078,-3.4448654651641846,0.9520877599716187
1683127774156795100,8.766795166015624,0.7618026733398438,-3.4604644775390625,0.9717082977294922
1683127774174635300,8.78463525390625,0.8187026977539062,-3.43532133102417,0.905678391456604
1683127774192476000,8.802475830078125,0.789790153503418,-3.5172433853149414,0.9423338174819946
1683127774210311000,8.820310791015626,0.6134376525878906,-3.4613399505615234,0.955895185470581
1683127774228154400,8.838154296875,0.8709716796875,-3.4090371131896973,0.9008994698524475
1683127774245991700,8.85599169921875,0.7640876770019531,-3.4015488624572754,0.9009568691253662
1683127774263830800,8.873830810546876,0.6585149765014648,-3.4134130477905273,0.9425833821296692
1683127774281669600,8.891669677734376,0.8485984802246094,-3.4039342403411865,0.8803465962409973
1683127774299508700,8.9095087890625,0.6749706268310547,-3.3886208534240723,0.9386066198348999
1683127774317346800,8.927346923828125,0.8097953796386719,-3.3967955112457275,0.9673324823379517
1683127774335188200,8.945188232421875,0.6593265533447266,-3.3935580253601074,0.9241815209388733
1683127774353025300,8.963025390625,0.8196821212768555,-3.3695602416992188,0.8690093159675598
1683127774370865700,8.98086572265625,0.7258415222167969,-3.3639416694641113,0.9346452951431274
1683127774388705500,8.99870556640625,0.7254190444946289,-3.3329708576202393,0.8937394618988037
1683127774406537700,9.016537841796875,0.8109626770019531,-3.2960894107818604,0.8374039530754089
1683127774424378400,9.03437841796875,0.6410369873046875,-3.384950637817383,0.9588406682014465
1683127774442224600,9.052224609375,0.7273645401000977,-3.3611717224121094,0.9370777606964111
1683127774460056800,9.070056884765625,0.701930046081543,-3.330533742904663,0.8836270570755005
1683127774477901300,9.0879013671875,0.6413898468017578,-3.3616089820861816,0.9256899356842041
1683127774495737900,9.10573779296875,0.7351903915405273,-3.348965644836426,0.8783965110778809
1683127774513577500,9.123577392578126,0.7057886123657227,-3.276740789413452,0.8492460250854492
1683127774531414300,9.141414306640625,0.6668815612792969,-3.313018321990967,0.8924755454063416
1683127774549255700,9.159255615234375,0.7182188034057617,-3.24828839302063,0.8916193246841431
1683127774567093200,9.17709326171875,0.7744064331054688,-3.322568416595459,0.9161297082901001
1683127774584934000,9.194933837890625,0.6875724792480469,-3.300178289413452,0.8585756421089172
1683127774602771500,9.212771484375,0.6347980499267578,-3.286776542663574,0.9146794676780701
1683127774620610600,9.230610595703125,0.7811880111694336,-3.2650885581970215,0.8844467997550964
1683127774638449400,9.248449462890624,0.6649408340454102,-3.2366063594818115,0.8411828279495239
1683127774656289500,9.26628955078125,0.7319326400756836,-3.2818315029144287,0.8899301290512085
1683127774674130400,9.28413037109375,0.5924386978149414,-3.240415573120117,0.8929523229598999
1683127774691966500,9.301966552734376,0.7059602737426758,-3.25386381149292,0.8900136947631836
1683127774709794000,9.3197939453125,0.632049560546875,-3.2298312187194824,0.904163122177124
1683127774727637200,9.33763720703125,0.6330852508544922,-3.2213778495788574,0.8656222820281982
1683127774745483800,9.35548388671875,0.7671079635620117,-3.242494821548462,0.827078104019165
1683127774763311000,9.37331103515625,0.6077947616577148,-3.1925861835479736,0.8167208433151245
1683127774781160200,9.39116015625,0.6912069320678711,-3.174614429473877,0.8744235038757324
1683127774799003100,9.409003173828125,0.6154193878173828,-3.2203218936920166,0.8976993560791016
1683127774816839400,9.42683935546875,0.7179431915283203,-3.1893937587738037,0.840627133846283
1683127774834678800,9.4446787109375,0.6787452697753906,-3.2525014877319336,0.8498548269271851
1683127774852516000,9.46251611328125,0.5038738250732422,-3.1998324394226074,0.8986835479736328
1683127774870358800,9.48035888671875,0.7716703414916992,-3.151918888092041,0.803398072719574
1683127774888196600,9.498196533203124,0.6472358703613281,-3.123217821121216,0.8305821418762207
1683127774906033400,9.516033447265626,0.5619411468505859,-3.156482458114624,0.8867751359939575
1683127774923875300,9.533875244140624,0.6905307769775391,-3.1371147632598877,0.8125666379928589
1683127774941710600,9.551710693359375,0.6084623336791992,-3.142003297805786,0.8691613674163818
1683127774959552000,9.569552001953125,0.6848030090332031,-3.130720615386963,0.8978840112686157
1683127774977393000,9.587392822265626,0.5673484802246094,-3.147660970687866,0.8428846001625061
1683127774995218000,9.605218017578125,0.7293729782104492,-3.139462947845459,0.7977635860443115
1683127775013069600,9.623069580078125,0.5754861831665039,-3.1108946800231934,0.8757874965667725
1683127775030907400,9.640907470703125,0.6519851684570312,-3.0957913398742676,0.844197154045105
1683127775048746800,9.658746826171875,0.6601686477661133,-3.0517256259918213,0.7827268838882446
1683127775066585300,9.67658544921875,0.5488948822021484,-3.1415741443634033,0.8639637231826782
1683127775084425700,9.69442578125,0.6290826797485352,-3.106149911880493,0.8682150840759277
1683127775102262500,9.712262451171876,0.5994739532470703,-3.0578255653381348,0.7836259007453918
1683127775120101600,9.7301015625,0.5736818313598633,-3.094177722930908,0.8357335329055786
1683127775137929700,9.7479296875,0.5613307952880859,-3.087733268737793,0.8256943225860596
1683127775155781600,9.76578173828125,0.6399250030517578,-3.0162298679351807,0.7709997892379761
1683127775173622300,9.783622314453124,0.5546140670776367,-3.0583460330963135,0.8503884673118591
1683127775191447000,9.801447021484375,0.5822744369506836,-3.0019330978393555,0.8457309007644653
1683127775209297400,9.81929736328125,0.6966495513916016,-3.071499824523926,0.8433067202568054
1683127775227127300,9.837127197265625,0.5616607666015625,-3.051835536956787,0.7852741479873657
1683127775244975400,9.854975341796875,0.5884742736816406,-3.0098836421966553,0.8295480012893677
1683127775262814200,9.872814208984375,0.6686801910400391,-2.9822394847869873,0.7886089086532593
1683127775280653600,9.890653564453125,0.5716342926025391,-2.9757144451141357,0.7732945680618286
1683127775298493400,9.908493408203125,0.6052207946777344,-3.013018846511841,0.8422871232032776
1683127775316331300,9.926331298828124,0.4556417465209961,-3.0148422718048096,0.8364449739456177
1683127775334158600,9.94415869140625,0.6332578659057617,-2.9981496334075928,0.80936199426651
1683127775352009500,9.962009521484376,0.4897127151489258,-2.9925246238708496,0.8308870792388916
1683127775369849900,9.979849853515624,0.564849853515625,-3.0011062622070312,0.783745527267456
1683127775387687200,9.997687255859375,0.6631183624267578,-2.9728667736053467,0.7489532232284546
1683127775405514500,10.015514404296875,0.502751350402832,-2.9451661109924316,0.7861096858978271
1683127775423364400,10.0333642578125,0.6144924163818359,-2.905590534210205,0.8094398379325867
1683127775441206800,10.051206787109376,0.507014274597168,-2.9832069873809814,0.8192157745361328
1683127775459040300,10.069040283203124,0.6295833587646484,-2.9562389850616455,0.7905433177947998
1683127775476885500,10.086885498046875,0.566192626953125,-2.9619717597961426,0.769031822681427
1683127775494716700,10.104716552734375,0.43479347229003906,-2.9248664379119873,0.8020573258399963
1683127775512561400,10.1225615234375,0.6643266677856445,-2.8949761390686035,0.7297386527061462
1683127775530399200,10.140399169921874,0.5466556549072266,-2.8512022495269775,0.766139030456543
1683127775548226300,10.158226318359375,0.4807882308959961,-2.9158172607421875,0.8287811279296875
1683127775566077200,10.1760771484375,0.5529899597167969,-2.883556365966797,0.7443228960037231
1683127775583910100,10.19391015625,0.5516977310180664,-2.900585412979126,0.8157055377960205
1683127775601759000,10.211759033203125,0.5596256256103516,-2.8785393238067627,0.8212828040122986
1683127775619593200,10.22959326171875,0.5090198516845703,-2.8965952396392822,0.7655712962150574
1683127775637434600,10.2474345703125,0.6258621215820312,-2.891629695892334,0.7427871823310852
1683127775655273500,10.2652734375,0.4766864776611328,-2.8737576007843018,0.8204731941223145
1683127775673111000,10.283111083984375,0.5701417922973633,-2.876237392425537,0.795156717300415
1683127775690938400,10.3009384765625,0.5240373611450195,-2.8416800498962402,0.7336675524711609
1683127775708789500,10.31878955078125,0.5125837326049805,-2.88809871673584,0.7555720806121826
1683127775726629000,10.336629150390625,0.5196523666381836,-2.8395285606384277,0.801836371421814
1683127775744462300,10.35446240234375,0.5353784561157227,-2.7967329025268555,0.6941379308700562
1683127775762311400,10.3723115234375,0.5495080947875977,-2.820948600769043,0.7485359907150269
1683127775780145000,10.390144775390626,0.4075603485107422,-2.8484809398651123,0.791083574295044
1683127775797985300,10.4079853515625,0.5958042144775391,-2.7700014114379883,0.7062032222747803
1683127775815818500,10.425818603515625,0.4203815460205078,-2.840801477432251,0.795039176940918
1683127775833662200,10.443662109375,0.491668701171875,-2.788506031036377,0.8001521229743958
1683127775851501300,10.461501220703125,0.6250028610229492,-2.828122138977051,0.7686821222305298
1683127775869341200,10.479341064453125,0.4338502883911133,-2.8211686611175537,0.7335730195045471
1683127775887178000,10.497177978515625,0.5302333831787109,-2.7800021171569824,0.7603060007095337
1683127775905020200,10.515020263671875,0.5475835800170898,-2.7392032146453857,0.7132818102836609
1683127775922855400,10.53285546875,0.5396347045898438,-2.7352371215820312,0.7197067141532898
1683127775940697600,10.550697509765625,0.4897956848144531,-2.768141984939575,0.7586429119110107
1683127775958536400,10.568536376953125,0.39261722564697266,-2.7902274131774902,0.7832517623901367
1683127775976374000,10.5863740234375,0.5786876678466797,-2.763941526412964,0.7261826992034912
1683127775994213000,10.604213134765626,0.3843240737915039,-2.7542524337768555,0.7584194540977478
1683127776012050200,10.62205029296875,0.47955322265625,-2.769991636276245,0.7246416211128235
1683127776029894100,10.63989404296875,0.5436897277832031,-2.7238872051239014,0.7006740570068359
1683127776047730000,10.65772998046875,0.42156410217285156,-2.726482391357422,0.735855758190155
1683127776065564200,10.675564208984374,0.5367231369018555,-2.668520450592041,0.7437871694564819
1683127776083409400,10.693409423828125,0.45703601837158203,-2.734621286392212,0.7372783422470093
1683127776101247500,10.71124755859375,0.5314664840698242,-2.7323036193847656,0.7378835678100586
1683127776119085800,10.7290859375,0.46912193298339844,-2.682162284851074,0.7259728908538818
1683127776136930600,10.7469306640625,0.39789676666259766,-2.685293436050415,0.7210633158683777
1683127776154765000,10.76476513671875,0.5189323425292969,-2.689899444580078,0.694250226020813
1683127776172603400,10.782603271484374,0.46422481536865234,-2.6172351837158203,0.7106602191925049
1683127776190434600,10.8004345703125,0.39436817169189453,-2.6976523399353027,0.7627378106117249
1683127776208276200,10.818276123046875,0.4354705810546875,-2.6745591163635254,0.7046852707862854
1683127776226109200,10.836109130859375,0.4964151382446289,-2.66585636138916,0.7608605623245239
1683127776243955500,10.85395556640625,0.4363374710083008,-2.6765708923339844,0.7363977432250977
1683127776261796600,10.871796630859375,0.458160400390625,-2.6635303497314453,0.6896904706954956
1683127776279638300,10.88963818359375,0.5461931228637695,-2.6405773162841797,0.6770520210266113
1683127776297476900,10.907476806640625,0.41779422760009766,-2.626214027404785,0.7457588315010071
1683127776315315000,10.92531494140625,0.4803447723388672,-2.6514251232147217,0.7273015975952148
1683127776333153800,10.94315380859375,0.43372344970703125,-2.620915174484253,0.6847740411758423
1683127776350993000,10.960992919921875,0.4882316589355469,-2.625762462615967,0.6944931745529175
1683127776368833300,10.978833251953125,0.3847160339355469,-2.5994017124176025,0.7226613163948059
1683127776386665200,10.996665283203125,0.4909095764160156,-2.573089122772217,0.6287824511528015
1683127776404510200,11.01451025390625,0.4865560531616211,-2.5703649520874023,0.6878676414489746
1683127776422348800,11.032348876953124,0.31078147888183594,-2.610604763031006,0.7496438026428223
1683127776440170800,11.050170654296876,0.5051097869873047,-2.5591516494750977,0.6649976372718811
1683127776458021400,11.068021484375,0.29985523223876953,-2.616945505142212,0.7312912344932556
1683127776475861500,11.085861572265625,0.4286308288574219,-2.588531732559204,0.7600153684616089
1683127776493697500,11.103697509765626,0.5093460083007812,-2.577746868133545,0.6621559858322144
1683127776511543600,11.12154345703125,0.3355751037597656,-2.578815460205078,0.6666518449783325
1683127776529383700,11.1393837890625,0.48177528381347656,-2.5643210411071777,0.7159402370452881
1683127776547221500,11.157221435546875,0.44474029541015625,-2.5083675384521484,0.6610603332519531
1683127776565049300,11.17504931640625,0.5163402557373047,-2.53555965423584,0.6632225513458252
1683127776582899500,11.1928994140625,0.39556026458740234,-2.554413080215454,0.6429290175437927
1683127776600739800,11.21073974609375,0.3848142623901367,-2.537865400314331,0.7289133071899414
1683127776618577400,11.228577392578124,0.49816322326660156,-2.5205979347229004,0.6437269449234009
1683127776636405000,11.246405029296875,0.33268165588378906,-2.515860080718994,0.6748875379562378
1683127776654256600,11.264256591796874,0.41948795318603516,-2.5591516494750977,0.6917069554328918
1683127776672094700,11.2820947265625,0.4105262756347656,-2.499424457550049,0.6571400761604309
1683127776689918500,11.29991845703125,0.3826169967651367,-2.5235676765441895,0.6843917369842529
1683127776707770600,11.3177705078125,0.3980865478515625,-2.4624340534210205,0.7217926979064941
1683127776725612800,11.33561279296875,0.42870330810546875,-2.498159885406494,0.6652396321296692
1683127776743450400,11.353450439453125,0.4762916564941406,-2.4871468544006348,0.6558895111083984
1683127776761289500,11.37128955078125,0.3690061569213867,-2.4657905101776123,0.6591434478759766
1683127776779128600,11.389128662109375,0.3987751007080078,-2.4430899620056152,0.6489206552505493
1683127776796968400,11.406968505859375,0.40735530853271484,-2.4662466049194336,0.6643401384353638
1683127776814806500,11.424806640625,0.4193439483642578,-2.4243407249450684,0.6563655734062195
1683127776832644000,11.44264404296875,0.32026100158691406,-2.5097851753234863,0.7154714465141296
1683127776850485200,11.4604853515625,0.32567787170410156,-2.4649977684020996,0.6525290012359619
1683127776868313600,11.478313720703126,0.473236083984375,-2.429857015609741,0.6752467751502991
1683127776886162200,11.496162109375,0.30619335174560547,-2.4741766452789307,0.6706804633140564
1683127776903997700,11.513997802734375,0.4409208297729492,-2.4547276496887207,0.6143050193786621
1683127776921839600,11.531839599609375,0.4103841781616211,-2.391139268875122,0.6103591918945312
1683127776939680000,11.549679931640625,0.3971710205078125,-2.3991429805755615,0.6961945295333862
1683127776957518300,11.567518310546875,0.42169952392578125,-2.425229549407959,0.6744550466537476
1683127776975357000,11.58535693359375,0.35137176513671875,-2.4222710132598877,0.6396396160125732
1683127776993196000,11.603196044921875,0.45816707611083984,-2.425368547439575,0.6454278230667114
1683127777011036200,11.6210361328125,0.2833414077758789,-2.3821825981140137,0.6558990478515625
1683127777028873700,11.638873779296874,0.44364261627197266,-2.38156795501709,0.589792788028717
1683127777046713000,11.656713134765624,0.40904903411865234,-2.3386309146881104,0.6397793292999268
1683127777064551700,11.6745517578125,0.25123119354248047,-2.4115357398986816,0.7116705179214478
1683127777082392000,11.69239208984375,0.4168071746826172,-2.3459067344665527,0.6196295022964478
1683127777100230000,11.71022998046875,0.2508106231689453,-2.3652143478393555,0.6581280827522278
1683127777118069000,11.728069091796876,0.39411067962646484,-2.375337600708008,0.6966033577919006
1683127777135907600,11.745907470703125,0.41336536407470703,-2.3500351905822754,0.5681861639022827
1683127777153756200,11.763756103515625,0.30594635009765625,-2.340768337249756,0.5897951126098633
1683127777171583700,11.781583740234375,0.3748130798339844,-2.376251459121704,0.6885201930999756
1683127777189426000,11.799426025390625,0.3658618927001953,-2.2932465076446533,0.6131570339202881
1683127777207264300,11.81726416015625,0.4468650817871094,-2.3502116203308105,0.6212564706802368
1683127777225099000,11.83509912109375,0.27857017517089844,-2.364687204360962,0.6000288128852844
1683127777242942000,11.85294189453125,0.40691089630126953,-2.3145127296447754,0.6625803709030151
1683127777260780800,11.87078076171875,0.39014339447021484,-2.3025271892547607,0.5722560882568359
1683127777278619400,11.888619384765626,0.31212902069091797,-2.2980682849884033,0.6092273592948914
1683127777296444200,11.906444091796875,0.35725879669189453,-2.3304905891418457,0.6355897188186646
1683127777314297600,11.924297607421876,0.3320732116699219,-2.3043885231018066,0.6173354387283325
1683127777332136200,11.94213623046875,0.3321037292480469,-2.3114054203033447,0.6338842511177063
1683127777349975600,11.9599755859375,0.23453044891357422,-2.271885395050049,0.6779004335403442
1683127777367815200,11.977815185546875,0.4429740905761719,-2.2837038040161133,0.5881353616714478
1683127777385653500,11.995653564453125,0.36009883880615234,-2.2719881534576416,0.5753328204154968
1683127777403492000,12.0134921875,0.3371877670288086,-2.248507261276245,0.613988995552063
1683127777421331200,12.031331298828125,0.37629127502441406,-2.206350564956665,0.5677409172058105
1683127777439171300,12.04917138671875,0.3254833221435547,-2.2715742588043213,0.6146373152732849
1683127777457009200,12.067009033203124,0.408966064453125,-2.2466845512390137,0.6147477626800537
1683127777474843400,12.084843505859375,0.21487045288085938,-2.2926690578460693,0.653375506401062
1683127777492686800,12.102686767578126,0.3116159439086914,-2.2861552238464355,0.6031690835952759
1683127777510527200,12.12052734375,0.39544105529785156,-2.2191386222839355,0.5871491432189941
1683127777528365000,12.138364990234376,0.20273113250732422,-2.2522456645965576,0.6108443140983582
1683127777546199300,12.15619921875,0.3929414749145508,-2.25421142578125,0.5658170580863953
1683127777564039000,12.174038818359374,0.2920036315917969,-2.17100191116333,0.5619669556617737
1683127777581888500,12.191888427734375,0.38893795013427734,-2.211181879043579,0.6524461507797241
1683127777599720000,12.209719970703125,0.3360729217529297,-2.22166109085083,0.5882773995399475
1683127777617561000,12.22756103515625,0.3196077346801758,-2.2170004844665527,0.5887582898139954
1683127777635398700,12.245398681640625,0.4021787643432617,-2.2179758548736572,0.6157090663909912
1683127777653234700,12.263234619140626,0.236358642578125,-2.1655917167663574,0.583690881729126
1683127777671076900,12.281076904296874,0.4171876907348633,-2.1904964447021484,0.5409677624702454
1683127777688916000,12.298916015625,0.3004894256591797,-2.152439594268799,0.6075156331062317
1683127777706754600,12.316754638671876,0.2369985580444336,-2.22390079498291,0.629486083984375
1683127777724595000,12.334594970703124,0.3307380676269531,-2.1570591926574707,0.5771708488464355
1683127777742432800,12.352432861328126,0.2596464157104492,-2.141221046447754,0.5831679105758667
1683127777760269800,12.370269775390625,0.3131704330444336,-2.1954407691955566,0.6157185435295105
1683127777778110500,12.3881103515625,0.3426218032836914,-2.1597976684570312,0.5111861228942871
1683127777795943200,12.405943115234376,0.2888221740722656,-2.122950315475464,0.5409141778945923
1683127777813791200,12.423791259765625,0.26291847229003906,-2.1739068031311035,0.6434681415557861
1683127777831627300,12.441627197265625,0.33594608306884766,-2.1188087463378906,0.5734286308288574
1683127777849465000,12.459465087890624,0.34570789337158203,-2.1657488346099854,0.5753618478775024
1683127777867302400,12.477302490234376,0.1810140609741211,-2.182568073272705,0.5923770666122437
1683127777885144000,12.49514404296875,0.38279056549072266,-2.103726387023926,0.578190803527832
1683127777902983700,12.512983642578124,0.3080148696899414,-2.089514970779419,0.5162602066993713
1683127777920820700,12.53082080078125,0.2829608917236328,-2.108842134475708,0.5708807706832886
1683127777938663400,12.548663330078124,0.26811790466308594,-2.0932300090789795,0.5681226253509521
1683127777956500200,12.566500244140625,0.3300657272338867,-2.1037960052490234,0.5625085830688477
1683127777974338800,12.5843388671875,0.23824024200439453,-2.1056528091430664,0.5849347710609436
1683127777992178200,12.60217822265625,0.20165443420410156,-2.0823137760162354,0.6400119066238403
1683127778010017800,12.620017822265625,0.45001220703125,-2.107823610305786,0.5268016457557678
1683127778027850500,12.6378505859375,0.2470865249633789,-2.0864219665527344,0.5255299806594849
1683127778045694700,12.65569482421875,0.3000469207763672,-2.0793519020080566,0.6060924530029297
1683127778063533600,12.673533447265624,0.31409454345703125,-2.0265443325042725,0.5356993675231934
1683127778081374000,12.6913740234375,0.3146524429321289,-2.088304281234741,0.5541314482688904
1683127778099211800,12.709211669921874,0.3095884323120117,-2.0904176235198975,0.5409892201423645
1683127778117046000,12.7270458984375,0.2006092071533203,-2.0415141582489014,0.58111971616745
1683127778134889500,12.744889404296876,0.31539440155029297,-2.058290958404541,0.529812216758728
1683127778152729600,12.7627294921875,0.28699302673339844,-2.0112719535827637,0.5290553569793701
1683127778170568000,12.78056787109375,0.17730426788330078,-2.039999008178711,0.561440646648407
1683127778188406800,12.79840673828125,0.3005237579345703,-2.072420597076416,0.5453763008117676
1683127778206245400,12.816245361328125,0.22542476654052734,-2.0036628246307373,0.5265936851501465
1683127778224085500,12.83408544921875,0.35146427154541016,-2.0358169078826904,0.6082431077957153
1683127778241922300,12.85192236328125,0.22223186492919922,-2.051083564758301,0.5405492782592773
1683127778259763500,12.869763427734375,0.3574094772338867,-2.0111355781555176,0.5204759240150452
1683127778277601000,12.88760107421875,0.3046255111694336,-2.00636887550354,0.5443905591964722
1683127778295441200,12.905441162109375,0.2348499298095703,-1.9762680530548096,0.5229789018630981
1683127778313279000,12.923279052734374,0.35500431060791016,-1.9948251247406006,0.503148078918457
1683127778331104000,12.94110400390625,0.20427417755126953,-1.9872620105743408,0.5714868307113647
1683127778348945700,12.958945556640625,0.23572921752929688,-2.0414090156555176,0.5783507823944092
1683127778366799600,12.976799560546874,0.19054794311523438,-2.001483678817749,0.5489212274551392
1683127778384635000,12.994634765625,0.26656627655029297,-1.9621686935424805,0.5185055136680603
1683127778402473700,13.0124736328125,0.22997665405273438,-2.0002102851867676,0.5338183045387268
1683127778420313900,13.03031396484375,0.3019123077392578,-1.9657130241394043,0.4762682318687439
1683127778438151700,13.048151611328125,0.2694253921508789,-1.9181296825408936,0.4788375496864319
1683127778455990800,13.06599072265625,0.21329593658447266,-1.9780690670013428,0.5974141955375671
1683127778473829400,13.083829345703125,0.31355762481689453,-1.9701597690582275,0.5414259433746338
1683127778491656700,13.10165673828125,0.26358890533447266,-1.9682097434997559,0.5222339630126953
1683127778509507600,13.119507568359374,0.15739917755126953,-1.986289143562317,0.5664031505584717
1683127778527347200,13.13734716796875,0.3292255401611328,-1.9170374870300293,0.4996013045310974
1683127778545185500,13.155185546875,0.24409008026123047,-1.8872497081756592,0.4739391803741455
1683127778563007200,13.17300732421875,0.25378990173339844,-1.9438365697860718,0.5329822301864624
1683127778580865800,13.19086572265625,0.16592121124267578,-1.9007391929626465,0.5259662866592407
1683127778598702000,13.2087021484375,0.3171844482421875,-1.9412914514541626,0.5293676853179932
1683127778616523000,13.22652294921875,0.18487167358398438,-1.9259569644927979,0.5227513313293457
1683127778634380300,13.24438037109375,0.16103744506835938,-1.936126708984375,0.5737681984901428
1683127778652220400,13.262220458984375,0.3973045349121094,-1.9417915344238281,0.4756819009780884
1683127778670057700,13.2800576171875,0.1595134735107422,-1.8969941139221191,0.4901459813117981
1683127778687885000,13.297885009765626,0.2891683578491211,-1.9413220882415771,0.5476686954498291
1683127778705736200,13.315736083984374,0.2515687942504883,-1.8653106689453125,0.5072234869003296
1683127778723574000,13.333573974609376,0.29610347747802734,-1.9087549448013306,0.5155020356178284
1683127778741415200,13.351415283203124,0.24085426330566406,-1.9027557373046875,0.504701554775238
1683127778759248400,13.369248291015625,0.19696521759033203,-1.8475065231323242,0.5043196082115173
1683127778777095700,13.387095703125,0.28461360931396484,-1.8746302127838135,0.46873655915260315
1683127778794931700,13.404931640625,0.21805477142333984,-1.8406248092651367,0.4889802634716034
1683127778812769500,13.42276953125,0.15182018280029297,-1.8302254676818848,0.5132343173027039
1683127778830608400,13.4406083984375,0.2009105682373047,-1.8892844915390015,0.5318402647972107
1683127778848447200,13.458447265625,0.1949319839477539,-1.8348711729049683,0.5061322450637817
1683127778866287000,13.476287109375,0.2699003219604492,-1.8636398315429688,0.566591203212738
1683127778884120600,13.49412060546875,0.1586589813232422,-1.8935550451278687,0.4975249469280243
1683127778901964000,13.511964111328124,0.34865474700927734,-1.8309024572372437,0.4504982829093933
1683127778919803400,13.529803466796874,0.2112417221069336,-1.8220300674438477,0.5158900022506714
1683127778937643000,13.54764306640625,0.23631572723388672,-1.8135253190994263,0.48181524872779846
1683127778955481300,13.5654814453125,0.2919740676879883,-1.7966350317001343,0.43140003085136414
1683127778973319700,13.583319580078125,0.206634521484375,-1.8544812202453613,0.5234203338623047
1683127778991142400,13.601142333984376,0.20795249938964844,-1.8415141105651855,0.5124679207801819
1683127779009004500,13.619004638671875,0.13331031799316406,-1.8204059600830078,0.4902374744415283
1683127779026828000,13.636828125,0.28650760650634766,-1.8184934854507446,0.47263455390930176
1683127779044675600,13.654675537109375,0.12779617309570312,-1.8332598209381104,0.49632060527801514
1683127779062514400,13.672514404296875,0.26774024963378906,-1.8181664943695068,0.45283764600753784
1683127779080342800,13.6903427734375,0.19878768920898438,-1.7478818893432617,0.4499512314796448
1683127779098192100,13.708192138671874,0.1768817901611328,-1.8054730892181396,0.5462673902511597
1683127779116031200,13.72603125,0.2900238037109375,-1.7944992780685425,0.49732866883277893
1683127779133871400,13.743871337890624,0.21817874908447266,-1.7650960683822632,0.4336892366409302
1683127779151710500,13.76171044921875,0.1678915023803711,-1.8102850914001465,0.5237340927124023
1683127779169547500,13.779547607421875,0.2458810806274414,-1.7413716316223145,0.4473852813243866
1683127779187384800,13.797384765625,0.22126007080078125,-1.6977522373199463,0.41068288683891296
1683127779205224400,13.815224365234375,0.19330692291259766,-1.7854877710342407,0.5257203578948975
1683127779223064600,13.833064697265625,0.11174583435058594,-1.7424862384796143,0.487564355134964
1683127779240905700,13.85090576171875,0.3070335388183594,-1.7813568115234375,0.4995248019695282
1683127779258740000,13.868739990234374,0.10394573211669922,-1.7630681991577148,0.4837633967399597
1683127779276573000,13.886572998046875,0.1557455062866211,-1.777635931968689,0.495137095451355
1683127779294410000,13.904409912109376,0.3370075225830078,-1.7552622556686401,0.4312001168727875
1683127779312259600,13.922259521484374,0.13266563415527344,-1.7124947309494019,0.43859195709228516
1683127779330097200,13.94009716796875,0.2492198944091797,-1.766683578491211,0.5009901523590088
1683127779347932000,13.957931884765625,0.15898418426513672,-1.716107964515686,0.47585979104042053
1683127779365777400,13.97577734375,0.2905130386352539,-1.7411803007125854,0.46443289518356323
1683127779383615500,13.993615478515625,0.14821720123291016,-1.7454379796981812,0.4833718538284302
1683127779401454300,14.011454345703125,0.20746326446533203,-1.6926398277282715,0.4451347887516022
1683127779419293200,14.029293212890625,0.25891780853271484,-1.6862186193466187,0.40941786766052246
1683127779437133000,14.047133056640625,0.16561508178710938,-1.6874955892562866,0.46502408385276794
1683127779454971100,14.06497119140625,0.16725730895996094,-1.6624901294708252,0.4527527093887329
1683127779472805000,14.08280517578125,0.14049911499023438,-1.7314784526824951,0.48116347193717957
1683127779490640000,14.100639892578124,0.17521953582763672,-1.7034721374511719,0.4936746060848236
1683127779508489200,14.1184892578125,0.22571945190429688,-1.6744117736816406,0.50244140625
1683127779526321700,14.13632177734375,0.12221336364746094,-1.7200582027435303,0.4446660280227661
1683127779544165400,14.154165283203126,0.2793865203857422,-1.6784837245941162,0.3980571925640106
1683127779561993000,14.171992919921875,0.16418075561523438,-1.633176326751709,0.4817679524421692
1683127779579843600,14.189843505859375,0.20395183563232422,-1.6673474311828613,0.4685703217983246
1683127779597683500,14.207683349609376,0.24575233459472656,-1.6267430782318115,0.3894982933998108
1683127779615521000,14.22552099609375,0.2310047149658203,-1.7179615497589111,0.45854008197784424
1683127779633360400,14.2433603515625,0.1684732437133789,-1.6665974855422974,0.4639802575111389
1683127779651199200,14.26119921875,0.12506484985351562,-1.6680715084075928,0.4385390877723694
1683127779669039400,14.279039306640625,0.2888021469116211,-1.667675256729126,0.4424470067024231
1683127779686873900,14.296873779296876,0.05452442169189453,-1.646857500076294,0.4602475166320801
1683127779704716300,14.31471630859375,0.23762130737304688,-1.6716742515563965,0.43340855836868286
1683127779722555400,14.332555419921874,0.10436439514160156,-1.6170768737792969,0.4382628798484802
1683127779740396800,14.350396728515625,0.1926727294921875,-1.6306724548339844,0.5076327323913574
1683127779758232300,14.368232421875,0.22591018676757812,-1.6402944326400757,0.4489783048629761
1683127779776058400,14.386058349609375,0.17908000946044922,-1.6043254137039185,0.3679138720035553
1683127779793907700,14.40390771484375,0.19605445861816406,-1.625719666481018,0.46563124656677246
1683127779811746600,14.42174658203125,0.14765167236328125,-1.5921332836151123,0.42693525552749634
1683127779829589800,14.43958984375,0.24336814880371094,-1.5437254905700684,0.3617871105670929
1683127779847422000,14.457421875,0.0971078872680664,-1.6528418064117432,0.5023864507675171
1683127779865268700,14.475268798828125,0.08257102966308594,-1.632079839706421,0.4542590379714966
1683127779883105300,14.493105224609375,0.24396324157714844,-1.638774037361145,0.4466623067855835
1683127779900942600,14.510942626953126,0.03770732879638672,-1.631353497505188,0.4629083573818207
1683127779918783700,14.52878369140625,0.17923355102539062,-1.6291086673736572,0.4464321434497833
1683127779936622600,14.54662255859375,0.2503023147583008,-1.5831035375595093,0.37510427832603455
1683127779954461000,14.5644609375,0.16149520874023438,-1.5552350282669067,0.41815268993377686
1683127779972298500,14.582298583984375,0.21004199981689453,-1.5672566890716553,0.44258391857147217
1683127779990139400,14.600139404296876,0.14675426483154297,-1.5837798118591309,0.43378549814224243
1683127780007978500,14.617978515625,0.2483072280883789,-1.582061767578125,0.4145766496658325
1683127780025809700,14.6358095703125,0.0633993148803711,-1.5822147130966187,0.45430636405944824
1683127780043655400,14.653655517578125,0.21608543395996094,-1.5555260181427002,0.41258877515792847
1683127780061494000,14.671493896484375,0.16930103302001953,-1.5365995168685913,0.3805311322212219
1683127780079334700,14.689334716796875,0.15801239013671875,-1.5591731071472168,0.4418056607246399
1683127780097171700,14.707171630859374,0.12125682830810547,-1.528178334236145,0.41262567043304443
1683127780115011300,14.72501123046875,0.1264352798461914,-1.568328857421875,0.42622119188308716
1683127780132849700,14.742849609375,0.1697683334350586,-1.5471757650375366,0.4645448327064514
1683127780150689800,14.760689697265626,0.1497325897216797,-1.5240342617034912,0.4226451516151428
1683127780168528000,14.77852783203125,0.14685821533203125,-1.5770931243896484,0.4009813666343689
1683127780186364200,14.7963642578125,0.17597484588623047,-1.5324238538742065,0.3756221532821655
1683127780204207900,14.814207763671876,0.1601409912109375,-1.4724431037902832,0.41464969515800476
1683127780222025200,14.832025146484375,0.16597366333007812,-1.5393643379211426,0.45587947964668274
1683127780239884800,14.849884765625,0.15639209747314453,-1.4981441497802734,0.3712000846862793
1683127780257722000,14.86772216796875,0.22086238861083984,-1.5588362216949463,0.41729575395584106
1683127780275558400,14.885558349609376,0.10111427307128906,-1.5128949880599976,0.4190528690814972
1683127780293402000,14.903402099609375,0.15674686431884766,-1.4911057949066162,0.3708299696445465
1683127780311240000,14.921239990234374,0.2364501953125,-1.4815435409545898,0.4008067846298218
1683127780329077800,14.939077880859376,0.04079246520996094,-1.494823694229126,0.44127488136291504
1683127780346916400,14.956916259765626,0.17510986328125,-1.5294089317321777,0.41002994775772095
1683127780364756500,14.974756591796876,0.058086395263671875,-1.488432765007019,0.42815113067626953
1683127780382594800,14.9925947265625,0.20017433166503906,-1.4731833934783936,0.46274420619010925
1683127780400421600,15.010421630859375,0.14770126342773438,-1.517807960510254,0.40605050325393677
1683127780418272500,15.0282724609375,0.18007564544677734,-1.475590705871582,0.33813467621803284
1683127780436112400,15.0461123046875,0.18689918518066406,-1.4647613763809204,0.4313141107559204
1683127780453946400,15.0639462890625,0.12728023529052734,-1.4489789009094238,0.40331560373306274
1683127780471789000,15.0817890625,0.2087564468383789,-1.4214050769805908,0.3388712406158447
1683127780489625300,15.099625244140626,0.06290149688720703,-1.5281336307525635,0.4289625585079193
1683127780507469300,15.11746923828125,0.10784244537353516,-1.4831013679504395,0.4302899241447449
1683127780525305900,15.135305908203126,0.1811504364013672,-1.4494578838348389,0.35908666253089905
1683127780543143700,15.153143798828125,0.044060707092285156,-1.4691188335418701,0.406516432762146
1683127780560984600,15.170984619140626,0.13361835479736328,-1.4794628620147705,0.3984685242176056
1683127780578813000,15.18881298828125,0.18571853637695312,-1.4062221050262451,0.3371138274669647
1683127780596661200,15.2066611328125,0.09875202178955078,-1.443917989730835,0.4113781154155731
1683127780614495500,15.22449560546875,0.15794849395751953,-1.4040005207061768,0.4003432095050812
1683127780632339000,15.2423388671875,0.2226428985595703,-1.4610536098480225,0.41060271859169006
1683127780650179300,15.260179443359375,0.177276611328125,-1.4424138069152832,0.3535155653953552
1683127780668017000,15.278016845703124,0.03570079803466797,-1.4318422079086304,0.41043153405189514
1683127780685854200,15.295854248046876,0.23025989532470703,-1.4191813468933105,0.381316602230072
1683127780703696400,15.3136962890625,0.12218856811523438,-1.3948957920074463,0.3635638952255249
1683127780721534700,15.33153466796875,0.15429306030273438,-1.4430018663406372,0.4176948666572571
1683127780739372500,15.34937255859375,0.014794349670410156,-1.4144530296325684,0.4007205367088318
1683127780757211400,15.36721142578125,0.16450881958007812,-1.413090467453003,0.37554866075515747
1683127780775050200,15.38505029296875,0.12141799926757812,-1.399848461151123,0.39741045236587524
1683127780792890000,15.40289013671875,0.09915924072265625,-1.401342749595642,0.3483518958091736
1683127780810728000,15.42072802734375,0.19815635681152344,-1.4060218334197998,0.3315174877643585
1683127780828566800,15.43856689453125,0.08716392517089844,-1.4004921913146973,0.3587595820426941
1683127780846405600,15.456405517578125,0.1820354461669922,-1.3459135293960571,0.3826875388622284
1683127780864241200,15.4742412109375,0.09863948822021484,-1.4293184280395508,0.4227813482284546
1683127780882083600,15.49208349609375,0.13579082489013672,-1.3956444263458252,0.3553047180175781
1683127780899922700,15.509922607421874,0.1995229721069336,-1.4092434644699097,0.38033565878868103
1683127780917761500,15.527761474609376,0.0336761474609375,-1.381277084350586,0.3871721029281616
1683127780935596800,15.5455966796875,0.2018442153930664,-1.35007643699646,0.3063484728336334
1683127780953439000,15.56343896484375,0.17864322662353516,-1.3361334800720215,0.3587118089199066
1683127780971278300,15.5812783203125,0.046113014221191406,-1.3623569011688232,0.40679338574409485
1683127780989117000,15.599116943359375,0.14119625091552734,-1.3588814735412598,0.3510304093360901
1683127781006957000,15.61695703125,0.030500411987304688,-1.367868185043335,0.3988766670227051
1683127781024795000,15.634794921875,0.2046346664428711,-1.365147590637207,0.40971046686172485
1683127781042633700,15.6526337890625,0.07415485382080078,-1.369549036026001,0.3545685410499573
1683127781060471300,15.67047119140625,0.18723201751708984,-1.351897954940796,0.3157155513763428
1683127781078314000,15.68831396484375,0.13919925689697266,-1.3289210796356201,0.39978712797164917
1683127781096150300,15.706150390625,0.11045265197753906,-1.3472354412078857,0.38975790143013
1683127781113985800,15.72398583984375,0.19887733459472656,-1.3021657466888428,0.3118423819541931
1683127781131828500,15.741828369140626,0.0579071044921875,-1.3779346942901611,0.3393423557281494
1683127781149668000,15.759668212890626,0.11768722534179688,-1.3411504030227661,0.41053691506385803
1683127781167505700,15.777505615234375,0.1593313217163086,-1.2945842742919922,0.28896364569664
1683127781185340200,15.795340087890626,0.061852455139160156,-1.3213541507720947,0.35652536153793335
1683127781203183400,15.813183349609375,0.05393028259277344,-1.3552114963531494,0.4001794159412384
1683127781221023500,15.8310234375,0.14328289031982422,-1.2597789764404297,0.30828607082366943
1683127781238861600,15.848861572265625,0.0763092041015625,-1.3157010078430176,0.3976626396179199
1683127781256695600,15.866695556640625,0.0806112289428711,-1.2981466054916382,0.3882969617843628
1683127781274539000,15.8845390625,0.2332935333251953,-1.326561450958252,0.3624280095100403
1683127781292379000,15.90237890625,0.0920095443725586,-1.3208973407745361,0.3209567368030548
1683127781310215400,15.92021533203125,0.07042789459228516,-1.2965712547302246,0.3677864670753479
1683127781328056800,15.938056884765626,0.2131061553955078,-1.282703161239624,0.3384891748428345
1683127781345894700,15.955894775390625,0.12297916412353516,-1.2702661752700806,0.32323718070983887
1683127781363734300,15.973734375,0.1229562759399414,-1.3153042793273926,0.3850352466106415
1683127781381571300,15.9915712890625,-0.015156745910644531,-1.3018999099731445,0.3837543725967407
1683127781399413000,16.0094130859375,0.2070941925048828,-1.2769629955291748,0.32342228293418884
1683127781417250000,16.02725,0.03541851043701172,-1.2954643964767456,0.36274254322052
1683127781435090200,16.045090087890625,0.07274436950683594,-1.3049063682556152,0.31862014532089233
1683127781452928300,16.06292822265625,0.1925792694091797,-1.2586095333099365,0.3009384870529175
1683127781470766600,16.0807666015625,0.024092674255371094,-1.2701398134231567,0.34955209493637085
1683127781488605700,16.098605712890624,0.15732192993164062,-1.214157223701477,0.3623918890953064
1683127781506441200,16.116441162109375,0.0372161865234375,-1.3087751865386963,0.3712114691734314
1683127781524283600,16.13428369140625,0.15506362915039062,-1.284786581993103,0.34694957733154297
1683127781542111500,16.152111572265625,0.1280374526977539,-1.2480202913284302,0.3386566638946533
1683127781559964000,16.1699638671875,0.02266693115234375,-1.2350530624389648,0.33981844782829285
1683127781577796600,16.187796630859374,0.1982746124267578,-1.2473245859146118,0.29149943590164185
1683127781595639000,16.20563916015625,0.1245718002319336,-1.2023080587387085,0.32447800040245056
1683127781613478000,16.223477783203126,0.07300472259521484,-1.2673943042755127,0.38140085339546204
1683127781631315500,16.2413154296875,0.08783531188964844,-1.2300443649291992,0.3060244917869568
1683127781649158000,16.259157958984375,0.07967090606689453,-1.2329826354980469,0.3749278783798218
1683127781666994200,16.276994140625,0.15262126922607422,-1.2490344047546387,0.36250489950180054
1683127781684833500,16.29483349609375,0.05664634704589844,-1.2582166194915771,0.3008778691291809
1683127781702670800,16.3126708984375,0.1502237319946289,-1.258216381072998,0.30467653274536133
1683127781720513500,16.330513427734374,0.06438446044921875,-1.2065013647079468,0.37373971939086914
1683127781738349600,16.348349609375,0.1201944351196289,-1.2416433095932007,0.35720396041870117
1683127781756189000,16.36618896484375,0.12222003936767578,-1.2019593715667725,0.3089914917945862
1683127781774024000,16.38402392578125,0.06227874755859375,-1.2378102540969849,0.29398414492607117
1683127781791867400,16.401867431640625,0.1043701171875,-1.208165168762207,0.3431517481803894
1683127781809705200,16.419705322265624,0.12299823760986328,-1.1746420860290527,0.25825634598731995
1683127781827539700,16.437539794921875,0.09428977966308594,-1.1771539449691772,0.3160027861595154
1683127781845383200,16.455383056640624,-0.038962364196777344,-1.222660779953003,0.3917308747768402
1683127781863212500,16.473212646484374,0.15494823455810547,-1.171716332435608,0.2883516550064087
1683127781881060900,16.491060791015624,0.03220558166503906,-1.2138625383377075,0.36839649081230164
1683127781898900000,16.50889990234375,0.006641387939453125,-1.2019007205963135,0.38080042600631714
1683127781916738600,16.526738525390623,0.23399829864501953,-1.1882641315460205,0.297658771276474
1683127781934578700,16.54457861328125,0.06347465515136719,-1.1907709836959839,0.2981748580932617
1683127781952415500,16.56241552734375,0.10314559936523438,-1.1813886165618896,0.3437291979789734
1683127781970256400,16.58025634765625,0.17201614379882812,-1.1377723217010498,0.2793051302433014
1683127781988094200,16.59809423828125,0.14754772186279297,-1.1522526741027832,0.3011305034160614
1683127782005934300,16.615934326171875,0.08197689056396484,-1.2061265707015991,0.3287455439567566
1683127782023772000,16.63377197265625,-0.027993202209472656,-1.183868408203125,0.36289411783218384
1683127782041611000,16.651611083984374,0.19898605346679688,-1.1756579875946045,0.2857407331466675
1683127782059448600,16.669448486328125,0.00878143310546875,-1.1590354442596436,0.3290719985961914
1683127782077291000,16.687291015625,0.06585979461669922,-1.1898772716522217,0.31472688913345337
1683127782095115300,16.705115234375,0.16601943969726562,-1.1329967975616455,0.27222979068756104
1683127782112966400,16.72296630859375,0.006710052490234375,-1.1685152053833008,0.34845781326293945
1683127782130805000,16.740804931640625,0.1283588409423828,-1.1143333911895752,0.35713282227516174
1683127782148645600,16.758645751953125,0.05521106719970703,-1.1563501358032227,0.3109017014503479
1683127782166482400,16.776482421875,0.14266490936279297,-1.174347162246704,0.30644309520721436
1683127782184321800,16.79432177734375,0.09282970428466797,-1.114349126815796,0.31183499097824097
1683127782202160600,16.81216064453125,0.027330398559570312,-1.1114826202392578,0.29040956497192383
1683127782220000500,16.83000048828125,0.11779403686523438,-1.1429060697555542,0.2900621294975281
1683127782237838000,16.847838134765624,0.08853816986083984,-1.1016156673431396,0.30281931161880493
1683127782255677400,16.865677490234376,0.05303478240966797,-1.1832138299942017,0.3517110049724579
1683127782273514800,16.8835146484375,0.01620197296142578,-1.1470880508422852,0.286654531955719
1683127782291357200,16.901357177734376,0.12492084503173828,-1.1169281005859375,0.3322916030883789
1683127782309193500,16.919193359375,0.09178352355957031,-1.14894437789917,0.2979719042778015
1683127782327032300,16.9370322265625,0.09417533874511719,-1.1271331310272217,0.2670665383338928
1683127782344866800,16.95486669921875,0.12420272827148438,-1.1181857585906982,0.2771329879760742
1683127782362699500,16.972699462890624,0.043814659118652344,-1.0975929498672485,0.3517802357673645
1683127782380549600,16.990549560546874,0.13503265380859375,-1.1442303657531738,0.3327142000198364
1683127782398388500,17.008388427734374,0.034542083740234375,-1.1123813390731812,0.3013041615486145
1683127782416230100,17.026230224609375,0.1066131591796875,-1.1005754470825195,0.2813398241996765
1683127782434067500,17.0440673828125,0.0841827392578125,-1.0767948627471924,0.30384892225265503
1683127782451904800,17.06190478515625,0.12274742126464844,-1.0648224353790283,0.2304922640323639
1683127782469743900,17.079743896484374,0.1245880126953125,-1.0471181869506836,0.27381256222724915
1683127782487582200,17.097582275390625,-0.05497169494628906,-1.1305689811706543,0.361417680978775
1683127782505422300,17.11542236328125,0.15262794494628906,-1.0831844806671143,0.28881847858428955
1683127782523260200,17.13326025390625,-0.013243675231933594,-1.102442979812622,0.33617067337036133
1683127782541099000,17.15109912109375,0.021956443786621094,-1.1080182790756226,0.35128188133239746
1683127782558937600,17.1689375,0.2094106674194336,-1.0803437232971191,0.24368688464164734
1683127782576777500,17.186777587890624,0.024725914001464844,-1.060509443283081,0.25786668062210083
1683127782594610700,17.204610595703127,0.09086799621582031,-1.1069875955581665,0.32171905040740967
1683127782612454400,17.222454345703124,0.09765434265136719,-1.0248602628707886,0.2679423987865448
1683127782630293000,17.24029296875,0.16045570373535156,-1.0688037872314453,0.2875940203666687
1683127782648132900,17.2581328125,0.03622913360595703,-1.09608793258667,0.2742651700973511
1683127782665966300,17.27596630859375,-0.006655693054199219,-1.0610508918762207,0.33296793699264526
1683127782683809800,17.293809814453127,0.19844532012939453,-1.0689692497253418,0.25467395782470703
1683127782701648400,17.3116484375,-0.006443023681640625,-1.0453698635101318,0.28789517283439636
1683127782719478000,17.32947802734375,0.045024871826171875,-1.0997834205627441,0.3102531433105469
1683127782737327000,17.3473271484375,0.10838508605957031,-1.0231752395629883,0.2631956934928894
1683127782755165400,17.36516552734375,0.024988174438476562,-1.0661481618881226,0.3192548453807831
1683127782773003800,17.383003662109374,0.0895528793334961,-1.0205657482147217,0.3393208980560303
1683127782790834200,17.400834228515624,0.09794902801513672,-1.0365900993347168,0.247406005859375
1683127782808680700,17.4186806640625,0.13405513763427734,-1.0518765449523926,0.2585325837135315
1683127782826508800,17.4365087890625,0.06129741668701172,-1.0120043754577637,0.29180169105529785
1683127782844359400,17.454359375,0.06441974639892578,-0.9941792488098145,0.2589365243911743
1683127782862197200,17.472197265625,0.069305419921875,-1.0481932163238525,0.2831432819366455
1683127782880030700,17.49003076171875,0.07174015045166016,-1.043149471282959,0.27194592356681824
1683127782897876000,17.5078759765625,0.035247802734375,-1.0813087224960327,0.3280165195465088
1683127782915708400,17.52570849609375,-0.028558731079101562,-1.0615423917770386,0.2842559814453125
1683127782933556500,17.543556396484377,0.1634998321533203,-0.9979878664016724,0.2778005599975586
1683127782951392800,17.561392822265624,0.0008687973022460938,-1.0347323417663574,0.2836589217185974
1683127782969231400,17.5792314453125,0.08564090728759766,-1.029897928237915,0.24186915159225464
1683127782987065300,17.5970654296875,0.07131481170654297,-0.9939934015274048,0.23832306265830994
1683127783004910300,17.614910400390624,0.08117103576660156,-0.997322142124176,0.3313902020454407
1683127783022748000,17.632747802734375,0.1232757568359375,-1.022567868232727,0.2837204337120056
1683127783040585700,17.650585693359375,0.009355545043945312,-1.022870421409607,0.2741836607456207
1683127783058426600,17.668426513671875,0.13629817962646484,-1.0144596099853516,0.28427833318710327
1683127783076265500,17.686265380859375,0.019323348999023438,-0.9708172678947449,0.2577330470085144
1683127783094091500,17.704091552734376,0.1191244125366211,-0.9873714447021484,0.23183828592300415
1683127783111942100,17.721942138671874,0.08684253692626953,-0.9498391151428223,0.26720452308654785
1683127783129780700,17.73978076171875,-0.055840492248535156,-1.0330500602722168,0.31996405124664307
1683127783147620900,17.757620849609374,0.13829803466796875,-0.9885199069976807,0.2734086215496063
1683127783165458400,17.77545849609375,-0.028224945068359375,-0.9730602502822876,0.27555781602859497
1683127783183297800,17.7932978515625,0.032319068908691406,-1.039926290512085,0.3104187846183777
1683127783201136400,17.811136474609373,0.1403188705444336,-0.9801218509674072,0.2117232382297516
1683127783218964200,17.828964111328126,0.021997451782226562,-0.9436066746711731,0.22655299305915833
1683127783236809500,17.8468095703125,0.06947708129882812,-1.0119717121124268,0.3266013264656067
1683127783254653000,17.86465283203125,0.0763711929321289,-0.9360576272010803,0.25543057918548584
1683127783272491500,17.882491455078124,0.18686962127685547,-0.9971160888671875,0.269498348236084
1683127783290320000,17.90031982421875,0.00010395050048828125,-1.0036450624465942,0.24531537294387817
1683127783308169500,17.91816943359375,0.053859710693359375,-0.9533730149269104,0.2805428206920624
1683127783326003200,17.936003173828126,0.15740203857421875,-0.9564165472984314,0.2126057744026184
1683127783343847000,17.953846923828124,0.0011205673217773438,-0.9409109354019165,0.2628878653049469
1683127783361685500,17.971685546875,0.024725914001464844,-0.9917678833007812,0.2965870499610901
1683127783379524900,17.98952490234375,0.03786659240722656,-0.9369895458221436,0.24851727485656738
1683127783397364700,18.00736474609375,0.05671977996826172,-0.9673320651054382,0.2914547026157379
1683127783415202300,18.025202392578127,-0.0021867752075195312,-0.9619145393371582,0.32327938079833984
1683127783433030400,18.043030517578124,0.12642288208007812,-0.9526494741439819,0.21187815070152283
1683127783450880000,18.0608798828125,0.10875129699707031,-0.9443916082382202,0.21460320055484772
1683127783468718800,18.07871875,0.03249359130859375,-0.9321097731590271,0.29100969433784485
1683127783486557400,18.096557373046874,0.1123809814453125,-0.8913030028343201,0.21982792019844055
1683127783504395000,18.11439501953125,0.048211097717285156,-0.9530917406082153,0.2575984001159668
1683127783522239000,18.132239013671875,0.07369136810302734,-0.9700412750244141,0.2549697458744049
1683127783540071200,18.1500712890625,0.0054454803466796875,-0.9485787153244019,0.28623878955841064
1683127783557909000,18.167908935546876,-0.021409034729003906,-0.9530186653137207,0.24033118784427643
1683127783575755300,18.18575537109375,0.1339874267578125,-0.9168472290039062,0.22848691046237946
1683127783593590500,18.203590576171877,-0.03286170959472656,-0.9112612009048462,0.24824553728103638
1683127783611429600,18.2214296875,0.0890645980834961,-0.9422672986984253,0.22417894005775452
1683127783629268200,18.239268310546876,0.027457237243652344,-0.8707225322723389,0.21207070350646973
1683127783647108400,18.2571083984375,0.09945392608642578,-0.9056733250617981,0.32395994663238525
1683127783664946000,18.27494580078125,0.09645938873291016,-0.951999306678772,0.2403305172920227
1683127783682784000,18.292783935546876,0.016206741333007812,-0.93491530418396,0.24477505683898926
1683127783700625000,18.310625,0.14003276824951172,-0.9324525594711304,0.27400991320610046
1683127783718463700,18.328463623046876,0.005345344543457031,-0.874515175819397,0.23272651433944702
1683127783736301000,18.346301025390623,0.13347339630126953,-0.9261823892593384,0.22620093822479248
1683127783754140700,18.364140625,0.02749919891357422,-0.8833819627761841,0.2585262358188629
1683127783771979000,18.38197900390625,-0.022836685180664062,-0.9438483119010925,0.29181864857673645
1683127783789811000,18.39981103515625,0.09811115264892578,-0.8930671811103821,0.23606149852275848
1683127783807659000,18.417658935546875,-0.016745567321777344,-0.8689911365509033,0.2257915586233139
1683127783825495300,18.435495361328126,0.06326580047607422,-0.9325989484786987,0.24396058917045593
1683127783843334100,18.453334228515626,0.07082748413085938,-0.8939638733863831,0.19837093353271484
1683127783861174300,18.47117431640625,0.028415679931640625,-0.8311820030212402,0.19790326058864594
1683127783879012000,18.48901220703125,0.008961677551269531,-0.9243640899658203,0.306146502494812
1683127783896851200,18.506851318359374,0.08256149291992188,-0.8799274563789368,0.24879249930381775
1683127783914689500,18.524689453125,0.1411151885986328,-0.9219269752502441,0.2418801337480545
1683127783932529700,18.54252978515625,-0.05943584442138672,-0.9267728924751282,0.26853445172309875
1683127783950367700,18.56036767578125,0.12557601928710938,-0.8480139374732971,0.24478638172149658
1683127783968206000,18.5782060546875,0.1047821044921875,-0.8408395051956177,0.18608532845973969
1683127783986045000,18.596044921875,0.04616260528564453,-0.8491643667221069,0.255359411239624
1683127784003881200,18.613881103515624,-0.009114265441894531,-0.8680214285850525,0.250557005405426
1683127784021721300,18.631721435546876,0.05398750305175781,-0.8713365793228149,0.23346784710884094
1683127784039562500,18.6495625,0.044734954833984375,-0.8710927963256836,0.26359057426452637
1683127784057397500,18.6673974609375,-0.08768367767333984,-0.8950813412666321,0.28475022315979004
1683127784075244000,18.685244140625,0.16388988494873047,-0.8832094669342041,0.18615156412124634
1683127784093077800,18.703077880859375,0.011473655700683594,-0.8423468470573425,0.19726696610450745
1683127784110916600,18.72091650390625,0.06211090087890625,-0.8573342561721802,0.28979867696762085
1683127784128755500,18.73875537109375,0.0816946029663086,-0.8111405372619629,0.2005251944065094
1683127784146595000,18.756594970703127,0.048844337463378906,-0.8755221366882324,0.23132997751235962
1683127784164433400,18.774433349609374,0.11203670501708984,-0.8873251080513,0.22788628935813904
1683127784182272000,18.79227197265625,-0.010924339294433594,-0.8244345188140869,0.24549634754657745
1683127784200110800,18.81011083984375,0.03239727020263672,-0.8653641939163208,0.2092961221933365
1683127784217950700,18.82795068359375,0.06742572784423828,-0.841128945350647,0.20771968364715576
1683127784235786800,18.845786865234373,-0.04669666290283203,-0.8059493899345398,0.24032264947891235
1683127784253629200,18.863629150390626,0.07279109954833984,-0.8706629276275635,0.2350892722606659
1683127784271466000,18.881466064453125,-0.044226646423339844,-0.8104465007781982,0.22012674808502197
1683127784289305900,18.899305908203125,0.11830997467041016,-0.8404318690299988,0.30285653471946716
1683127784307144000,18.91714404296875,0.04007148742675781,-0.8693897128105164,0.20317941904067993
1683127784324978000,18.93497802734375,0.05905914306640625,-0.8390474319458008,0.19438236951828003
1683127784342821400,18.9528212890625,0.11501407623291016,-0.8229057788848877,0.25021249055862427
1683127784360661500,18.97066162109375,-0.0058345794677734375,-0.7924473285675049,0.21643777191638947
1683127784378498800,18.988498779296876,0.11766433715820312,-0.835155725479126,0.20412307977676392
1683127784396338200,19.006338134765624,-0.007740974426269531,-0.8368697762489319,0.24520552158355713
1683127784414176500,19.024176513671875,0.023097991943359375,-0.8503274917602539,0.2579522132873535
1683127784432017000,19.042016845703124,-0.001598358154296875,-0.8362835645675659,0.22436121106147766
1683127784449853200,19.059853271484375,0.0592041015625,-0.8000203967094421,0.19462907314300537
1683127784467694300,19.0776943359375,0.016808509826660156,-0.8275220394134521,0.22224658727645874
1683127784485529000,19.095529052734374,0.05206489562988281,-0.8068997263908386,0.19229847192764282
1683127784503374800,19.113374755859375,0.04657459259033203,-0.7542451620101929,0.18260827660560608
1683127784521205800,19.131205810546874,-0.018013954162597656,-0.8248820304870605,0.28806978464126587
1683127784539052300,19.14905224609375,0.0864114761352539,-0.836947500705719,0.23909470438957214
1683127784556887000,19.166886962890626,0.07186126708984375,-0.8021414279937744,0.19710680842399597
1683127784574727200,19.18472705078125,-0.07279777526855469,-0.8294910788536072,0.2615901827812195
1683127784592564700,19.202564697265625,0.1076669692993164,-0.7870767712593079,0.1981114000082016
1683127784610403600,19.220403564453125,0.06646060943603516,-0.7281264066696167,0.16214510798454285
1683127784628242200,19.2382421875,0.027812957763671875,-0.7962168455123901,0.24979731440544128
1683127784646077700,19.25607763671875,-0.03159523010253906,-0.7896369099617004,0.2028806060552597
1683127784663916300,19.273916259765624,0.10975933074951172,-0.8126957416534424,0.23759262263774872
1683127784681759200,19.29175927734375,0.010176658630371094,-0.8014927506446838,0.21964451670646667
1683127784699596500,19.309596435546876,-0.08640861511230469,-0.8288923501968384,0.24988937377929688
1683127784717428500,19.327428466796874,0.18543529510498047,-0.820171594619751,0.18556606769561768
1683127784735263000,19.345262939453125,-0.025106430053710938,-0.7559206485748291,0.19229784607887268
1683127784753115100,19.363115234375,0.06627273559570312,-0.8135263919830322,0.24795256555080414
1683127784770952000,19.380951904296875,0.037108421325683594,-0.7617001533508301,0.20416630804538727
1683127784788794000,19.398794189453124,0.09849166870117188,-0.7770942449569702,0.2102176547050476
1683127784806630400,19.41663037109375,0.023786544799804688,-0.7827061414718628,0.2287282645702362
1683127784824469500,19.434469482421875,0.018029212951660156,-0.7367848753929138,0.18593786656856537
1683127784842308400,19.452308349609375,0.08848094940185547,-0.7534428834915161,0.1635526716709137
1683127784860148200,19.470148193359375,0.0009174346923828125,-0.7515883445739746,0.2101626992225647
1683127784877985500,19.487985595703126,-0.015271186828613281,-0.730205237865448,0.20970919728279114
1683127784895812600,19.5058125,-0.028761863708496094,-0.7959253191947937,0.23400628566741943
1683127784913663700,19.523663818359374,-0.0075397491455078125,-0.761398434638977,0.23787100613117218
1683127784931503600,19.541503662109374,0.1084299087524414,-0.7627506852149963,0.26212775707244873
1683127784949341000,19.5593408203125,-0.025574684143066406,-0.8066408038139343,0.20753522217273712
1683127784967175200,19.577175048828124,0.10823822021484375,-0.7656923532485962,0.17265719175338745
1683127784985018000,19.59501806640625,0.052689552307128906,-0.7443189024925232,0.22642965614795685
1683127785002859300,19.612859375,0.06087207794189453,-0.7206516861915588,0.21071387827396393
1683127785020694500,19.630694580078124,0.06738758087158203,-0.7283825874328613,0.15409624576568604
1683127785038535200,19.64853515625,-0.014639854431152344,-0.7816731929779053,0.23332124948501587
1683127785056375000,19.666375,0.03265857696533203,-0.7729946374893188,0.22989334166049957
1683127785074212600,19.684212646484376,-0.047695159912109375,-0.7448598146438599,0.18950402736663818
1683127785092050200,19.70205029296875,0.07476329803466797,-0.7555161118507385,0.186469167470932
1683127785109878000,19.7198779296875,-0.05970001220703125,-0.7457842230796814,0.21739351749420166
1683127785127729000,19.73772900390625,0.06889533996582031,-0.7509908676147461,0.19212409853935242
1683127785145568800,19.75556884765625,0.0043506622314453125,-0.6896497011184692,0.18604359030723572
1683127785163406300,19.77340625,0.0036783218383789062,-0.7324694991111755,0.25604456663131714
1683127785181234000,19.79123388671875,0.10394287109375,-0.7493027448654175,0.2194649875164032
1683127785199084300,19.809084228515626,0.049533843994140625,-0.7163336277008057,0.1459781974554062
1683127785216924400,19.82692431640625,-0.029723167419433594,-0.7543623447418213,0.2463875561952591
1683127785234761700,19.84476171875,0.054467201232910156,-0.7210707664489746,0.19021549820899963
1683127785252600800,19.862600830078126,0.07614994049072266,-0.6610476970672607,0.12966887652873993
1683127785270439700,19.880439697265626,0.013772964477539062,-0.7433677911758423,0.25395625829696655
1683127785288280300,19.8982802734375,-0.08277606964111328,-0.7403678297996521,0.19820460677146912
1683127785306117000,19.9161171875,0.13457202911376953,-0.7315351963043213,0.21127092838287354
1683127785323952000,19.9339521484375,-0.04527568817138672,-0.7306650280952454,0.19371813535690308
1683127785341793800,19.951793701171876,-0.04173088073730469,-0.7439438700675964,0.2014228254556656
1683127785359636000,19.969635986328125,0.17285823822021484,-0.7170888781547546,0.14361898601055145
1683127785377472500,19.987472412109376,-0.029901504516601562,-0.6835106611251831,0.1786523163318634
1683127785395305700,20.0053056640625,0.08012104034423828,-0.7256090641021729,0.23208647966384888
1683127785413149000,20.02314892578125,-0.005908012390136719,-0.6976120471954346,0.1963101178407669
1683127785430991000,20.0409912109375,0.1283283233642578,-0.7152959108352661,0.17750678956508636
1683127785448827400,20.058827392578124,-0.039890289306640625,-0.7302983999252319,0.23770490288734436
1683127785466666000,20.076666015625,0.05760765075683594,-0.6853229403495789,0.15760931372642517
1683127785484502300,20.094502197265626,0.09007740020751953,-0.6594007015228271,0.1388542354106903
1683127785502348300,20.112348388671876,-0.01725292205810547,-0.6892507672309875,0.21771983802318573
1683127785520171500,20.130171630859376,-0.0006771087646484375,-0.6624205112457275,0.18166911602020264
1683127785538020000,20.14802001953125,-0.022833824157714844,-0.7267011404037476,0.20299941301345825
1683127785555858700,20.165858642578126,0.014459609985351562,-0.7132469415664673,0.23764514923095703
1683127785573702000,20.183701904296875,0.0253753662109375,-0.6914681196212769,0.19436801970005035
1683127785591538000,20.201537841796874,-0.027227401733398438,-0.7188351154327393,0.1640736609697342
1683127785609377000,20.219376953125,0.06832695007324219,-0.690062403678894,0.15466541051864624
1683127785627215000,20.237215087890625,0.02478790283203125,-0.6449717283248901,0.19304469227790833
1683127785645055200,20.25505517578125,0.05996513366699219,-0.683173418045044,0.21091656386852264
1683127785662891800,20.272891845703125,0.03274250030517578,-0.6599007248878479,0.1370866596698761
1683127785680733200,20.290733154296873,0.07889461517333984,-0.7183647155761719,0.199599951505661
1683127785698570500,20.308570556640625,0.00641632080078125,-0.679808497428894,0.19669108092784882
1683127785716410600,20.32641064453125,-0.023000717163085938,-0.6690354943275452,0.1567053496837616
1683127785734243600,20.34424365234375,0.12157535552978516,-0.6784113049507141,0.18633943796157837
1683127785752087300,20.36208740234375,-0.09613037109375,-0.6668998003005981,0.22055689990520477
1683127785769913900,20.379913818359373,0.07377338409423828,-0.6871813535690308,0.17698907852172852
1683127785787765800,20.397765869140624,-0.07979011535644531,-0.657669723033905,0.1990136206150055
1683127785805603300,20.415603271484375,0.0693674087524414,-0.6390241980552673,0.23548084497451782
1683127785823442400,20.4334423828125,0.07280731201171875,-0.6686429977416992,0.17758038640022278
1683127785841265000,20.451264892578124,0.03969097137451172,-0.6480133533477783,0.10039079934358597
1683127785859120600,20.46912060546875,0.03967475891113281,-0.6723477840423584,0.2071276605129242
1683127785876958700,20.486958740234375,-0.011335372924804688,-0.646939754486084,0.20364680886268616
1683127785894797600,20.504797607421875,0.13085365295410156,-0.605811357498169,0.12389867007732391
1683127785912636200,20.52263623046875,-0.07238483428955078,-0.7141175866127014,0.24204440414905548
1683127785930475800,20.540475830078126,-0.0633096694946289,-0.6940994262695312,0.19552740454673767
1683127785948313900,20.55831396484375,0.13054275512695312,-0.663359522819519,0.17122957110404968
1683127785966152200,20.576152099609374,-0.0827493667602539,-0.6764163374900818,0.1918373852968216
1683127785983984400,20.593984375,-0.02317047119140625,-0.6891154050827026,0.1830725371837616
1683127786001834200,20.611834228515626,0.10227584838867188,-0.6283348798751831,0.12337949872016907
1683127786019668700,20.629668701171877,0.0011186599731445312,-0.6160935163497925,0.16867652535438538
1683127786037507300,20.64750732421875,0.04819965362548828,-0.618774950504303,0.21151584386825562
1683127786055341600,20.665341552734375,0.004084587097167969,-0.6528742909431458,0.1817096620798111
1683127786073186000,20.68318603515625,0.1410207748413086,-0.6583042144775391,0.14843153953552246
1683127786091024000,20.70102392578125,-0.08121204376220703,-0.6404888033866882,0.2035350799560547
1683127786108862500,20.718862548828124,0.08069610595703125,-0.6283410787582397,0.1583108901977539
1683127786126689000,20.73668896484375,0.03017425537109375,-0.5951670408248901,0.14131459593772888
1683127786144541200,20.754541259765624,0.010407447814941406,-0.6512864828109741,0.21813176572322845
1683127786162367700,20.77236767578125,-0.02650165557861328,-0.6247624158859253,0.1857428252696991
1683127786180216600,20.790216552734375,-0.003926277160644531,-0.6360023021697998,0.16077731549739838
1683127786198055700,20.8080556640625,0.02895641326904297,-0.6381902098655701,0.20485709607601166
1683127786215896600,20.825896484375,-0.007880210876464844,-0.6302526593208313,0.13733191788196564
1683127786233734700,20.843734619140626,0.03321075439453125,-0.6416754722595215,0.13903874158859253
1683127786251573800,20.86157373046875,-0.010592460632324219,-0.6272439956665039,0.1612273007631302
1683127786269410600,20.87941064453125,0.04123687744140625,-0.5691363215446472,0.1682460904121399
1683127786287251700,20.897251708984374,0.03752422332763672,-0.6538574695587158,0.20907142758369446
1683127786305084700,20.915084716796876,-0.01839447021484375,-0.6253337860107422,0.1545652598142624
1683127786322927900,20.932927978515625,0.1014242172241211,-0.6369132995605469,0.1830528974533081
1683127786340767000,20.95076708984375,-0.0354156494140625,-0.60395348072052,0.17434151470661163
1683127786358606800,20.96860693359375,0.02945232391357422,-0.6041817665100098,0.11360643059015274
1683127786376439800,20.986439697265624,0.10071277618408203,-0.5784248113632202,0.154794380068779
1683127786394289000,21.004288818359374,-0.06081962585449219,-0.6071590185165405,0.1950317621231079
1683127786412121600,21.02212158203125,0.0367431640625,-0.6207748651504517,0.16302745044231415
1683127786429960700,21.039960693359376,-0.08348369598388672,-0.609566330909729,0.2000351995229721
1683127786447800800,21.05780078125,0.10173416137695312,-0.618588924407959,0.20100897550582886
1683127786465638100,21.07563818359375,-0.009500503540039062,-0.6437180638313293,0.15650933980941772
1683127786483481900,21.09348193359375,0.039661407470703125,-0.6063178777694702,0.11244991421699524
1683127786501315800,21.11131591796875,0.07306766510009766,-0.5888622403144836,0.18740084767341614
1683127786519156000,21.129156005859375,-0.0054950714111328125,-0.6038209199905396,0.1958560198545456
1683127786536993300,21.1469931640625,0.09668254852294922,-0.5582749843597412,0.11549098044633865
1683127786554832400,21.164832275390626,-0.0705709457397461,-0.6595417857170105,0.15110379457473755
1683127786572671700,21.182671630859375,-0.005324363708496094,-0.6036917567253113,0.2009592205286026
1683127786590498300,21.200498291015624,0.05365753173828125,-0.5648790001869202,0.09817452728748322
1683127786608348400,21.218348388671874,-0.050583839416503906,-0.5877566337585449,0.1493186354637146
1683127786626181000,21.23618115234375,-0.05731391906738281,-0.6135472655296326,0.2059199959039688
1683127786644023300,21.254023193359377,0.05320167541503906,-0.5506139993667603,0.11320225894451141
1683127786661853200,21.271853271484375,-0.007555961608886719,-0.5929515361785889,0.19174964725971222
1683127786679703300,21.289703369140625,-0.015298843383789062,-0.5565106272697449,0.18916139006614685
1683127786697537800,21.307537841796876,0.12313270568847656,-0.6038829684257507,0.16419628262519836
1683127786715382300,21.32538232421875,0.04352855682373047,-0.5985144376754761,0.11925120651721954
1683127786733220400,21.343220458984376,-0.05145072937011719,-0.5776654481887817,0.18176104128360748
1683127786751057400,21.361057373046876,0.10840415954589844,-0.561369001865387,0.1416390836238861
1683127786768898800,21.37889892578125,0.020712852478027344,-0.5592155456542969,0.134807288646698
1683127786786738700,21.39673876953125,0.022329330444335938,-0.6161524057388306,0.18612313270568848
1683127786804573700,21.41457373046875,-0.1220550537109375,-0.5931144952774048,0.1853334903717041
1683127786822416600,21.432416748046876,0.08622169494628906,-0.5626537203788757,0.13855481147766113
1683127786840242700,21.45024267578125,0.0013942718505859375,-0.5574867725372314,0.15721848607063293
1683127786858091800,21.468091796875,-0.01773834228515625,-0.5800525546073914,0.11962183564901352
1683127786875928000,21.485927978515626,0.09245872497558594,-0.5457524061203003,0.0958903580904007
1683127786893771300,21.503771240234375,-0.07250690460205078,-0.5725980997085571,0.16691622138023376
1683127786911607300,21.521607177734374,0.08572769165039062,-0.52101069688797,0.1796935647726059
1683127786929446700,21.53944677734375,-0.026815414428710938,-0.6066526174545288,0.18557432293891907
1683127786947281400,21.557281494140625,0.018416404724121094,-0.5937244892120361,0.15123945474624634
1683127786965123600,21.57512353515625,0.07226753234863281,-0.5610095858573914,0.1742352545261383
1683127786982962700,21.592962646484374,-0.07752513885498047,-0.5506031513214111,0.14200648665428162
1683127787000802600,21.610802490234374,0.09315204620361328,-0.5589903593063354,0.09823888540267944
1683127787018640400,21.628640380859373,0.04177570343017578,-0.5147809982299805,0.14460086822509766
1683127787036479000,21.64647900390625,-0.010447502136230469,-0.5769502520561218,0.18492582440376282
1683127787054317800,21.66431787109375,-0.009250640869140625,-0.5348004102706909,0.12063289433717728
1683127787072156200,21.68215625,-0.0416259765625,-0.5454692840576172,0.18055592477321625
1683127787089984000,21.69998388671875,0.10417461395263672,-0.5596245527267456,0.17274917662143707
1683127787107837000,21.7178369140625,-0.033420562744140625,-0.5707321763038635,0.11798278987407684
1683127787125661000,21.735660888671877,0.054306983947753906,-0.5812397599220276,0.1153501495718956
1683127787143511800,21.75351171875,-0.012364387512207031,-0.5335119962692261,0.188090518116951
1683127787161346000,21.771345947265626,0.03325843811035156,-0.5709546208381653,0.18646880984306335
1683127787179189000,21.78918896484375,0.052150726318359375,-0.5162339806556702,0.11438672989606857
1683127787197027800,21.80702783203125,-0.02311992645263672,-0.5678884983062744,0.10547038912773132
1683127787214868000,21.824867919921875,0.02384185791015625,-0.5415818691253662,0.17314372956752777
1683127787232705500,21.84270556640625,0.039603233337402344,-0.5021687150001526,0.06496592611074448
1683127787250544000,21.860544189453126,0.0015592575073242188,-0.5083000063896179,0.12879762053489685
1683127787268385000,21.878385009765626,-0.10326671600341797,-0.5587326884269714,0.20408675074577332
1683127787286223000,21.89622314453125,0.05258750915527344,-0.5076221227645874,0.10468234866857529
1683127787304067600,21.914067626953123,-0.055809974670410156,-0.562169075012207,0.19345106184482574
1683127787321898800,21.931898681640625,-0.08025360107421875,-0.5446155667304993,0.1976323127746582
1683127787339728400,21.949728271484375,0.14832115173339844,-0.5268335342407227,0.1202555000782013
1683127787357578000,21.967577880859373,-0.01908111572265625,-0.533903181552887,0.11612530797719955
1683127787375415600,21.98541552734375,0.010941505432128906,-0.5352164506912231,0.16751010715961456
1683127787393252900,22.0032529296875,0.09711456298828125,-0.48646074533462524,0.10143916308879852
1683127787411094000,22.021093994140625,0.06109809875488281,-0.5039942264556885,0.12624025344848633
1683127787428932600,22.0389326171875,0.0020294189453125,-0.5616602301597595,0.14585170149803162
1683127787446770400,22.0567705078125,-0.11989021301269531,-0.5331107378005981,0.1820172220468521
1683127787464604400,22.0746044921875,0.12273502349853516,-0.5324679017066956,0.11238443106412888
1683127787482448100,22.0924482421875,-0.0652170181274414,-0.5194974541664124,0.15846380591392517
1683127787500287700,22.110287841796875,-0.025247573852539062,-0.5417008399963379,0.14001600444316864
1683127787518125800,22.128125732421875,0.07623481750488281,-0.4871216416358948,0.08848153799772263
1683127787535964200,22.145964111328126,-0.06980228424072266,-0.5353869199752808,0.1641038954257965
1683127787553803300,22.16380322265625,0.050108909606933594,-0.4831736087799072,0.1713208109140396
1683127787571643000,22.181642822265626,-0.011701583862304688,-0.5211774110794067,0.12050554901361465
1683127787589468000,22.199468017578123,0.05852794647216797,-0.5248998999595642,0.12729841470718384
1683127787607320300,22.2173203125,0.018262863159179688,-0.4748832583427429,0.12646621465682983
1683127787625142500,22.235142578125,-0.0417938232421875,-0.4751322269439697,0.11306508630514145
1683127787642998000,22.252998046875,0.050388336181640625,-0.5087717771530151,0.1251121163368225
1683127787660835300,22.27083544921875,0.017091751098632812,-0.46487778425216675,0.134200781583786
1683127787678674200,22.288674072265625,-0.04226112365722656,-0.5544571876525879,0.18648895621299744
1683127787696513000,22.306512939453125,-0.060070037841796875,-0.5216417908668518,0.11874405294656754
1683127787714348500,22.3243486328125,0.06685733795166016,-0.4950783848762512,0.1632673740386963
1683127787732190700,22.342190673828124,-0.010690689086914062,-0.538590669631958,0.13501997292041779
1683127787750029300,22.360029296875,0.017919540405273438,-0.5186977386474609,0.09305078536272049
1683127787767861000,22.377861083984374,0.021139144897460938,-0.49076759815216064,0.10916093736886978
1683127787785702400,22.395702392578126,-0.005236625671386719,-0.4893174171447754,0.1740305870771408
1683127787803546600,22.413546630859376,0.06127166748046875,-0.513685405254364,0.15940649807453156
1683127787821380600,22.431380615234374,-0.029943466186523438,-0.5046014189720154,0.12254568934440613
1683127787839227100,22.44922705078125,0.058281898498535156,-0.48942339420318604,0.12338077276945114
1683127787857060400,22.467060302734374,-0.01966094970703125,-0.46331536769866943,0.129945769906044
1683127787874901800,22.48490185546875,0.054251670837402344,-0.46374964714050293,0.0612863153219223
1683127787892739300,22.5027392578125,0.03370094299316406,-0.4277997612953186,0.11899130046367645
1683127787910578400,22.520578369140626,-0.12548351287841797,-0.5203314423561096,0.19477224349975586
