time,seconds_elapsed,z,y,x
1683140181829406000,0.150406005859375,9.829116821289062,0.33798620104789734,-0.09032905846834183
1683140181847347500,0.168347412109375,9.776474952697754,0.3810569941997528,-0.08075776696205139
1683140181865185300,0.186185302734375,9.775876998901367,0.3188436031341553,0.05742774158716202
1683140181883024000,0.20402392578125,9.824331283569336,0.4049852192401886,-0.16151553392410278
1683140181900862000,0.221862060546875,9.7998046875,0.33798620104789734,0.0526420995593071
1683140181918701800,0.239701904296875,9.738189697265625,0.36670008301734924,-0.009571290574967861
1683140181936537300,0.257537353515625,9.724431037902832,0.31345975399017334,-0.12861421704292297
1683140181954371000,0.27537109375,9.78126049041748,0.37148571014404297,-0.0568295381963253
1683140181972219000,0.293218994140625,9.862018585205078,0.2997010350227356,-0.05623133108019829
1683140181990055400,0.311055419921875,9.634101867675781,0.4139583110809326,-0.1339980661869049
1683140182007900200,0.328900146484375,9.80518913269043,0.3523431420326233,0.014356935396790504
1683140182025733400,0.3467333984375,9.838089942932129,0.3858426511287689,-0.004187439568340778
1683140182043578000,0.364578125,9.729216575622559,0.3517449200153351,-0.11904292553663254
1683140182061414700,0.38241455078125,9.795618057250977,0.36191442608833313,0.02871387079358101
1683140182079253200,0.400253173828125,9.910472869873047,0.3038884699344635,-0.23270200192928314
1683140182097092600,0.418092529296875,9.757332801818848,0.39062830805778503,0.004785645287483931
1683140182114931700,0.435931640625,9.78126049041748,0.34217363595962524,-0.11425728350877762
1683140182132771000,0.45377099609375,9.762118339538574,0.41934216022491455,-0.038285162299871445
1683140182150610000,0.47160986328125,9.814162254333496,0.34277185797691345,0.04785645380616188
1683140182168448800,0.48944873046875,9.791430473327637,0.3810569941997528,-0.12861421704292297
1683140182186288600,0.50728857421875,9.738189697265625,0.3332005441188812,0.03349951654672623
1683140182204127200,0.525127197265625,9.914660453796387,0.36670008301734924,-0.013160524889826775
1683140182221965800,0.5429658203125,9.848259925842285,0.380458801984787,-0.20458634197711945
1683140182239792400,0.56079248046875,9.761520385742188,0.36191442608833313,0.16689938306808472
1683140182257635300,0.57863525390625,9.834501266479492,0.4043870270252228,-0.18544375896453857
1683140182275483400,0.5964833984375,9.871589660644531,0.3762713670730591,-0.023330021649599075
1683140182293305600,0.6143056640625,9.757332801818848,0.3236292600631714,0.03349951654672623
1683140182311162000,0.632162109375,9.796216011047363,0.3900300860404968,-0.1381855010986328
1683140182329000700,0.650000732421875,9.771689414978027,0.3332005441188812,-0.047258246690034866
1683140182346840000,0.667840087890625,9.776474952697754,0.34277185797691345,0.04307080805301666
1683140182364678700,0.6856787109375,9.705886840820312,0.39960137009620667,-0.15254244208335876
1683140182382518800,0.703518798828125,9.719047546386719,0.357128769159317,0.06161518394947052
1683140182400357000,0.721357177734375,9.771689414978027,0.39062830805778503,-0.014356935396790504
1683140182418196500,0.739196533203125,9.7005033493042,0.3852444589138031,-0.07657032459974289
1683140182436033500,0.757033447265625,9.738189697265625,0.3475574851036072,0.06640082597732544
1683140182453873700,0.774873779296875,9.762118339538574,0.357128769159317,-0.04785645380616188
1683140182471716600,0.792716552734375,9.814760208129883,0.36670008301734924,-0.10468599200248718
1683140182489553000,0.810552978515625,9.723833084106445,0.33798620104789734,0.08075776696205139
1683140182507390700,0.828390625,9.814760208129883,0.4049852192401886,-0.13280165195465088
1683140182525232000,0.846232177734375,9.757332801818848,0.3523431420326233,0.04785645380616188
1683140182543070200,0.8640703125,9.747760772705078,0.357128769159317,0
1683140182560907000,0.881906982421875,9.686145782470703,0.3326023519039154,-0.09571290761232376
1683140182578736400,0.899736328125,9.78126049041748,0.37148571014404297,-0.03768695518374443
1683140182596588000,0.917588134765625,9.80937671661377,0.30927231907844543,-0.008973085321485996
1683140182614426400,0.93542626953125,9.653244972229004,0.380458801984787,-0.16271193325519562
1683140182632253700,0.953253662109375,9.776474952697754,0.3188436031341553,-0.009571290574967861
1683140182650093000,0.971093017578125,9.771689414978027,0.3810569941997528,-0.02392822690308094
1683140182667944200,0.988944091796875,9.734002113342285,0.3475574851036072,-0.0526420995593071
1683140182685782800,1.00678271484375,9.742975234985352,0.3523431420326233,0.009571290574967861
1683140182703622000,1.024621826171875,9.847661972045898,0.30927231907844543,-0.07058826833963394
1683140182721460700,1.042460693359375,9.78126049041748,0.39541393518447876,-0.06640082597732544
1683140182739300600,1.060300537109375,9.847661972045898,0.31405797600746155,-0.028115665540099144
1683140182757130000,1.0781298828125,9.824331283569336,0.3858426511287689,-0.1423729509115219
1683140182774981000,1.095981201171875,9.871589660644531,0.36191442608833313,-0.04247260093688965
1683140182792817200,1.113817138671875,9.795618057250977,0.3810569941997528,0.038285162299871445
1683140182810657000,1.131656982421875,9.748359680175781,0.31824541091918945,-0.1902294009923935
1683140182828494600,1.14949462890625,9.838089942932129,0.3810569941997528,0.010169495828449726
1683140182846335700,1.167335693359375,9.814760208129883,0.29012975096702576,-0.08554340898990631
1683140182864173600,1.185173583984375,9.729216575622559,0.39960137009620667,-0.1333998590707779
1683140182882013200,1.20301318359375,9.771689414978027,0.3810569941997528,-0.02392822690308094
1683140182899852300,1.220852294921875,9.876375198364258,0.3332005441188812,-0.07058826833963394
1683140182917690000,1.238690185546875,9.800403594970703,0.3810569941997528,-0.12382857501506805
1683140182935531300,1.25653125,9.818947792053223,0.37148571014404297,0.06699903309345245
1683140182953369600,1.27436962890625,9.771689414978027,0.3038884699344635,-0.12382857501506805
1683140182971208400,1.29220849609375,9.800403594970703,0.37148571014404297,-0.03768695518374443
1683140182989047600,1.310047607421875,9.742975234985352,0.3762713670730591,-0.014356935396790504
1683140183006886100,1.32788623046875,9.862018585205078,0.34277185797691345,-0.06580262631177902
1683140183024726500,1.3457265625,9.833903312683105,0.4336991012096405,-0.04247260093688965
1683140183042565000,1.363565185546875,9.80518913269043,0.3523431420326233,-0.004187439568340778
1683140183060404000,1.381404052734375,9.762716293334961,0.39062830805778503,-0.07118647545576096
1683140183078242600,1.39924267578125,9.847661972045898,0.37148571014404297,0.08135596662759781
1683140183096079400,1.417079345703125,9.80100154876709,0.32303106784820557,-0.21415762603282928
1683140183113924000,1.434924072265625,9.776474952697754,0.3523431420326233,0.014356935396790504
1683140183131758000,1.452758056640625,9.714859962463379,0.4049852192401886,-0.0526420995593071
1683140183149598000,1.470597900390625,9.695717811584473,0.36670008301734924,0.01375873014330864
1683140183167437600,1.4884375,9.752547264099121,0.39541393518447876,-0.038285162299871445
1683140183185279000,1.506279052734375,9.638289451599121,0.3810569941997528,0.08973085135221481
1683140183203116500,1.524116455078125,9.809974670410156,0.3236292600631714,-0.047258246690034866
1683140183220955600,1.54195556640625,9.824331283569336,0.37148571014404297,-0.1094716340303421
1683140183238795300,1.559795166015625,9.728618621826172,0.3523431420326233,0.0568295381963253
1683140183256633900,1.5776337890625,9.80518913269043,0.31824541091918945,-0.1663011759519577
1683140183274473200,1.59547314453125,9.814760208129883,0.4384847581386566,-0.04247260093688965
1683140183292312000,1.61331201171875,9.714262008666992,0.31405797600746155,0.1333998590707779
1683140183310151700,1.631151611328125,9.729216575622559,0.3852444589138031,-0.15254244208335876
1683140183327990800,1.64899072265625,9.757332801818848,0.3236292600631714,0.02871387079358101
1683140183345830000,1.666829833984375,9.781859397888184,0.37088751792907715,-0.14297115802764893
1683140183363668200,1.684668212890625,9.842875480651855,0.31405797600746155,-0.0568295381963253
1683140183381507800,1.7025078125,9.624530792236328,0.39960137009620667,-0.05802594870328903
1683140183399347000,1.720346923828125,9.742975234985352,0.3523431420326233,-0.004785645287483931
1683140183417185800,1.738185791015625,9.833304405212402,0.3858426511287689,0.010169495828449726
1683140183435025000,1.75602490234375,9.772287368774414,0.3326023519039154,-0.1333998590707779
1683140183452864300,1.7738642578125,9.776474952697754,0.36670008301734924,0.03349951654672623
1683140183470703400,1.791703369140625,9.890732765197754,0.3188436031341553,-0.10887342691421509
1683140183488542500,1.80954248046875,9.809974670410156,0.39541393518447876,-0.07597211748361588
1683140183506381300,1.82738134765625,9.828518867492676,0.3523431420326233,-0.004187439568340778
1683140183524221000,1.845220947265625,9.857831001281738,0.36191442608833313,-0.17587246000766754
1683140183542059500,1.8630595703125,9.857233047485352,0.36670008301734924,-0.04247260093688965
1683140183559899000,1.88089892578125,9.7998046875,0.3475574851036072,0.04785645380616188
1683140183577724400,1.898724365234375,9.734002113342285,0.32303106784820557,-0.2189432680606842
1683140183595579600,1.91657958984375,9.833304405212402,0.37148571014404297,0.038285162299871445
1683140183613415200,1.934415283203125,9.776474952697754,0.31405797600746155,-0.06640082597732544
1683140183631256300,1.95225634765625,9.743574142456055,0.39481574296951294,-0.1333998590707779
1683140183649094000,1.970093994140625,9.786046028137207,0.4097708761692047,0.009571290574967861
1683140183666933800,1.987933837890625,9.786046028137207,0.357128769159317,-0.02392822690308094
1683140183684772600,2.005772705078125,9.738788604736328,0.37088751792907715,-0.08614161610603333
1683140183702612000,2.023612060546875,9.833304405212402,0.36670008301734924,0.03349951654672623
1683140183720450600,2.041450439453125,9.753145217895508,0.31824541091918945,-0.14297115802764893
1683140183738290400,2.05929052734375,9.786046028137207,0.36670008301734924,-0.014356935396790504
1683140183756129000,2.07712890625,9.714859962463379,0.39541393518447876,-0.014356935396790504
1683140183773965300,2.09496533203125,9.824331283569336,0.34277185797691345,-0.06161518394947052
1683140183791806500,2.112806396484375,9.80518913269043,0.4289134442806244,-0.06161518394947052
1683140183809646800,2.130646728515625,9.747760772705078,0.33798620104789734,0.07118647545576096
1683140183827485400,2.1484853515625,9.772287368774414,0.3858426511287689,-0.08554340898990631
1683140183845313000,2.16631298828125,9.738189697265625,0.36670008301734924,0.07597211748361588
1683140183863160800,2.184160888671875,9.795618057250977,0.31824541091918945,-0.1663011759519577
1683140183881005800,2.202005859375,9.738189697265625,0.34277185797691345,-0.014356935396790504
1683140183898842000,2.219842041015625,9.705288887023926,0.4001995921134949,-0.07178468257188797
1683140183916669400,2.23766943359375,9.647860527038574,0.357128769159317,0.06161518394947052
1683140183934520000,2.25552001953125,9.753145217895508,0.4001995921134949,-0.07178468257188797
1683140183952360000,2.27335986328125,9.690333366394043,0.34277185797691345,0.052043892443180084
1683140183970198300,2.2911982421875,9.753145217895508,0.31824541091918945,-0.1333998590707779
1683140183988035600,2.30903564453125,9.781859397888184,0.3517449200153351,-0.12382857501506805
1683140184005878500,2.32687841796875,9.733404159545898,0.34277185797691345,0.08075776696205139
1683140184023716000,2.344716064453125,9.729216575622559,0.3278166949748993,-0.1860419660806656
1683140184041555000,2.362554931640625,9.742975234985352,0.4001995921134949,0.014356935396790504
1683140184059382500,2.380382568359375,9.828518867492676,0.3188436031341553,0.0526420995593071
1683140184077233200,2.398233154296875,9.748359680175781,0.39481574296951294,-0.1860419660806656
1683140184095072800,2.41607275390625,9.719047546386719,0.3188436031341553,0.1333998590707779
1683140184112908000,2.433907958984375,9.800403594970703,0.3810569941997528,-0.0568295381963253
1683140184130753300,2.451753173828125,9.886545181274414,0.3278166949748993,-0.19920247793197632
1683140184148589300,2.46958935546875,9.719047546386719,0.37148571014404297,0.09990034252405167
1683140184166429200,2.48742919921875,9.862616539001465,0.3326023519039154,-0.2231307178735733
1683140184184255700,2.505255859375,9.838688850402832,0.4097708761692047,-0.04247260093688965
1683140184202102300,2.523102294921875,9.790233612060547,0.3044866919517517,0.019142581149935722
1683140184219946200,2.5409462890625,9.791430473327637,0.3756731450557709,-0.16151553392410278
1683140184237786000,2.5587861328125,9.848259925842285,0.30927231907844543,-0.12323036789894104
1683140184255627300,2.576627197265625,9.78126049041748,0.3762713670730591,0.062213387340307236
1683140184273451500,2.594451416015625,9.715457916259766,0.3900300860404968,-0.2476571500301361
1683140184291302700,2.612302734375,9.78126049041748,0.3475574851036072,0.04307080805301666
1683140184309141500,2.6301416015625,9.814760208129883,0.37148571014404297,-0.07118647545576096
1683140184326980600,2.647980712890625,9.776474952697754,0.4001995921134949,-0.02392822690308094
1683140184344826400,2.665826416015625,9.7005033493042,0.3038884699344635,-0.02871387079358101
1683140184362657300,2.6836572265625,9.747760772705078,0.3762713670730591,0.038285162299871445
1683140184380498400,2.70149853515625,9.795618057250977,0.3326023519039154,-0.12382857501506805
1683140184398337000,2.7193369140625,9.829116821289062,0.357128769159317,-0.08075776696205139
1683140184416164600,2.73716455078125,9.80518913269043,0.4145565330982208,-0.009571290574967861
1683140184434005000,2.7550048828125,9.78126049041748,0.357128769159317,-0.09032905846834183
1683140184451851300,2.772851318359375,9.743574142456055,0.3858426511287689,-0.038285162299871445
1683140184469692700,2.790692626953125,9.795019149780273,0.36191442608833313,0.09571290761232376
1683140184487533800,2.808533935546875,9.701101303100586,0.2991028428077698,-0.21954147517681122
1683140184505371400,2.826371337890625,9.79083251953125,0.36670008301734924,-0.03768695518374443
1683140184523211000,2.8442109375,9.78126049041748,0.3810569941997528,0.0526420995593071
1683140184541050000,2.862050048828125,9.67238712310791,0.3613162338733673,-0.1621137410402298
1683140184558889200,2.87988916015625,9.747760772705078,0.4049852192401886,0.07118647545576096
1683140184576728000,2.89772802734375,9.747760772705078,0.33798620104789734,-0.02871387079358101
1683140184594553900,2.915553955078125,9.748359680175781,0.3858426511287689,-0.08075776696205139
1683140184612409000,2.9334091796875,9.790233612060547,0.357128769159317,0.10049854964017868
1683140184630245600,2.95124560546875,9.772287368774414,0.3756731450557709,-0.14297115802764893
1683140184648084500,2.96908447265625,9.828518867492676,0.3332005441188812,0.019740786403417587
1683140184665912600,2.98691259765625,9.77707290649414,0.4289134442806244,-0.07118647545576096
1683140184683763000,3.004762939453125,9.738189697265625,0.3332005441188812,0.06640082597732544
1683140184701602000,3.02260205078125,9.762716293334961,0.39541393518447876,-0.09511470049619675
1683140184719441400,3.04044140625,9.723833084106445,0.33798620104789734,0.06640082597732544
1683140184737281500,3.058281494140625,9.809974670410156,0.357128769159317,-0.07118647545576096
1683140184755116500,3.076116455078125,9.853045463562012,0.3284149169921875,-0.15672987699508667
1683140184772961000,3.0939609375,9.704689979553223,0.3810569941997528,0.10468599200248718
1683140184790797600,3.111797607421875,9.848259925842285,0.3086741268634796,-0.1944168359041214
1683140184808637400,3.129637451171875,9.833903312683105,0.4049852192401886,-0.06640082597732544
1683140184826476300,3.147476318359375,9.790233612060547,0.3044866919517517,0.06699903309345245
1683140184844315100,3.165315185546875,9.757930755615234,0.3613162338733673,-0.19980068504810333
1683140184862154200,3.183154296875,9.847661972045898,0.31405797600746155,-0.07058826833963394
1683140184879993000,3.2009931640625,9.747760772705078,0.357128769159317,0.07597211748361588
1683140184897820700,3.218820556640625,9.734601020812988,0.3326023519039154,-0.2907279431819916
1683140184915672800,3.2366728515625,9.747760772705078,0.39062830805778503,0.04307080805301666
1683140184933500000,3.2545,9.814760208129883,0.33798620104789734,-0.01375873014330864
1683140184951355400,3.27235546875,9.743574142456055,0.39960137009620667,-0.15254244208335876
1683140184969189400,3.290189453125,9.747760772705078,0.3332005441188812,0.03349951654672623
1683140184987028000,3.308028076171875,9.890732765197754,0.36670008301734924,-0.028115665540099144
1683140185004864000,3.325864013671875,9.829715728759766,0.3517449200153351,-0.2189432680606842
1683140185022695400,3.3436953125,9.756733894348145,0.37148571014404297,0.12861421704292297
1683140185040545500,3.361545654296875,9.81535816192627,0.39541393518447876,-0.18544375896453857
1683140185058388000,3.379387939453125,9.890732765197754,0.3762713670730591,-0.023330021649599075
1683140185076223700,3.3972236328125,9.776474952697754,0.36670008301734924,-0.08075776696205139
1683140185094063400,3.4150634765625,9.795618057250977,0.3858426511287689,-0.014356935396790504
1683140185111897600,3.432897705078125,9.738788604736328,0.3038884699344635,-0.08554340898990631
1683140185129737500,3.450737548828125,9.738788604736328,0.3810569941997528,-0.038285162299871445
1683140185147581000,3.468580810546875,9.723833084106445,0.357128769159317,-0.004785645287483931
1683140185165422600,3.486422607421875,9.734002113342285,0.37088751792907715,-0.11904292553663254
1683140185183253500,3.50425341796875,9.686145782470703,0.4049852192401886,0.018544375896453857
1683140185201086000,3.5220859375,9.752547264099121,0.357128769159317,0.04785645380616188
1683140185218936800,3.539936767578125,9.767501831054688,0.39541393518447876,-0.09990034252405167
1683140185236773400,3.5577734375,9.647860527038574,0.3810569941997528,0.12801600992679596
1683140185254618600,3.57561865234375,9.809974670410156,0.31405797600746155,-0.09990034252405167
1683140185272443000,3.59344287109375,9.843474388122559,0.36670008301734924,-0.13280165195465088
1683140185290290700,3.611290771484375,9.738189697265625,0.3762713670730591,0.11904292553663254
1683140185308135200,3.62913525390625,9.757930755615234,0.3326023519039154,-0.14297115802764893
1683140185325963500,3.646963623046875,9.829116821289062,0.44327038526535034,-0.028115665540099144
1683140185343811000,3.66481103515625,9.737591743469238,0.3236292600631714,0.1333998590707779
1683140185361649700,3.682649658203125,9.729815483093262,0.3565305769443512,-0.22851456701755524
1683140185379489500,3.700489501953125,9.795618057250977,0.34277185797691345,-0.03768695518374443
1683140185397328000,3.718327880859375,9.752547264099121,0.3523431420326233,0.0526420995593071
1683140185415168500,3.73616845703125,9.686744689941406,0.31824541091918945,-0.22432711720466614
1683140185432994600,3.75399462890625,9.733404159545898,0.39541393518447876,0.02871387079358101
1683140185450834200,3.771834228515625,9.818947792053223,0.3284149169921875,0.014955141581594944
1683140185468685300,3.789685302734375,9.724431037902832,0.3900300860404968,-0.11904292553663254
1683140185486524200,3.807524169921875,9.742975234985352,0.31405797600746155,0.03349951654672623
1683140185504362800,3.82536279296875,9.719047546386719,0.39541393518447876,0.03768695518374443
1683140185522200000,3.843199951171875,9.943374633789062,0.29012975096702576,-0.18005990982055664
1683140185540044500,3.86104443359375,9.829116821289062,0.39541393518447876,-0.09032905846834183
1683140185557880300,3.87888037109375,9.847661972045898,0.3332005441188812,-0.018544375896453857
1683140185575719400,3.896719482421875,9.796216011047363,0.37148571014404297,-0.16151553392410278
1683140185593559600,3.9145595703125,9.81954574584961,0.36191442608833313,-0.052043892443180084
1683140185611398400,3.9323984375,9.852447509765625,0.36670008301734924,0.08135596662759781
1683140185629234700,3.950234619140625,9.738788604736328,0.31345975399017334,-0.2476571500301361
1683140185647079000,3.968078857421875,9.795618057250977,0.3858426511287689,-0.009571290574967861
1683140185664915700,3.985915771484375,9.838688850402832,0.33798620104789734,-0.06640082597732544
1683140185682754600,4.003754638671875,9.7005033493042,0.39481574296951294,-0.11964113265275955
1683140185700594000,4.021593994140625,9.742975234985352,0.4001995921134949,0.014356935396790504
1683140185718432800,4.039432861328125,9.885947227478027,0.3475574851036072,-0.004187439568340778
1683140185736272400,4.0572724609375,9.757930755615234,0.34217363595962524,-0.17168502509593964
1683140185754099500,4.075099365234375,9.742377281188965,0.3858426511287689,0.16689938306808472
1683140185771950300,4.092950439453125,9.814760208129883,0.32303106784820557,-0.16151553392410278
1683140185789789200,4.1107890625,9.857831001281738,0.3762713670730591,-0.07537391036748886
1683140185807629000,4.128629150390625,9.738189697265625,0.4001995921134949,0.08075776696205139
1683140185825456000,4.1464560546875,9.767501831054688,0.36191442608833313,-0.14775680005550385
1683140185843306500,4.164306396484375,9.800403594970703,0.4145565330982208,0.03349951654672623
1683140185861145900,4.182145751953125,9.728618621826172,0.36191442608833313,0.09032905846834183
1683140185878982400,4.199982421875,9.67238712310791,0.3278166949748993,-0.20518454909324646
1683140185896827400,4.217827392578125,9.81954574584961,0.3762713670730591,-0.03768695518374443
1683140185914663700,4.23566357421875,9.728618621826172,0.36670008301734924,0.0568295381963253
1683140185932502800,4.253502685546875,9.638887405395508,0.3565305769443512,-0.17706887423992157
1683140185950342100,4.271342041015625,9.733404159545898,0.42412781715393066,0.08075776696205139
1683140185968168700,4.289168701171875,9.714262008666992,0.357128769159317,0.0568295381963253
1683140185986020400,4.307020263671875,9.748359680175781,0.3762713670730591,-0.11425728350877762
1683140186003859500,4.324859375,9.747760772705078,0.36670008301734924,0.02392822690308094
1683140186021698800,4.34269873046875,9.705288887023926,0.36670008301734924,0.023330021649599075
1683140186039537700,4.36053759765625,9.871589660644531,0.3188436031341553,-0.09451649338006973
1683140186057375700,4.378375732421875,9.814760208129883,0.41934216022491455,-0.08554340898990631
1683140186075216400,4.39621630859375,9.771689414978027,0.2997010350227356,0.02392822690308094
1683140186093059800,4.414059814453125,9.791430473327637,0.4001995921134949,-0.18065811693668365
1683140186110894000,4.43189404296875,9.742975234985352,0.36191442608833313,0.038285162299871445
1683140186128733700,4.449733642578125,9.738189697265625,0.3332005441188812,0.04307080805301666
1683140186146572500,4.467572509765625,9.729815483093262,0.31824541091918945,-0.23808585107326508
1683140186164412200,4.485412109375,9.714859962463379,0.4001995921134949,0.023330021649599075
1683140186182246100,4.50324609375,9.866804122924805,0.3188436031341553,-0.018544375896453857
1683140186200096300,4.52109619140625,9.681958198547363,0.42831525206565857,-0.16689938306808472
1683140186217927700,4.538927734375,9.714262008666992,0.3332005441188812,0.10468599200248718
1683140186235768600,4.5567685546875,9.862018585205078,0.36670008301734924,-0.052043892443180084
1683140186253603300,4.574603271484375,9.795618057250977,0.34277185797691345,-0.137587308883667
1683140186271450600,4.59245068359375,9.723833084106445,0.36191442608833313,0.09990034252405167
1683140186289285400,4.610285400390625,9.900901794433594,0.33798620104789734,-0.22791635990142822
1683140186307125000,4.628125,9.829116821289062,0.4001995921134949,-0.04247260093688965
1683140186324952000,4.6459521484375,9.80518913269043,0.3284149169921875,-0.01375873014330864
1683140186342802700,4.663802734375,9.81954574584961,0.3762713670730591,-0.1663011759519577
1683140186360642300,4.681642333984375,9.776474952697754,0.36670008301734924,0.004785645287483931
1683140186378482200,4.699482177734375,9.828518867492676,0.36191442608833313,0.03349951654672623
1683140186396321000,4.717321044921875,9.729216575622559,0.3326023519039154,-0.1908276081085205
1683140186414159600,4.73515966796875,9.7669038772583,0.37148571014404297,0.038285162299871445
1683140186431998700,4.752998779296875,9.796216011047363,0.4001995921134949,-0.12382857501506805
1683140186449835800,4.770835693359375,9.771689414978027,0.36670008301734924,0.0526420995593071
1683140186467680300,4.78868017578125,9.714859962463379,0.4049852192401886,-0.07657032459974289
1683140186485516300,4.806516357421875,9.800403594970703,0.37148571014404297,0.009571290574967861
1683140186503355600,4.824355712890625,9.809974670410156,0.30927231907844543,-0.06161518394947052
1683140186521183700,4.842183837890625,9.824331283569336,0.4049852192401886,-0.09990034252405167
1683140186539034000,4.8600341796875,9.723833084106445,0.357128769159317,0.09032905846834183
1683140186556873200,4.877873291015625,9.829116821289062,0.3523431420326233,-0.1136590763926506
1683140186574712000,4.895712158203125,9.843474388122559,0.4384847581386566,-0.052043892443180084
1683140186592552000,4.913552001953125,9.723833084106445,0.3284149169921875,0.09032905846834183
1683140186610390800,4.931390869140625,9.748359680175781,0.37088751792907715,-0.1860419660806656
1683140186628230000,4.94922998046875,9.757332801818848,0.3858426511287689,0.02871387079358101
1683140186646068700,4.96706884765625,9.762118339538574,0.3044866919517517,0.038285162299871445
1683140186663908600,4.98490869140625,9.667601585388184,0.36610186100006104,-0.1860419660806656
1683140186681744400,5.002744384765625,9.747760772705078,0.3858426511287689,0.004785645287483931
1683140186699586600,5.020586669921875,9.762118339538574,0.3236292600631714,0.014356935396790504
1683140186717413000,5.0384130859375,9.686744689941406,0.45284169912338257,-0.12921242415905
1683140186735265800,5.056265869140625,9.65683364868164,0.33798620104789734,0.17587246000766754
1683140186753104100,5.074104248046875,9.77707290649414,0.37148571014404297,-0.11904292553663254
1683140186770940700,5.091940673828125,9.81954574584961,0.34277185797691345,-0.028115665540099144
1683140186788782300,5.1097822265625,9.757332801818848,0.36191442608833313,-0.06161518394947052
1683140186806624300,5.127624267578125,9.829116821289062,0.3188436031341553,-0.07597211748361588
1683140186824460800,5.145460693359375,9.80518913269043,0.37148571014404297,-0.11425728350877762
1683140186842300000,5.1632998046875,9.800403594970703,0.3236292600631714,-0.06640082597732544
1683140186860126700,5.181126708984375,9.776474952697754,0.37148571014404297,0.014356935396790504
1683140186877978600,5.198978515625,9.738788604736328,0.31405797600746155,-0.08075776696205139
1683140186895817700,5.216817626953125,9.757930755615234,0.3858426511287689,-0.09032905846834183
1683140186913656600,5.234656494140625,9.828518867492676,0.2949153780937195,-0.018544375896453857
1683140186931495400,5.252495361328125,9.662816047668457,0.39960137009620667,-0.14835500717163086
1683140186949334800,5.270334716796875,9.771689414978027,0.357128769159317,-0.03768695518374443
1683140186967162000,5.288162109375,9.818947792053223,0.36670008301734924,0.03349951654672623
1683140186985013200,5.30601318359375,9.743574142456055,0.3762713670730591,-0.15254244208335876
1683140187002852000,5.32385205078125,9.752547264099121,0.3858426511287689,0.08554340898990631
1683140187020692200,5.341692138671875,9.81954574584961,0.275174617767334,-0.17108681797981262
1683140187038530800,5.35953076171875,9.866804122924805,0.3858426511287689,-0.06580262631177902
1683140187056370000,5.377369873046875,9.762118339538574,0.31405797600746155,-0.10468599200248718
1683140187074209000,5.395208984375,9.724431037902832,0.39062830805778503,-0.04307080805301666
1683140187092036900,5.413036865234375,9.876375198364258,0.357128769159317,-0.0849452018737793
1683140187109887200,5.43088720703125,9.809974670410156,0.36670008301734924,-0.11844471842050552
1683140187127728000,5.44872802734375,9.762118339538574,0.3523431420326233,0.009571290574967861
1683140187145564400,5.466564453125,9.729216575622559,0.3858426511287689,-0.03349951654672623
1683140187163405300,5.4844052734375,9.734002113342285,0.3326023519039154,-0.14775680005550385
1683140187181244400,5.502244384765625,9.82373332977295,0.3475574851036072,0.05742774158716202
1683140187199082500,5.52008251953125,9.653244972229004,0.4091726839542389,-0.1579262912273407
1683140187216923100,5.537923095703125,9.699904441833496,0.36670008301734924,0.047258246690034866
1683140187234762000,5.555761962890625,9.814162254333496,0.39541393518447876,0.02871387079358101
1683140187252601000,5.57360107421875,9.69093132019043,0.39541393518447876,-0.05742774158716202
1683140187270440400,5.5914404296875,9.681360244750977,0.3332005441188812,0.04247260093688965
1683140187288279300,5.609279296875,9.866804122924805,0.36191442608833313,-0.0849452018737793
1683140187306118700,5.62711865234375,9.81954574584961,0.3858426511287689,-0.09032905846834183
1683140187323957500,5.64495751953125,9.704689979553223,0.3475574851036072,0.09990034252405167
1683140187341786600,5.66278662109375,9.78664493560791,0.4145565330982208,-0.12861421704292297
1683140187359636000,5.680635986328125,9.79083251953125,0.3523431420326233,0.014356935396790504
1683140187377475300,5.698475341796875,9.78126049041748,0.357128769159317,0.009571290574967861
1683140187395314700,5.716314697265625,9.64367389678955,0.3517449200153351,-0.1052841991186142
1683140187413153500,5.734153564453125,9.757332801818848,0.36191442608833313,-0.019142581149935722
1683140187430990000,5.751989990234375,9.80937671661377,0.31405797600746155,0.0005982056609354913
1683140187448835300,5.76983544921875,9.619745254516602,0.3900300860404968,-0.11006984114646912
1683140187466671000,5.787671142578125,9.79083251953125,0.3044866919517517,-0.004187439568340778
1683140187484510700,5.8055107421875,9.833903312683105,0.4145565330982208,-0.11844471842050552
1683140187502345700,5.823345703125,9.69511890411377,0.34277185797691345,0.12382857501506805
1683140187520189000,5.84118896484375,9.748359680175781,0.36670008301734924,-0.11425728350877762
1683140187538012700,5.8590126953125,9.833903312683105,0.3188436031341553,-0.0849452018737793
1683140187555870700,5.87687060546875,9.752547264099121,0.36670008301734924,-0.009571290574967861
1683140187573706500,5.89470654296875,9.857831001281738,0.34277185797691345,-0.18484555184841156
1683140187591545600,5.912545654296875,9.738189697265625,0.3858426511287689,0.04307080805301666
1683140187609384700,5.930384765625,9.771689414978027,0.3475574851036072,-0.08554340898990631
1683140187627224000,5.94822412109375,9.7669038772583,0.39062830805778503,0.009571290574967861
1683140187645063000,5.96606298828125,9.814162254333496,0.2949153780937195,-0.004187439568340778
1683140187662902800,5.98390283203125,9.853045463562012,0.39541393518447876,-0.1423729509115219
1683140187680741600,6.00174169921875,9.814162254333496,0.3332005441188812,-0.004187439568340778
1683140187698580700,6.019580810546875,9.80518913269043,0.36670008301734924,-0.08075776696205139
1683140187716419800,6.037419921875,9.881759643554688,0.4001995921134949,-0.137587308883667
1683140187734259700,6.055259765625,9.818947792053223,0.33798620104789734,0.04785645380616188
1683140187752098000,6.07309814453125,9.724431037902832,0.34695929288864136,-0.17647066712379456
1683140187769937700,6.090937744140625,9.833304405212402,0.39062830805778503,0.03349951654672623
1683140187787774200,6.108774169921875,9.762118339538574,0.29012975096702576,-0.028115665540099144
1683140187805619000,6.126618896484375,9.748359680175781,0.37148571014404297,-0.1333998590707779
1683140187823455200,6.144455322265625,9.762118339538574,0.3858426511287689,0
1683140187841282600,6.162282470703125,9.833903312683105,0.36670008301734924,-0.04247260093688965
1683140187859133200,6.18013330078125,9.748359680175781,0.4384847581386566,-0.02871387079358101
1683140187876973000,6.19797314453125,9.738189697265625,0.357128769159317,0.02871387079358101
1683140187894812400,6.2158125,9.724431037902832,0.36670008301734924,-0.02871387079358101
1683140187912650800,6.233650634765625,9.905089378356934,0.3810569941997528,0.010169495828449726
1683140187930489900,6.25148974609375,9.795618057250977,0.34277185797691345,-0.11904292553663254
1683140187948330200,6.269330322265625,9.752547264099121,0.3475574851036072,0.019142581149935722
1683140187966168800,6.2871689453125,9.824331283569336,0.39062830805778503,-0.09511470049619675
1683140187984001500,6.30500146484375,9.762118339538574,0.36670008301734924,-0.02392822690308094
1683140188001843200,6.32284326171875,9.771689414978027,0.357128769159317,0.03349951654672623
1683140188019686700,6.340686767578125,9.681360244750977,0.36670008301734924,-0.10049854964017868
1683140188037524200,6.358524169921875,9.752547264099121,0.3523431420326233,-0.04785645380616188
1683140188055361800,6.37636181640625,9.776474952697754,0.33798620104789734,0.0526420995593071
1683140188073203500,6.394203369140625,9.667601585388184,0.37088751792907715,-0.17647066712379456
1683140188091043300,6.412043212890625,9.742975234985352,0.3236292600631714,0.009571290574967861
1683140188108882200,6.429882080078125,9.80518913269043,0.4049852192401886,-0.03290131315588951
1683140188126710000,6.4477099609375,9.647860527038574,0.3523431420326233,-0.0005982056609354913
1683140188144560600,6.465560546875,9.748359680175781,0.36670008301734924,-0.06161518394947052
1683140188162400500,6.483400390625,9.814162254333496,0.3284149169921875,-0.008973085321485996
1683140188180239600,6.501239501953125,9.695717811584473,0.36191442608833313,-0.08135596662759781
1683140188198063000,6.51906298828125,9.795618057250977,0.3332005441188812,-0.15194423496723175
1683140188215909600,6.53690966796875,9.742975234985352,0.3810569941997528,0.04307080805301666
1683140188233757200,6.554757080078125,9.719645500183105,0.3236292600631714,-0.1333998590707779
1683140188251595800,6.572595703125,9.724431037902832,0.4049852192401886,-0.004785645287483931
1683140188269435600,6.590435546875,9.818947792053223,0.31405797600746155,0.0526420995593071
1683140188287274500,6.6082744140625,9.757930755615234,0.3810569941997528,-0.1621137410402298
1683140188305114000,6.626114013671875,9.804591178894043,0.2997010350227356,-0.01375873014330864
1683140188322949600,6.64394970703125,9.734002113342285,0.39541393518447876,-0.04307080805301666
1683140188340795000,6.661794921875,9.92423152923584,0.3284149169921875,-0.13220344483852386
1683140188358631000,6.679630859375,9.800403594970703,0.39062830805778503,-0.08075776696205139
1683140188376466700,6.697466796875,9.776474952697754,0.3523431420326233,-0.028115665540099144
1683140188394313700,6.715313720703125,9.814760208129883,0.3762713670730591,-0.052043892443180084
1683140188412149000,6.73314892578125,9.772287368774414,0.3332005441188812,-0.14715859293937683
1683140188429987800,6.75098779296875,9.804591178894043,0.36191442608833313,0.09571290761232376
1683140188447825000,6.768824951171875,9.715457916259766,0.3326023519039154,-0.2763710021972656
1683140188465669600,6.786669677734375,9.771689414978027,0.39062830805778503,0.009571290574967861
1683140188483505700,6.804505615234375,9.786046028137207,0.39062830805778503,-0.009571290574967861
1683140188501344500,6.822344482421875,9.743574142456055,0.3858426511287689,-0.08554340898990631
1683140188519184400,6.840184326171875,9.728618621826172,0.357128769159317,0
1683140188537023700,6.858023681640625,9.900303840637207,0.3810569941997528,-0.02273181453347206
1683140188554862600,6.875862548828125,9.796216011047363,0.3332005441188812,-0.17108681797981262
1683140188572699000,6.893698974609375,9.728618621826172,0.3762713670730591,0.1333998590707779
1683140188590544100,6.911544189453125,9.814760208129883,0.36670008301734924,-0.15672987699508667
1683140188608380400,6.92938037109375,9.838688850402832,0.36191442608833313,-0.052043892443180084
1683140188626219500,6.947219482421875,9.733404159545898,0.3762713670730591,0.07597211748361588
1683140188644058400,6.965058349609375,9.695717811584473,0.36610186100006104,-0.14297115802764893
1683140188661894400,6.982894287109375,9.786046028137207,0.36191442608833313,0.02871387079358101
1683140188679737600,7.000737548828125,9.742975234985352,0.36191442608833313,0.02392822690308094
1683140188697576400,7.018576416015625,9.69093132019043,0.33738797903060913,-0.15254244208335876
1683140188715422000,7.036421875,9.728618621826172,0.3332005441188812,-0.02871387079358101
1683140188733252000,7.054252197265625,9.742975234985352,0.4384847581386566,0.004785645287483931
1683140188751092200,7.07209228515625,9.690333366394043,0.3332005441188812,0.07118647545576096
1683140188768933000,7.08993310546875,9.767501831054688,0.41934216022491455,-0.12861421704292297
1683140188786772200,7.107772216796875,9.733404159545898,0.36670008301734924,0.10468599200248718
1683140188804612400,7.1256123046875,9.814760208129883,0.33798620104789734,-0.08554340898990631
1683140188822440400,7.1434404296875,9.848259925842285,0.33798620104789734,-0.12801600992679596
1683140188840289500,7.16128955078125,9.733404159545898,0.3762713670730591,0.09032905846834183
1683140188858129400,7.17912939453125,9.838688850402832,0.29012975096702576,-0.17587246000766754
1683140188875957000,7.19695703125,9.800403594970703,0.4289134442806244,-0.06640082597732544
1683140188893805300,7.214805419921875,9.795019149780273,0.30927231907844543,0.10049854964017868
1683140188911649800,7.23264990234375,9.743574142456055,0.3613162338733673,-0.20458634197711945
1683140188929485800,7.25048583984375,9.786046028137207,0.31405797600746155,-0.023330021649599075
1683140188947325200,7.2683251953125,9.728618621826172,0.357128769159317,0.04785645380616188
1683140188965162500,7.28616259765625,9.762716293334961,0.3086741268634796,-0.28534409403800964
1683140188983007200,7.30400732421875,9.714262008666992,0.3858426511287689,0.03768695518374443
1683140189000829700,7.32182958984375,9.82373332977295,0.3475574851036072,0.010169495828449726
1683140189018683000,7.339682861328125,9.729216575622559,0.4097708761692047,-0.1333998590707779
1683140189036521700,7.357521728515625,9.719047546386719,0.31405797600746155,0.04307080805301666
1683140189054360800,7.37536083984375,9.905089378356934,0.357128769159317,-0.05623133108019829
1683140189072200000,7.393199951171875,9.896116256713867,0.34277185797691345,-0.2231307178735733
1683140189090036700,7.41103662109375,9.756733894348145,0.36670008301734924,0.12861421704292297
1683140189107881700,7.4288818359375,9.810572624206543,0.3810569941997528,-0.18065811693668365
1683140189125705700,7.446705810546875,9.919445991516113,0.357128769159317,-0.061016976833343506
1683140189143553000,7.464552978515625,9.81954574584961,0.3762713670730591,-0.06640082597732544
1683140189161396700,7.482396728515625,9.78126049041748,0.3810569941997528,0.02871387079358101
1683140189179235600,7.500235595703125,9.7005033493042,0.3038884699344635,-0.1381855010986328
1683140189197074700,7.51807470703125,9.78126049041748,0.3858426511287689,-0.047258246690034866
1683140189214913800,7.535913818359375,9.719047546386719,0.33798620104789734,0.019142581149935722
1683140189232753400,7.55375341796875,9.69631576538086,0.3762713670730591,-0.15254244208335876
1683140189250592500,7.571592529296875,9.714859962463379,0.41934216022491455,0.028115665540099144
1683140189268431600,7.589431640625,9.723833084106445,0.357128769159317,0.07118647545576096
1683140189286270700,7.607270751953125,9.7005033493042,0.39062830805778503,-0.1052841991186142
1683140189304110800,7.62511083984375,9.699904441833496,0.3762713670730591,0.11425728350877762
1683140189321944800,7.64294482421875,9.786046028137207,0.30927231907844543,-0.10468599200248718
1683140189339788500,7.66078857421875,9.833903312683105,0.36670008301734924,-0.12801600992679596
1683140189357627400,7.67862744140625,9.709476470947266,0.39062830805778503,0.11904292553663254
1683140189375455500,7.69645556640625,9.767501831054688,0.32303106784820557,-0.18065811693668365
1683140189393303000,7.714302978515625,9.862018585205078,0.44327038526535034,-0.01375873014330864
1683140189411145700,7.732145751953125,9.709476470947266,0.3523431420326233,0.1333998590707779
1683140189428984600,7.749984619140625,9.725028991699219,0.3613162338733673,-0.21415762603282928
1683140189446824400,7.767824462890625,9.814162254333496,0.37148571014404297,0.04785645380616188
1683140189464661200,7.7856611328125,9.786046028137207,0.33798620104789734,-0.09032905846834183
1683140189482505000,7.8035048828125,9.743574142456055,0.34277185797691345,-0.06640082597732544
1683140189500341500,7.821341552734375,9.710074424743652,0.4001995921134949,-0.04307080805301666
1683140189518181600,7.839181640625,9.752547264099121,0.34277185797691345,0.04307080805301666
1683140189536020500,7.8570205078125,9.738788604736328,0.39062830805778503,-0.09032905846834183
1683140189553847800,7.874847900390625,9.671191215515137,0.3523431420326233,0.08554340898990631
1683140189571698400,7.892698486328125,9.833903312683105,0.357128769159317,-0.06640082597732544
1683140189589538000,7.9105380859375,9.90987491607666,0.3188436031341553,-0.18484555184841156
1683140189607376400,7.92837646484375,9.685547828674316,0.3810569941997528,0.11425728350877762
1683140189625218600,7.946218505859375,9.881759643554688,0.3284149169921875,-0.20877377688884735
1683140189643054300,7.964054443359375,9.862616539001465,0.4145565330982208,-0.07537391036748886
1683140189660890400,7.981890380859375,9.780662536621094,0.31405797600746155,0.0526420995593071
1683140189678734300,7.999734375,9.772287368774414,0.37148571014404297,-0.16151553392410278
1683140189696573400,8.017573486328125,9.843474388122559,0.31405797600746155,-0.09930214285850525
1683140189714412800,8.035412841796875,9.762118339538574,0.36670008301734924,0.08135596662759781
1683140189732252200,8.053252197265625,9.701101303100586,0.36610186100006104,-0.2763710021972656
1683140189750091000,8.071091064453125,9.757332801818848,0.36670008301734924,0.05742774158716202
1683140189767933200,8.08893310546875,9.833304405212402,0.36191442608833313,-0.023330021649599075
1683140189785767000,8.106766845703126,9.767501831054688,0.39541393518447876,-0.12861421704292297
1683140189803609000,8.124609130859374,9.67657470703125,0.3284149169921875,0.03768695518374443
1683140189821448400,8.142448486328124,9.852447509765625,0.37148571014404297,-0.028115665540099144
1683140189839287600,8.16028759765625,9.772287368774414,0.3810569941997528,-0.09990034252405167
1683140189857126700,8.178126708984376,9.790233612060547,0.3332005441188812,0.04785645380616188
1683140189874966000,8.195966064453126,9.824930191040039,0.4289134442806244,-0.20937198400497437
1683140189892805600,8.2138056640625,9.795019149780273,0.3577269911766052,0.14775680005550385
1683140189910644500,8.23164453125,9.65803050994873,0.4049852192401886,-0.08135596662759781
1683140189928483600,8.249483642578125,9.762118339538574,0.39062830805778503,0.02392822690308094
1683140189946323200,8.2673232421875,9.7669038772583,0.2709871530532837,-0.12861421704292297
1683140189964162000,8.285162109375,9.738788604736328,0.39541393518447876,-0.04307080805301666
1683140189982001700,8.303001708984375,9.681360244750977,0.37148571014404297,0.004187439568340778
1683140189999840000,8.320840087890625,9.681360244750977,0.36670008301734924,-0.07657032459974289
1683140190017662000,8.338661865234375,9.795618057250977,0.4097708761692047,0.05742774158716202
1683140190035520500,8.3565205078125,9.7005033493042,0.37148571014404297,-0.04785645380616188
1683140190053354200,8.374354248046876,9.7005033493042,0.37148571014404297,0.009571290574967861
1683140190071202300,8.392202392578126,9.771689414978027,0.3523431420326233,0.009571290574967861
1683140190089037300,8.410037353515625,9.81954574584961,0.36670008301734924,-0.13280165195465088
1683140190106876000,8.4278759765625,9.733404159545898,0.34277185797691345,0.08554340898990631
1683140190124715500,8.445715576171875,9.781859397888184,0.4001995921134949,-0.12861421704292297
1683140190142542600,8.46354248046875,9.80518913269043,0.34277185797691345,-0.028115665540099144
1683140190160394200,8.481394287109374,9.762118339538574,0.3810569941997528,0.014356935396790504
1683140190178230300,8.499230224609375,9.652647018432617,0.3332005441188812,-0.06699903309345245
1683140190196075500,8.517075439453125,9.800403594970703,0.37148571014404297,-0.10468599200248718
1683140190213911800,8.534911865234376,9.852447509765625,0.3044866919517517,0.019740786403417587
1683140190231747800,8.552747802734375,9.619745254516602,0.3900300860404968,-0.16271193325519562
1683140190249590300,8.57059033203125,9.78126049041748,0.3475574851036072,-0.03290131315588951
1683140190267428600,8.5884287109375,9.82373332977295,0.39541393518447876,0.014955141581594944
1683140190285268700,8.606268798828125,9.729216575622559,0.34277185797691345,-0.1333998590707779
1683140190303107600,8.624107666015625,9.742975234985352,0.3762713670730591,0.02871387079358101
1683140190320947500,8.641947509765625,9.862018585205078,0.3044866919517517,-0.09930214285850525
1683140190338786800,8.659786865234375,9.752547264099121,0.3858426511287689,-0.052043892443180084
1683140190356614000,8.67761376953125,9.762716293334961,0.3044866919517517,-0.12861421704292297
1683140190374462700,8.695462646484375,9.743574142456055,0.41934216022491455,-0.04785645380616188
1683140190392307200,8.71330712890625,9.871589660644531,0.33798620104789734,-0.02751746028661728
1683140190410138600,8.731138671875,9.757930755615234,0.4097708761692047,-0.1094716340303421
1683140190427982600,8.748982666015625,9.738189697265625,0.3475574851036072,0.04785645380616188
1683140190445822500,8.766822509765625,9.814760208129883,0.3810569941997528,-0.04247260093688965
1683140190463661000,8.7846611328125,9.757332801818848,0.3236292600631714,-0.07597211748361588
1683140190481500700,8.802500732421874,9.733404159545898,0.36670008301734924,-0.019142581149935722
1683140190499339500,8.820339599609374,9.743574142456055,0.4049852192401886,-0.09511470049619675
1683140190517176600,8.838176513671876,9.842875480651855,0.3236292600631714,-0.004187439568340778
1683140190535021300,8.856021240234375,9.767501831054688,0.4001995921134949,-0.17108681797981262
1683140190552857300,8.873857421875,9.842875480651855,0.33858439326286316,0.11006984114646912
1683140190570697000,8.891697021484376,9.724431037902832,0.3038884699344635,-0.22372891008853912
1683140190588536000,8.9095361328125,9.762118339538574,0.39062830805778503,0.06699903309345245
1683140190606380300,8.92738037109375,9.762118339538574,0.3236292600631714,-0.07597211748361588
1683140190624214500,8.945214599609375,9.738788604736328,0.36191442608833313,-0.09032905846834183
1683140190642053600,8.9630537109375,9.814760208129883,0.36670008301734924,-0.028115665540099144
1683140190659881500,8.980881591796875,9.800403594970703,0.3810569941997528,-0.09511470049619675
1683140190677720800,8.998720947265625,9.762118339538574,0.36191442608833313,0.07178468257188797
1683140190695572000,9.016572021484375,9.66221809387207,0.37148571014404297,-0.07178468257188797
1683140190713411000,9.0344111328125,9.767501831054688,0.33798620104789734,-0.11425728350877762
1683140190731250700,9.052250732421875,9.775876998901367,0.3475574851036072,0.07657032459974289
1683140190749089800,9.07008984375,9.691530227661133,0.3858426511287689,-0.16689938306808472
1683140190766928600,9.0879287109375,9.690333366394043,0.33798620104789734,0.028115665540099144
1683140190784768500,9.1057685546875,9.80518913269043,0.4049852192401886,-0.028115665540099144
1683140190802607600,9.123607666015625,9.710074424743652,0.3475574851036072,-0.03349951654672623
1683140190820446700,9.14144677734375,9.771689414978027,0.3332005441188812,-0.052043892443180084
1683140190838285600,9.15928564453125,9.800403594970703,0.33798620104789734,-0.13280165195465088
1683140190856113200,9.177113037109375,9.733404159545898,0.36670008301734924,0.06640082597732544
1683140190873965300,9.19496533203125,9.743574142456055,0.31345975399017334,-0.17108681797981262
1683140190891799000,9.212799072265625,9.719645500183105,0.41934216022491455,-0.02871387079358101
1683140190909642800,9.230642822265626,9.847661972045898,0.3044866919517517,0.048454657196998596
1683140190927470000,9.248469970703125,9.762716293334961,0.4097708761692047,-0.1950150430202484
1683140190945321500,9.266321533203126,9.747162818908691,0.3188436031341553,0.11904292553663254
1683140190963160600,9.28416064453125,9.738788604736328,0.3810569941997528,-0.06699903309345245
1683140190981000000,9.302,9.838688850402832,0.30927231907844543,-0.11844471842050552
1683140190998838800,9.3198388671875,9.762118339538574,0.3762713670730591,-0.009571290574967861
1683140191016678700,9.3376787109375,9.829116821289062,0.3332005441188812,-0.13280165195465088
1683140191034516500,9.3555166015625,9.80518913269043,0.36191442608833313,-0.1094716340303421
1683140191052353500,9.373353515625,9.81954574584961,0.357128769159317,-0.04247260093688965
1683140191070196000,9.391196044921875,9.833304405212402,0.36729827523231506,0.062213387340307236
1683140191088035800,9.409035888671875,9.734002113342285,0.29431718587875366,-0.21415762603282928
1683140191105871600,9.42687158203125,9.843474388122559,0.36191442608833313,-0.06640082597732544
1683140191123705000,9.444705078125,9.838688850402832,0.3236292600631714,-0.06580262631177902
1683140191141541400,9.462541259765626,9.686145782470703,0.39541393518447876,-0.11006984114646912
1683140191159393000,9.48039306640625,9.728618621826172,0.39062830805778503,-0.009571290574967861
1683140191177220400,9.498220458984376,9.885947227478027,0.3284149169921875,0.010169495828449726
1683140191195071200,9.5160712890625,9.762716293334961,0.36191442608833313,-0.15732808411121368
1683140191212910000,9.53391015625,9.714262008666992,0.39122650027275085,0.16151553392410278
1683140191230750000,9.55175,9.809974670410156,0.30927231907844543,-0.16151553392410278
1683140191248589000,9.569589111328124,9.871589660644531,0.3810569941997528,-0.08015955984592438
1683140191266428400,9.587428466796876,9.69511890411377,0.3858426511287689,0.09990034252405167
1683140191284267000,9.60526708984375,9.805787086486816,0.33798620104789734,-0.18544375896453857
1683140191302102300,9.623102294921875,9.866804122924805,0.4145565330982208,-0.004187439568340778
1683140191319946200,9.6409462890625,9.719047546386719,0.3475574851036072,0.09511470049619675
1683140191337784800,9.658784912109375,9.767501831054688,0.34277185797691345,-0.1381855010986328
1683140191355624700,9.676624755859375,9.881160736083984,0.39062830805778503,-0.037088751792907715
1683140191373461500,9.69446142578125,9.775876998901367,0.357128769159317,0.08135596662759781
1683140191391305500,9.712305419921876,9.781859397888184,0.33798620104789734,-0.14715859293937683
1683140191409139200,9.73013916015625,9.824331283569336,0.44327038526535034,0.005383851006627083
1683140191426984200,9.747984130859376,9.756733894348145,0.33798620104789734,0.09511470049619675
1683140191444821000,9.765821044921875,9.719645500183105,0.4001995921134949,-0.1621137410402298
1683140191462659800,9.783659912109375,9.723833084106445,0.36670008301734924,0.14297115802764893
1683140191480499200,9.801499267578125,9.781859397888184,0.34277185797691345,-0.1902294009923935
1683140191498338600,9.819338623046875,9.747760772705078,0.3332005441188812,-0.009571290574967861
1683140191516178200,9.83717822265625,9.64367389678955,0.3523431420326233,-0.07657032459974289
1683140191534017300,9.855017333984375,9.723833084106445,0.3332005441188812,-0.03349951654672623
1683140191551852800,9.872852783203125,9.814760208129883,0.36670008301734924,-0.047258246690034866
1683140191569696000,9.890696044921874,9.705288887023926,0.37148571014404297,-0.019142581149935722
1683140191587524900,9.90852490234375,9.771689414978027,0.34277185797691345,0.04307080805301666
1683140191605362200,9.926362060546875,9.81954574584961,0.3188436031341553,-0.1950150430202484
1683140191623213600,9.944213623046876,9.728618621826172,0.36191442608833313,0.02392822690308094
1683140191641048300,9.96204833984375,9.829116821289062,0.31405797600746155,-0.20398813486099243
1683140191658892300,9.979892333984376,9.719645500183105,0.4145565330982208,-0.019142581149935722
1683140191676726300,9.997726318359375,9.833304405212402,0.31405797600746155,-0.0568295381963253
1683140191694559000,10.01555908203125,9.809974670410156,0.4145565330982208,-0.13280165195465088
1683140191712409600,10.03340966796875,9.77109146118164,0.2949153780937195,0.05742774158716202
1683140191730249500,10.05124951171875,9.771689414978027,0.36670008301734924,-0.09032905846834183
1683140191748083700,10.069083740234374,9.814760208129883,0.31405797600746155,-0.17108681797981262
1683140191765927700,10.086927734375,9.762118339538574,0.37148571014404297,-0.019142581149935722
1683140191783766800,10.104766845703125,9.80518913269043,0.3810569941997528,-0.0568295381963253
1683140191801603300,10.122603271484374,9.748359680175781,0.3762713670730591,-0.09990034252405167
1683140191819448000,10.140447998046875,9.695717811584473,0.36670008301734924,0.009571290574967861
1683140191837282000,10.158281982421874,9.852447509765625,0.36670008301734924,0.024526432156562805
1683140191855126500,10.17612646484375,9.748359680175781,0.33798620104789734,-0.18544375896453857
1683140191872960300,10.193960205078126,9.756733894348145,0.36251261830329895,0.12382857501506805
1683140191890805200,10.21180517578125,9.814760208129883,0.3475574851036072,-0.18065811693668365
1683140191908641500,10.2296416015625,9.857233047485352,0.3762713670730591,-0.03768695518374443
1683140191926481000,10.24748095703125,9.742975234985352,0.4049852192401886,0.06640082597732544
1683140191944320500,10.265320556640624,9.762716293334961,0.357128769159317,-0.17108681797981262
1683140191962159600,10.28315966796875,9.800403594970703,0.37148571014404297,0.0005982056609354913
1683140191979998700,10.300998779296876,9.828518867492676,0.36191442608833313,0.05742774158716202
1683140191997838000,10.318838134765626,9.686744689941406,0.33738797903060913,-0.18125630915164948
1683140192015678000,10.336677978515626,9.747760772705078,0.357128769159317,-0.004785645287483931
1683140192033516300,10.354516357421875,9.771689414978027,0.4336991012096405,0.019142581149935722
1683140192051356000,10.37235595703125,9.728618621826172,0.3332005441188812,0
1683140192069195000,10.390195068359375,9.772287368774414,0.4049852192401886,-0.08075776696205139
1683140192087035000,10.408034912109375,9.723833084106445,0.36670008301734924,0.08554340898990631
1683140192104864800,10.42586474609375,9.800403594970703,0.3284149169921875,-0.08554340898990631
1683140192122713000,10.443713134765625,9.829116821289062,0.3762713670730591,-0.10408778488636017
1683140192140551400,10.461551513671875,9.738189697265625,0.36670008301734924,0.09511470049619675
1683140192158392000,10.47939208984375,9.833903312683105,0.3284149169921875,-0.14715859293937683
1683140192176230400,10.49723046875,9.824331283569336,0.4336991012096405,-0.052043892443180084
1683140192194070000,10.515070068359375,9.719047546386719,0.31405797600746155,0.11425728350877762
1683140192211905300,10.5329052734375,9.757930755615234,0.3858426511287689,-0.21415762603282928
1683140192229746000,10.550745849609376,9.78126049041748,0.34277185797691345,0.019142581149935722
1683140192247590700,10.568590576171875,9.771689414978027,0.33798620104789734,0.019142581149935722
1683140192265426700,10.5864267578125,9.762716293334961,0.3086741268634796,-0.25722843408584595
1683140192283266300,10.604266357421874,9.704689979553223,0.39062830805778503,0.047258246690034866
1683140192301106000,10.62210595703125,9.871589660644531,0.34277185797691345,-0.008973085321485996
1683140192318944800,10.63994482421875,9.748359680175781,0.4289134442806244,-0.15732808411121368
1683140192336781000,10.657781005859375,9.709476470947266,0.33798620104789734,0.09511470049619675
1683140192354626000,10.6756259765625,9.847661972045898,0.34277185797691345,-0.05623133108019829
1683140192372461000,10.6934609375,9.853045463562012,0.3332005441188812,-0.18963119387626648
1683140192390304000,10.711303955078124,9.714262008666992,0.37148571014404297,0.1381855010986328
1683140192408141000,10.72914111328125,9.872187614440918,0.36191442608833313,-0.2566302418708801
1683140192425980000,10.74697998046875,9.881160736083984,0.3858426511287689,-0.05144568532705307
1683140192443819800,10.76481982421875,9.771689414978027,0.33798620104789734,0.02392822690308094
1683140192461659000,10.782658935546875,9.79083251953125,0.36670008301734924,-0.137587308883667
1683140192479498200,10.800498291015625,9.786046028137207,0.34277185797691345,-0.018544375896453857
1683140192497336600,10.818336669921875,9.814162254333496,0.3720839321613312,0.09092725813388824
1683140192515177700,10.836177734375,9.762716293334961,0.3523431420326233,-0.1902294009923935
1683140192533016300,10.854016357421875,9.847661972045898,0.36670008301734924,0.014955141581594944
1683140192550855200,10.871855224609375,9.829116821289062,0.4001995921134949,-0.03290131315588951
1683140192568694500,10.889694580078125,9.809974670410156,0.3284149169921875,-0.13280165195465088
1683140192586534100,10.9075341796875,9.79083251953125,0.39062830805778503,-0.023330021649599075
1683140192604369200,10.925369140625,9.852447509765625,0.36729827523231506,0.06281159073114395
1683140192622212000,10.943212158203124,9.714859962463379,0.31345975399017334,-0.20458634197711945
1683140192640045800,10.9610458984375,9.7669038772583,0.39062830805778503,0.038285162299871445
1683140192657876500,10.97887646484375,9.842875480651855,0.3762713670730591,-0.028115665540099144
1683140192675730200,10.996730224609376,9.738788604736328,0.357128769159317,-0.09511470049619675
1683140192693566700,11.014566650390625,9.738189697265625,0.4049852192401886,0.004785645287483931
1683140192711399700,11.032399658203126,9.714262008666992,0.36191442608833313,0.03349951654672623
1683140192729248000,11.050248046875,9.809974670410156,0.3523431420326233,-0.008973085321485996
1683140192747087600,11.068087646484376,9.757930755615234,0.39541393518447876,-0.09032905846834183
1683140192764926500,11.085926513671875,9.742975234985352,0.3523431420326233,0.07178468257188797
1683140192782765300,11.103765380859375,9.857831001281738,0.3332005441188812,-0.1423729509115219
1683140192800602600,11.1216025390625,9.81954574584961,0.4384847581386566,-0.0568295381963253
1683140192818444800,11.13944482421875,9.704689979553223,0.2997010350227356,0.11904292553663254
1683140192836282000,11.1572822265625,9.757930755615234,0.3858426511287689,-0.21415762603282928
1683140192854126000,11.1751259765625,9.752547264099121,0.357128769159317,0.08554340898990631
1683140192871959300,11.192959228515624,9.795618057250977,0.34277185797691345,0.005383851006627083
1683140192889804500,11.210804443359375,9.78664493560791,0.31345975399017334,-0.2757728099822998
1683140192907640600,11.228640625,9.714262008666992,0.39062830805778503,0.09511470049619675
1683140192925479200,11.246479248046874,9.833903312683105,0.3188436031341553,-0.14715859293937683
1683140192943319000,11.264319091796875,9.743574142456055,0.42412781715393066,-0.07597211748361588
1683140192961158100,11.282158203125,9.833304405212402,0.28534409403800964,0.0005982056609354913
1683140192978997800,11.299997802734374,9.80100154876709,0.4001995921134949,-0.15672987699508667
1683140192996836400,11.31783642578125,9.880562782287598,0.2997010350227356,0.048454657196998596
1683140193014676700,11.3356767578125,9.81535816192627,0.36670008301734924,-0.1902294009923935
1683140193032515600,11.353515625,9.857233047485352,0.3284149169921875,-0.06580262631177902
1683140193050355000,11.37135498046875,9.767501831054688,0.3810569941997528,-0.08554340898990631
1683140193068193500,11.389193603515626,9.7669038772583,0.37148571014404297,-0.08075776696205139
1683140193086033400,11.407033447265626,9.866804122924805,0.34277185797691345,-0.01375873014330864
1683140193103861200,11.424861328125,9.772287368774414,0.357128769159317,-0.1381855010986328
1683140193121711600,11.442711669921875,9.876375198364258,0.3577269911766052,0.06759724020957947
1683140193139550700,11.46055078125,9.796216011047363,0.3278166949748993,-0.22851456701755524
1683140193157389800,11.478389892578125,9.833304405212402,0.3768695592880249,0.06699903309345245
1683140193175230700,11.496230712890625,9.848259925842285,0.3762713670730591,-0.18544375896453857
1683140193193059600,11.5140595703125,9.848259925842285,0.39062830805778503,-0.07537391036748886
1683140193210909700,11.53190966796875,9.7669038772583,0.36670008301734924,0.07657032459974289
1683140193228747800,11.549747802734375,9.795618057250977,0.37148571014404297,-0.12382857501506805
1683140193246587000,11.5675869140625,9.80518913269043,0.3236292600631714,-0.08075776696205139
1683140193264426000,11.585426025390625,9.833304405212402,0.3720839321613312,0.062213387340307236
1683140193282264800,11.603264892578125,9.677172660827637,0.3810569941997528,-0.14297115802764893
1683140193300101600,11.6211015625,9.752547264099121,0.33798620104789734,0.004785645287483931
1683140193317946000,11.638946044921875,9.80518913269043,0.4145565330982208,-0.03290131315588951
1683140193335779800,11.65677978515625,9.742975234985352,0.357128769159317,0.0526420995593071
1683140193353625000,11.674625,9.738788604736328,0.36670008301734924,-0.09511470049619675
1683140193371458600,11.69245849609375,9.733404159545898,0.39062830805778503,0.08075776696205139
1683140193389303300,11.71030322265625,9.857233047485352,0.3188436031341553,-0.05144568532705307
1683140193407139800,11.728139892578126,9.786046028137207,0.3810569941997528,-0.11425728350877762
1683140193424979000,11.74597900390625,9.752547264099121,0.4001995921134949,0.11904292553663254
1683140193442818600,11.763818603515626,9.79083251953125,0.31405797600746155,-0.15672987699508667
1683140193460657400,11.781657470703125,9.833903312683105,0.44327038526535034,-0.06640082597732544
1683140193478483500,11.7994833984375,9.742377281188965,0.3188436031341553,0.17168502509593964
1683140193496339200,11.817339111328126,9.715457916259766,0.37088751792907715,-0.24287149310112
1683140193514175500,11.835175537109375,9.81954574584961,0.3332005441188812,-0.03768695518374443
1683140193532014600,11.8530146484375,9.757332801818848,0.3332005441188812,0.062213387340307236
1683140193549854000,11.87085400390625,9.729815483093262,0.3278166949748993,-0.2667997181415558
1683140193567693300,11.888693359375,9.738189697265625,0.39541393518447876,0.019142581149935722
1683140193585530000,11.906530029296874,9.828518867492676,0.2997010350227356,-0.008973085321485996
1683140193603374300,11.924374267578125,9.734002113342285,0.39062830805778503,-0.17168502509593964
1683140193621211100,11.942211181640625,9.757332801818848,0.3188436031341553,0.0526420995593071
1683140193639050200,11.96005029296875,9.809974670410156,0.36191442608833313,-0.03768695518374443
1683140193656890000,11.97789013671875,9.814760208129883,0.3188436031341553,-0.20937198400497437
1683140193674728700,11.995728759765624,9.719047546386719,0.39541393518447876,0.07597211748361588
1683140193692568300,12.013568359375,9.900901794433594,0.36191442608833313,-0.17527425289154053
1683140193710407200,12.0314072265625,9.809974670410156,0.4001995921134949,-0.008973085321485996
1683140193728247000,12.0492470703125,9.719047546386719,0.3523431420326233,-0.014356935396790504
1683140193746086000,12.0670859375,9.786046028137207,0.39541393518447876,0.04307080805301666
1683140193763925200,12.08492529296875,9.833903312683105,0.2997010350227356,-0.08015955984592438
1683140193781760500,12.102760498046875,9.853045463562012,0.39062830805778503,-0.07537391036748886
1683140193799604000,12.12060400390625,9.79083251953125,0.3810569941997528,-0.023330021649599075
1683140193817441800,12.13844189453125,9.829116821289062,0.37148571014404297,-0.08554340898990631
1683140193835283200,12.156283203125,9.79083251953125,0.42412781715393066,-0.0568295381963253
1683140193853121000,12.17412109375,9.818947792053223,0.33798620104789734,0.09092725813388824
1683140193870961000,12.1919609375,9.729216575622559,0.32303106784820557,-0.1950150430202484
1683140193888797000,12.209796875,9.838089942932129,0.39541393518447876,0.024526432156562805
1683140193906642000,12.227641845703126,9.786046028137207,0.31405797600746155,0.009571290574967861
1683140193924478000,12.24547802734375,9.738788604736328,0.3762713670730591,-0.15254244208335876
1683140193942315000,12.26331494140625,9.79083251953125,0.39062830805778503,0.04307080805301666
1683140193960159700,12.28115966796875,9.78126049041748,0.34277185797691345,-0.023330021649599075
1683140193977995000,12.2989951171875,9.800403594970703,0.3858426511287689,-0.09511470049619675
1683140193995835100,12.316835205078124,9.728618621826172,0.3810569941997528,0.03349951654672623
1683140194013672700,12.334672607421876,9.814760208129883,0.33798620104789734,-0.028115665540099144
1683140194031516200,12.35251611328125,9.729216575622559,0.3858426511287689,-0.014356935396790504
1683140194049353200,12.370353271484374,9.752547264099121,0.3762713670730591,-0.014356935396790504
1683140194067192300,12.3881923828125,9.771689414978027,0.33798620104789734,-0.052043892443180084
1683140194085032200,12.4060322265625,9.81954574584961,0.39541393518447876,-0.0568295381963253
1683140194102870800,12.423870849609376,9.709476470947266,0.34277185797691345,0.019142581149935722
1683140194120710100,12.441710205078126,9.762118339538574,0.36670008301734924,-0.019142581149935722
1683140194138549200,12.45954931640625,9.705288887023926,0.3284149169921875,-0.07178468257188797
1683140194156388900,12.477388916015625,9.757930755615234,0.3810569941997528,-0.09511470049619675
1683140194174228200,12.495228271484375,9.857233047485352,0.2997010350227356,0.010169495828449726
1683140194192067000,12.513067138671875,9.677172660827637,0.4145565330982208,-0.16689938306808472
1683140194209906000,12.530906005859375,9.738189697265625,0.33798620104789734,0.02871387079358101
1683140194227745800,12.548745849609375,9.809974670410156,0.39062830805778503,-0.004187439568340778
1683140194245585200,12.566585205078125,9.809974670410156,0.34277185797691345,-0.11844471842050552
1683140194263424000,12.584424072265625,9.733404159545898,0.3523431420326233,0.02392822690308094
1683140194281263400,12.602263427734375,9.872187614440918,0.3188436031341553,-0.1657029688358307
1683140194299103000,12.62010302734375,9.786046028137207,0.4001995921134949,-0.014356935396790504
1683140194316942000,12.637942138671875,9.795618057250977,0.3188436031341553,-0.11844471842050552
1683140194334781000,12.655781005859374,9.753145217895508,0.4097708761692047,-0.06161518394947052
1683140194352608500,12.6736083984375,9.833304405212402,0.3475574851036072,-0.004187439568340778
1683140194370460200,12.691460205078124,9.848259925842285,0.3810569941997528,-0.047258246690034866
1683140194388299000,12.709299072265624,9.767501831054688,0.31405797600746155,-0.12861421704292297
1683140194406138000,12.72713818359375,9.780662536621094,0.381655216217041,0.12861421704292297
1683140194423977000,12.74497705078125,9.896116256713867,0.3188436031341553,-0.20877377688884735
1683140194441813200,12.762813232421875,9.89551830291748,0.4049852192401886,-0.061016976833343506
1683140194459656000,12.780656005859376,9.78126049041748,0.3762713670730591,0.009571290574967861
1683140194477495000,12.7984951171875,9.853045463562012,0.357128769159317,-0.1663011759519577
1683140194495334100,12.816334228515625,9.81954574584961,0.3762713670730591,-0.028115665540099144
1683140194513174000,12.834174072265625,9.857233047485352,0.3720839321613312,0.08135596662759781
1683140194531009500,12.852009521484375,9.67238712310791,0.3326023519039154,-0.1908276081085205
1683140194548855600,12.86985546875,9.795019149780273,0.3762713670730591,0.06699903309345245
1683140194566691600,12.887691650390625,9.853045463562012,0.3762713670730591,-0.12323036789894104
1683140194584531000,12.905531005859375,9.710074424743652,0.3523431420326233,-0.004785645287483931
1683140194602370000,12.9233701171875,9.69093132019043,0.4049852192401886,-0.04307080805301666
1683140194620209700,12.941209716796875,9.719047546386719,0.3858426511287689,0.02392822690308094
1683140194638047700,12.9590478515625,9.80518913269043,0.3332005441188812,0.0005982056609354913
1683140194655888000,12.976887939453125,9.714859962463379,0.3810569941997528,-0.07178468257188797
1683140194673711400,12.99471142578125,9.747760772705078,0.357128769159317,0.08075776696205139
1683140194691570000,13.01256982421875,9.876974105834961,0.3188436031341553,-0.1657029688358307
1683140194709402000,13.030402099609375,9.829116821289062,0.44327038526535034,-0.052043892443180084
1683140194727247400,13.048247314453125,9.719047546386719,0.2997010350227356,0.12382857501506805
1683140194745083600,13.066083740234374,9.772287368774414,0.4001995921134949,-0.21415762603282928
1683140194762923300,13.08392333984375,9.780662536621094,0.36670008301734924,0.06699903309345245
1683140194780761900,13.101761962890626,9.7998046875,0.3188436031341553,0.019740786403417587
1683140194798602200,13.119602294921876,9.767501831054688,0.32303106784820557,-0.2476571500301361
1683140194816441000,13.137441162109376,9.704689979553223,0.39062830805778503,0.09511470049619675
1683140194834280000,13.155280029296875,9.900303840637207,0.2997010350227356,-0.09930214285850525
1683140194852107300,13.173107177734375,9.738788604736328,0.42412781715393066,-0.10468599200248718
1683140194869959000,13.190958984375,9.7998046875,0.2997010350227356,0.05742774158716202
1683140194887796700,13.208796630859375,9.79083251953125,0.37148571014404297,-0.08075776696205139
1683140194905627100,13.226627197265625,9.752547264099121,0.31405797600746155,-0.07597211748361588
1683140194923464400,13.24446435546875,9.743574142456055,0.3810569941997528,-0.07118647545576096
1683140194941303800,13.2623037109375,9.833903312683105,0.30927231907844543,-0.09451649338006973
1683140194959155000,13.280155029296875,9.7005033493042,0.39541393518447876,-0.11006984114646912
1683140194976982800,13.297982666015624,9.742975234985352,0.36670008301734924,-0.03349951654672623
1683140194994833200,13.315833251953125,9.847661972045898,0.36670008301734924,0.03409772366285324
1683140195012672800,13.3336728515625,9.734002113342285,0.357128769159317,-0.1381855010986328
1683140195030511900,13.351511962890624,9.723833084106445,0.37148571014404297,0.14775680005550385
1683140195048351200,13.369351318359374,9.857831001281738,0.31405797600746155,-0.18963119387626648
1683140195066189800,13.38718994140625,9.89551830291748,0.39062830805778503,-0.061016976833343506
1683140195084030000,13.405030029296874,9.752547264099121,0.3858426511287689,0.03349951654672623
1683140195101865200,13.422865234375,9.838688850402832,0.357128769159317,-0.1663011759519577
1683140195119708200,13.440708251953126,9.866804122924805,0.4097708761692047,-0.018544375896453857
1683140195137546000,13.4585458984375,9.852447509765625,0.36191442608833313,0.06281159073114395
1683140195155387600,13.4763876953125,9.720243453979492,0.32303106784820557,-0.25244277715682983
1683140195173228000,13.49422802734375,9.7998046875,0.39122650027275085,0.08614161610603333
1683140195191063000,13.51206298828125,9.81954574584961,0.3475574851036072,-0.10408778488636017
1683140195208904000,13.529904052734375,9.753145217895508,0.36191442608833313,-0.07118647545576096
1683140195226743600,13.54774365234375,9.733404159545898,0.4001995921134949,-0.004785645287483931
1683140195244583000,13.5655830078125,9.747760772705078,0.36670008301734924,-0.009571290574967861
1683140195262422000,13.583422119140625,9.80937671661377,0.37148571014404297,0.019142581149935722
1683140195280262700,13.6012626953125,9.738788604736328,0.39541393518447876,-0.07178468257188797
1683140195298089200,13.619089111328124,9.747760772705078,0.3523431420326233,0.06699903309345245
1683140195315940000,13.636940185546875,9.838688850402832,0.33798620104789734,-0.12323036789894104
1683140195333778400,13.6547783203125,9.838688850402832,0.4336991012096405,-0.06640082597732544
1683140195351615000,13.672614990234376,9.723833084106445,0.3236292600631714,0.1094716340303421
1683140195369460700,13.690460693359375,9.77707290649414,0.39541393518447876,-0.19980068504810333
1683140195387295700,13.708295654296874,9.78126049041748,0.3523431420326233,0.02871387079358101
1683140195405136600,13.72613671875,9.80937671661377,0.3284149169921875,0.019740786403417587
1683140195422974700,13.743974609375,9.701101303100586,0.32303106784820557,-0.20997019112110138
1683140195440814600,13.761814697265624,9.742975234985352,0.36670008301734924,-0.004785645287483931
1683140195458653700,13.77965380859375,9.866804122924805,0.2997010350227356,-0.01375873014330864
1683140195476492800,13.797492919921876,9.662816047668457,0.42352959513664246,-0.16749759018421173
1683140195494332000,13.815331787109375,9.728618621826172,0.3188436031341553,0.07597211748361588
1683140195512171500,13.833171630859376,9.829116821289062,0.3762713670730591,-0.0568295381963253
1683140195530011000,13.851010986328125,9.78126049041748,0.34277185797691345,-0.08075776696205139
1683140195547849700,13.868849609375,9.69511890411377,0.36191442608833313,0.08075776696205139
1683140195565688800,13.886688720703125,9.900901794433594,0.2997010350227356,-0.24167509377002716
1683140195583529000,13.904529052734375,9.81954574584961,0.4049852192401886,-0.01375873014330864
1683140195601367800,13.922367919921875,9.809974670410156,0.3332005441188812,-0.0568295381963253
1683140195619207000,13.94020703125,9.743574142456055,0.39062830805778503,-0.10468599200248718
1683140195637045800,13.958045654296875,9.833304405212402,0.33798620104789734,-0.04247260093688965
1683140195654886000,13.975885986328125,9.829116821289062,0.3858426511287689,-0.07597211748361588
1683140195672724700,13.993724853515625,9.742975234985352,0.29012975096702576,-0.052043892443180084
1683140195690563600,14.0115634765625,9.79083251953125,0.3810569941997528,-0.11425728350877762
1683140195708403000,14.02940283203125,9.80100154876709,0.3762713670730591,-0.15194423496723175
1683140195726242300,14.0472421875,9.790233612060547,0.3475574851036072,0.08614161610603333
1683140195744081700,14.06508154296875,9.743574142456055,0.4145565330982208,-0.16689938306808472
1683140195761916200,14.082916259765625,9.786046028137207,0.37148571014404297,0.05742774158716202
1683140195779760000,14.100760009765626,9.800403594970703,0.30927231907844543,-0.07597211748361588
1683140195797599700,14.118599853515626,9.833903312683105,0.4049852192401886,-0.0568295381963253
1683140195815438600,14.1364384765625,9.69511890411377,0.3475574851036072,0.07597211748361588
1683140195833277400,14.15427734375,9.829116821289062,0.357128769159317,-0.12323036789894104
1683140195851116500,14.172116455078125,9.848259925842285,0.41934216022491455,-0.052043892443180084
1683140195868956400,14.189956298828125,9.757332801818848,0.3332005441188812,0.05742774158716202
1683140195886795300,14.207795166015625,9.791430473327637,0.4097708761692047,-0.15672987699508667
1683140195904634400,14.22563427734375,9.7669038772583,0.3810569941997528,0.06699903309345245
1683140195922473200,14.24347314453125,9.786046028137207,0.31405797600746155,-0.0568295381963253
1683140195940313000,14.26131298828125,9.78126049041748,0.36670008301734924,-0.09511470049619675
1683140195958152200,14.279152099609375,9.78126049041748,0.37148571014404297,-0.004785645287483931
1683140195975991300,14.2969912109375,9.762118339538574,0.3523431420326233,-0.02392822690308094
1683140195993822500,14.314822509765625,9.771689414978027,0.4145565330982208,-0.06161518394947052
1683140196011670000,14.332669921875,9.752547264099121,0.34277185797691345,-0.014356935396790504
1683140196029509400,14.35050927734375,9.80518913269043,0.357128769159317,-0.023330021649599075
1683140196047347500,14.368347412109374,9.657432556152344,0.3523431420326233,-0.06699903309345245
1683140196065188000,14.38618798828125,9.714859962463379,0.37148571014404297,-0.07178468257188797
1683140196083027200,14.404027099609374,9.814162254333496,0.30927231907844543,0.005383851006627083
1683140196100864000,14.421864013671875,9.619745254516602,0.39481574296951294,-0.14356936514377594
1683140196118707500,14.43970751953125,9.738189697265625,0.3332005441188812,0.02871387079358101
1683140196136544300,14.457544189453126,9.824331283569336,0.3858426511287689,-0.008973085321485996
1683140196154384000,14.4753837890625,9.719645500183105,0.34277185797691345,-0.04307080805301666
1683140196172218400,14.49321826171875,9.690333366394043,0.36670008301734924,0.052043892443180084
1683140196190059300,14.511059326171875,9.881160736083984,0.29012975096702576,-0.1417747437953949
1683140196207904500,14.528904541015624,9.829116821289062,0.4097708761692047,-0.07597211748361588
1683140196225740800,14.54674072265625,9.842875480651855,0.3236292600631714,-0.018544375896453857
1683140196243580000,14.564579833984375,9.753145217895508,0.39541393518447876,-0.14297115802764893
1683140196261419000,14.5824189453125,9.847661972045898,0.36191442608833313,-0.008973085321485996
1683140196279246000,14.60024609375,9.833304405212402,0.3762713670730591,0.014955141581594944
1683140196297098000,14.618097900390625,9.757332801818848,0.3044866919517517,-0.09990034252405167
1683140196314936800,14.635936767578125,9.862018585205078,0.3762713670730591,-0.03290131315588951
1683140196332776000,14.65377587890625,9.814760208129883,0.3475574851036072,-0.047258246690034866
1683140196350603300,14.671603271484376,9.853045463562012,0.357128769159317,-0.07058826833963394
1683140196368455000,14.689454833984374,9.886545181274414,0.4145565330982208,-0.11844471842050552
1683140196386293800,14.707293701171874,9.842875480651855,0.3284149169921875,0.04366901144385338
1683140196404132600,14.725132568359374,9.738788604736328,0.34217363595962524,-0.18544375896453857
1683140196421967000,14.742967041015625,9.833304405212402,0.4001995921134949,0.04307080805301666
1683140196439811600,14.7608115234375,9.79083251953125,0.28534409403800964,-0.028115665540099144
1683140196457639200,14.77863916015625,9.757930755615234,0.3858426511287689,-0.1621137410402298
1683140196475471600,14.7964716796875,9.728618621826172,0.4001995921134949,0.0568295381963253
1683140196493319000,14.81431884765625,9.871589660644531,0.33798620104789734,-0.07058826833963394
1683140196511169800,14.832169677734376,9.809974670410156,0.4384847581386566,-0.06161518394947052
1683140196529007600,14.850007568359375,9.756733894348145,0.3523431420326233,0.11425728350877762
1683140196546846700,14.8678466796875,9.796216011047363,0.3523431420326233,-0.1902294009923935
1683140196564685800,14.885685791015625,9.78126049041748,0.3810569941997528,0.07657032459974289
1683140196582525700,14.903525634765625,9.738788604736328,0.31824541091918945,-0.15732808411121368
1683140196600364500,14.921364501953125,9.734002113342285,0.36670008301734924,-0.0526420995593071
1683140196618203600,14.93920361328125,9.719047546386719,0.4145565330982208,0.04247260093688965
1683140196636030700,14.95703076171875,9.647860527038574,0.357128769159317,-0.029312077909708023
1683140196653868000,14.974867919921875,9.824331283569336,0.37148571014404297,-0.008973085321485996
1683140196671724500,14.992724609375,9.762118339538574,0.3762713670730591,-0.047258246690034866
1683140196689560300,15.010560302734374,9.714262008666992,0.357128769159317,0.052043892443180084
1683140196707387000,15.028386962890625,9.833903312683105,0.3236292600631714,-0.09451649338006973
1683140196725240000,15.046239990234374,9.833903312683105,0.39062830805778503,-0.12323036789894104
1683140196743078000,15.064077880859376,9.833304405212402,0.3044866919517517,0.005383851006627083
1683140196760917200,15.081917236328126,9.719645500183105,0.42412781715393066,-0.08135596662759781
1683140196778756000,15.099756103515626,9.719047546386719,0.357128769159317,0.047258246690034866
1683140196796596200,15.11759619140625,9.728618621826172,0.37148571014404297,-0.009571290574967861
1683140196814432000,15.135431884765625,9.79083251953125,0.3188436031341553,-0.052043892443180084
1683140196832277200,15.15327734375,9.795618057250977,0.4049852192401886,-0.06161518394947052
1683140196850113000,15.171113037109375,9.842875480651855,0.3284149169921875,0.0005982056609354913
1683140196867953200,15.188953125,9.762716293334961,0.3858426511287689,-0.1381855010986328
1683140196885792000,15.2067919921875,9.881160736083984,0.36670008301734924,-0.04666004329919815
1683140196903630800,15.224630859375,9.852447509765625,0.3810569941997528,0.014955141581594944
1683140196921470200,15.24247021484375,9.734002113342285,0.31824541091918945,-0.15732808411121368
1683140196939297800,15.2602978515625,9.838688850402832,0.37148571014404297,-0.052043892443180084
1683140196957137200,15.27813720703125,9.866804122924805,0.3044866919517517,-0.07058826833963394
1683140196974988000,15.295988037109375,9.714859962463379,0.39062830805778503,-0.1333998590707779
1683140196992823000,15.313822998046875,9.786046028137207,0.39062830805778503,-0.07118647545576096
1683140197010666800,15.331666748046874,9.852447509765625,0.3475574851036072,0.014955141581594944
1683140197028505900,15.349505859375,9.738788604736328,0.39541393518447876,-0.1333998590707779
1683140197046345000,15.367344970703124,9.728618621826172,0.36670008301734924,0.1094716340303421
1683140197064183800,15.385183837890626,9.771689414978027,0.3044866919517517,-0.12861421704292297
1683140197082023700,15.403023681640626,9.862018585205078,0.39062830805778503,-0.052043892443180084
1683140197099862500,15.420862548828126,9.690333366394043,0.37148571014404297,0.06161518394947052
1683140197117701600,15.43870166015625,9.81954574584961,0.3475574851036072,-0.15672987699508667
1683140197135540500,15.45654052734375,9.871589660644531,0.4336991012096405,-0.03290131315588951
1683140197153380600,15.474380615234375,9.738189697265625,0.3475574851036072,0.07118647545576096
1683140197171217400,15.492217529296875,9.719645500183105,0.3517449200153351,-0.12861421704292297
1683140197189058300,15.510058349609375,9.833304405212402,0.39062830805778503,0.010169495828449726
1683140197206900200,15.527900146484376,9.833903312683105,0.31405797600746155,-0.1423729509115219
1683140197224737000,15.545737060546875,9.757332801818848,0.357128769159317,-0.009571290574967861
1683140197242576100,15.563576171875,9.681360244750977,0.4145565330982208,-0.04307080805301666
1683140197260415500,15.58141552734375,9.705288887023926,0.36670008301734924,0.004785645287483931
1683140197278254300,15.59925439453125,9.800403594970703,0.39541393518447876,0.02871387079358101
1683140197296094200,15.61709423828125,9.681360244750977,0.39541393518447876,-0.02871387079358101
1683140197313932800,15.634932861328124,9.675976753234863,0.3475574851036072,0.06161518394947052
1683140197331769000,15.65276904296875,9.786046028137207,0.3475574851036072,-0.028115665540099144
1683140197349611500,15.670611572265624,9.800403594970703,0.3810569941997528,-0.1094716340303421
1683140197367450000,15.6884501953125,9.747760772705078,0.3188436031341553,0.07178468257188797
1683140197385291000,15.706291015625,9.791430473327637,0.39541393518447876,-0.17587246000766754
1683140197403117300,15.724117431640625,9.7998046875,0.3475574851036072,0.038285162299871445
1683140197420956400,15.741956298828125,9.762118339538574,0.36191442608833313,0.019142581149935722
1683140197438807800,15.759807861328126,9.67657470703125,0.31824541091918945,-0.11485548317432404
1683140197456649700,15.777649658203124,9.78126049041748,0.3810569941997528,-0.0568295381963253
1683140197474485800,15.79548583984375,9.876375198364258,0.28534409403800964,-0.0323031060397625
1683140197492324000,15.813323974609375,9.624530792236328,0.4043870270252228,-0.14356936514377594
1683140197510164500,15.83116455078125,9.800403594970703,0.3523431420326233,-0.008973085321485996
1683140197528004000,15.849004150390625,9.852447509765625,0.3858426511287689,-0.01375873014330864
1683140197545842700,15.8668427734375,9.714859962463379,0.357128769159317,-0.09511470049619675
1683140197563682000,15.88468212890625,9.762118339538574,0.37148571014404297,0.07657032459974289
1683140197581521400,15.902521484375,9.89551830291748,0.2997010350227356,-0.13698910176753998
1683140197599360300,15.9203603515625,9.829116821289062,0.39062830805778503,-0.047258246690034866
1683140197617199900,15.938199951171875,9.79083251953125,0.34277185797691345,-0.008973085321485996
1683140197635039200,15.956039306640625,9.867402076721191,0.3523431420326233,-0.18963119387626648
1683140197652877600,15.973877685546874,9.900303840637207,0.3810569941997528,-0.05623133108019829
1683140197670714000,15.991714111328125,9.828518867492676,0.3523431420326233,0.06699903309345245
1683140197688557300,16.009557373046874,9.705886840820312,0.3326023519039154,-0.2147558331489563
1683140197706397700,16.027397705078126,9.866804122924805,0.381655216217041,0.07657032459974289
1683140197724235000,16.045235107421874,9.800403594970703,0.34277185797691345,-0.04247260093688965
1683140197742073900,16.063073974609374,9.857831001281738,0.36670008301734924,-0.10408778488636017
1683140197759913200,16.080913330078126,9.885947227478027,0.4145565330982208,-0.0849452018737793
1683140197777751000,16.0987509765625,9.82373332977295,0.3523431420326233,0.019740786403417587
1683140197795592200,16.11659228515625,9.738788604736328,0.37148571014404297,-0.10468599200248718
1683140197813430000,16.134429931640625,9.838089942932129,0.4001995921134949,-0.008973085321485996
1683140197831271000,16.15227099609375,9.795019149780273,0.29012975096702576,0.019740786403417587
1683140197849109000,16.17010888671875,9.719645500183105,0.3762713670730591,-0.15732808411121368
1683140197866949000,16.18794921875,9.719645500183105,0.39541393518447876,0
1683140197884787700,16.20578759765625,9.795019149780273,0.33798620104789734,0.02871387079358101
1683140197902627000,16.223626953125,9.729216575622559,0.4384847581386566,-0.1094716340303421
1683140197920447200,16.241447265625,9.661619186401367,0.36670008301734924,0.12323036789894104
1683140197938302500,16.259302490234376,9.81954574584961,0.34277185797691345,-0.07597211748361588
1683140197956147000,16.27714697265625,9.786046028137207,0.4001995921134949,-0.08075776696205139
1683140197973983700,16.294983642578124,9.714262008666992,0.34277185797691345,0.08075776696205139
1683140197991822800,16.31282275390625,9.843474388122559,0.3332005441188812,-0.15194423496723175
1683140198009661200,16.3306611328125,9.857233047485352,0.4289134442806244,-0.028115665540099144
1683140198027502600,16.348502685546876,9.723833084106445,0.3188436031341553,0.09032905846834183
1683140198045340400,16.36634033203125,9.78664493560791,0.39541393518447876,-0.20458634197711945
1683140198063179800,16.3841796875,9.775876998901367,0.3523431420326233,0.07657032459974289
1683140198081019400,16.402019287109376,9.771689414978027,0.3332005441188812,0.004785645287483931
1683140198098855400,16.41985546875,9.738788604736328,0.31345975399017334,-0.20937198400497437
1683140198116700200,16.4377001953125,9.733404159545898,0.37148571014404297,0.009571290574967861
1683140198134533400,16.455533447265626,9.847661972045898,0.3188436031341553,-0.047258246690034866
1683140198152371700,16.473371826171874,9.691530227661133,0.4139583110809326,-0.14775680005550385
1683140198170218000,16.491218017578124,9.704689979553223,0.3236292600631714,0.07597211748361588
1683140198188054000,16.509053955078127,9.800403594970703,0.357128769159317,-0.06161518394947052
1683140198205893000,16.52689306640625,9.814760208129883,0.3284149169921875,-0.09511470049619675
1683140198223732500,16.544732421875,9.728618621826172,0.37148571014404297,0.09990034252405167
1683140198241571600,16.562571533203126,9.90568733215332,0.3284149169921875,-0.2231307178735733
1683140198259411000,16.580410888671874,9.848259925842285,0.4001995921134949,-0.04247260093688965
1683140198277249800,16.598249755859374,9.82373332977295,0.34277185797691345,-0.01375873014330864
1683140198295090000,16.61608984375,9.829116821289062,0.36670008301734924,-0.17108681797981262
1683140198312928800,16.6339287109375,9.82373332977295,0.37148571014404297,-0.004187439568340778
1683140198330767600,16.651767578125,9.885947227478027,0.3523431420326233,0.014955141581594944
1683140198348600300,16.669600341796876,9.738788604736328,0.34217363595962524,-0.17647066712379456
1683140198366446600,16.687446533203126,9.78126049041748,0.37148571014404297,0.02871387079358101
1683140198384285400,16.705285400390625,9.81954574584961,0.3858426511287689,-0.17108681797981262
1683140198402124300,16.723124267578125,9.757332801818848,0.36191442608833313,0.09990034252405167
1683140198419963100,16.740963134765625,9.686744689941406,0.4043870270252228,-0.12442677468061447
1683140198437803500,16.758803466796873,9.786046028137207,0.3762713670730591,0.04785645380616188
1683140198455630600,16.776630615234374,9.800403594970703,0.28534409403800964,-0.06161518394947052
1683140198473481200,16.794481201171877,9.838688850402832,0.4049852192401886,-0.12323036789894104
1683140198491310300,16.812310302734375,9.714262008666992,0.3523431420326233,0.11425728350877762
1683140198509160000,16.830159912109377,9.833903312683105,0.357128769159317,-0.14715859293937683
1683140198526999300,16.847999267578125,9.867402076721191,0.4289134442806244,-0.0568295381963253
1683140198544838000,16.865837890625,9.747760772705078,0.3284149169921875,0.09511470049619675
1683140198562678500,16.883678466796876,9.748359680175781,0.3852444589138031,-0.19980068504810333
1683140198580516900,16.901516845703124,9.78126049041748,0.39541393518447876,0.038285162299871445
1683140198598355700,16.919355712890624,9.7998046875,0.3044866919517517,0.038285162299871445
1683140198616192000,16.93719189453125,9.686744689941406,0.37088751792907715,-0.1860419660806656
1683140198634036700,16.95503662109375,9.762118339538574,0.3858426511287689,0.009571290574967861
1683140198651866600,16.97286669921875,9.786046028137207,0.3284149169921875,0.019142581149935722
1683140198669716000,16.990716064453125,9.705886840820312,0.44327038526535034,-0.12442677468061447
1683140198687551500,17.008551513671875,9.66640567779541,0.357128769159317,0.1423729509115219
1683140198705390300,17.026390380859375,9.867402076721191,0.36191442608833313,-0.11844471842050552
1683140198723230000,17.04422998046875,9.80518913269043,0.357128769159317,-0.07597211748361588
1683140198741068800,17.06206884765625,9.69511890411377,0.3523431420326233,0.08554340898990631
1683140198758908000,17.079907958984375,9.867402076721191,0.3086741268634796,-0.20877377688884735
1683140198776747300,17.097747314453127,9.838688850402832,0.4097708761692047,-0.0568295381963253
1683140198794575400,17.115575439453124,9.814162254333496,0.3044866919517517,0.029312077909708023
1683140198812424400,17.133424560546874,9.78664493560791,0.3852444589138031,-0.21415762603282928
1683140198830267100,17.15126708984375,9.838089942932129,0.3284149169921875,0.048454657196998596
1683140198848104200,17.169104248046875,9.7669038772583,0.36670008301734924,0.02392822690308094
1683140198865943800,17.18694384765625,9.734002113342285,0.31345975399017334,-0.23330020904541016
1683140198883782700,17.20478271484375,9.762118339538574,0.3858426511287689,0.03349951654672623
1683140198901621800,17.222621826171874,9.857233047485352,0.3332005441188812,-0.047258246690034866
1683140198919460900,17.2404609375,9.691530227661133,0.4091726839542389,-0.1339980661869049
1683140198937299700,17.2582998046875,9.762118339538574,0.357128769159317,0.04785645380616188
1683140198955140400,17.276140380859374,9.885947227478027,0.3762713670730591,-0.004187439568340778
1683140198972978700,17.293978759765626,9.796216011047363,0.32303106784820557,-0.1950150430202484
1683140198990805800,17.3118056640625,9.761520385742188,0.3858426511287689,0.12382857501506805
1683140199008657200,17.3296572265625,9.872187614440918,0.33738797903060913,-0.24227328598499298
1683140199026496300,17.347496337890625,9.876375198364258,0.39062830805778503,-0.008973085321485996
1683140199044335400,17.36533544921875,9.771689414978027,0.36670008301734924,-0.004785645287483931
1683140199062174500,17.383174560546873,9.848259925842285,0.3523431420326233,-0.1902294009923935
1683140199080014000,17.40101416015625,9.857233047485352,0.3523431420326233,-0.018544375896453857
1683140199097857800,17.41885791015625,9.818947792053223,0.3858426511287689,0.09571290761232376
1683140199115692000,17.436692138671877,9.67238712310791,0.34217363595962524,-0.15732808411121368
1683140199133530000,17.454530029296876,9.871589660644531,0.357128769159317,0.029312077909708023
1683140199151371800,17.472371826171877,9.81954574584961,0.39062830805778503,-0.09990034252405167
1683140199169209900,17.4902099609375,9.747760772705078,0.3475574851036072,0.009571290574967861
1683140199187050200,17.50805029296875,9.809974670410156,0.39062830805778503,-0.06640082597732544
1683140199204874800,17.525874755859373,9.757332801818848,0.4049852192401886,0.004785645287483931
1683140199222727200,17.54372705078125,9.780662536621094,0.29012975096702576,0.04307080805301666
1683140199240566300,17.561566162109376,9.810572624206543,0.380458801984787,-0.2189432680606842
1683140199258405600,17.579405517578124,9.78544807434082,0.357128769159317,0.07178468257188797
1683140199276244500,17.597244384765624,9.753145217895508,0.3326023519039154,-0.14297115802764893
1683140199294080800,17.615080810546875,9.686145782470703,0.4576273262500763,0.04247260093688965
1683140199311918800,17.6329189453125,9.733404159545898,0.31405797600746155,0.06640082597732544
1683140199329762600,17.650762451171875,9.834501266479492,0.4001995921134949,-0.1950150430202484
1683140199347601200,17.66860107421875,9.728618621826172,0.3523431420326233,0.07597211748361588
1683140199365441300,17.686441162109375,9.710074424743652,0.3810569941997528,0.009571290574967861
1683140199383280000,17.704280029296875,9.866804122924805,0.3188436031341553,-0.08973085135221481
1683140199401118700,17.72211865234375,9.79083251953125,0.3810569941997528,-0.06161518394947052
1683140199418958000,17.7399580078125,9.838089942932129,0.31405797600746155,-0.03768695518374443
1683140199436798000,17.7577978515625,9.843474388122559,0.39541393518447876,-0.16151553392410278
1683140199454636500,17.775636474609374,9.78126049041748,0.34277185797691345,0.03349951654672623
1683140199472475600,17.7934755859375,9.752547264099121,0.3523431420326233,0.038285162299871445
1683140199490303200,17.81130322265625,9.738788604736328,0.3086741268634796,-0.1950150430202484
1683140199508154600,17.829154541015626,9.762118339538574,0.3858426511287689,-0.03349951654672623
1683140199525993500,17.846993408203126,9.90987491607666,0.31405797600746155,-0.05623133108019829
1683140199543832300,17.864832275390626,9.681958198547363,0.4139583110809326,-0.1579262912273407
1683140199561659600,17.88265966796875,9.747760772705078,0.3523431420326233,0.0526420995593071
1683140199579511300,17.90051123046875,9.876375198364258,0.37148571014404297,-0.008973085321485996
1683140199597349000,17.91834912109375,9.79083251953125,0.34217363595962524,-0.137587308883667
1683140199615190800,17.936190673828126,9.78544807434082,0.36191442608833313,0.062213387340307236
1683140199633019400,17.954019287109375,9.848259925842285,0.3284149169921875,-0.15672987699508667
1683140199650866700,17.97186669921875,9.881160736083984,0.3858426511287689,-0.008973085321485996
1683140199668708000,17.9897080078125,9.857831001281738,0.36670008301734924,-0.08973085135221481
1683140199686545700,18.007545654296877,9.833903312683105,0.3475574851036072,-0.07597211748361588
1683140199704384800,18.025384765625,9.800403594970703,0.3475574851036072,-0.09990034252405167
1683140199722224000,18.04322412109375,9.81954574584961,0.39062830805778503,-0.008973085321485996
1683140199740063200,18.061063232421876,9.742975234985352,0.2997010350227356,-0.014356935396790504
1683140199757902600,18.078902587890624,9.781859397888184,0.3810569941997528,-0.12382857501506805
1683140199775741400,18.096741455078124,9.753145217895508,0.3810569941997528,-0.09032905846834183
1683140199793579300,18.114579345703124,9.804591178894043,0.3523431420326233,0.04307080805301666
1683140199811420400,18.13242041015625,9.729216575622559,0.45284169912338257,-0.1052841991186142
1683140199829256200,18.150256103515623,9.704689979553223,0.3762713670730591,0.08554340898990631
1683140199847087400,18.16808740234375,9.771689414978027,0.33798620104789734,-0.02392822690308094
1683140199864941000,18.185941162109376,9.829116821289062,0.4145565330982208,-0.08554340898990631
1683140199882777000,18.203777099609376,9.719047546386719,0.3523431420326233,0.09990034252405167
1683140199900616000,18.221615966796875,9.848259925842285,0.3475574851036072,-0.15194423496723175
1683140199918455300,18.239455322265623,9.838688850402832,0.4336991012096405,-0.008973085321485996
1683140199936294700,18.257294677734375,9.752547264099121,0.3236292600631714,0.07178468257188797
1683140199954133500,18.275133544921875,9.81535816192627,0.39481574296951294,-0.20937198400497437
1683140199971972600,18.29297265625,9.780662536621094,0.3810569941997528,0.09571290761232376
1683140199989811700,18.310811767578127,9.79083251953125,0.3188436031341553,-0.008973085321485996
1683140200007650300,18.328650390625,9.729216575622559,0.3517449200153351,-0.14775680005550385
1683140200025491500,18.346491455078127,9.733404159545898,0.37148571014404297,0.07597211748361588
1683140200043329000,18.3643291015625,9.876375198364258,0.30927231907844543,-0.10887342691421509
1683140200061168000,18.382168212890626,9.800403594970703,0.4336991012096405,-0.08554340898990631
1683140200079007700,18.4000078125,9.775876998901367,0.31405797600746155,0.09571290761232376
1683140200096846300,18.417846435546874,9.796216011047363,0.4097708761692047,-0.1333998590707779
1683140200114683600,18.43568359375,9.828518867492676,0.3236292600631714,0.08135596662759781
1683140200132525600,18.453525634765626,9.824331283569336,0.3762713670730591,-0.16151553392410278
1683140200150364700,18.47136474609375,9.881160736083984,0.3188436031341553,-0.061016976833343506
1683140200168203800,18.489203857421874,9.719645500183105,0.3858426511287689,-0.09092725813388824
1683140200186043000,18.50704296875,9.776474952697754,0.36670008301734924,-0.02392822690308094
1683140200203881500,18.524881591796873,9.795618057250977,0.3810569941997528,-0.047258246690034866
1683140200221709300,18.542709228515626,9.747760772705078,0.33798620104789734,-0.02392822690308094
1683140200239557400,18.560557373046876,9.786046028137207,0.34277185797691345,-0.08075776696205139
1683140200257400000,18.578400146484373,9.814760208129883,0.3278166949748993,-0.18544375896453857
1683140200275239200,18.5962392578125,9.738189697265625,0.357128769159317,0.10468599200248718
1683140200293066500,18.61406640625,9.758528709411621,0.37088751792907715,-0.25722843408584595
1683140200310917000,18.631917236328125,9.757332801818848,0.3762713670730591,0.038285162299871445
1683140200328756000,18.649755859375,9.800403594970703,0.33798620104789734,0.004785645287483931
1683140200346594600,18.667594482421876,9.824331283569336,0.39541393518447876,-0.14715859293937683
1683140200364435000,18.68543505859375,9.709476470947266,0.3284149169921875,0.047258246690034866
1683140200382273800,18.703273681640624,9.871589660644531,0.3762713670730591,-0.018544375896453857
1683140200400113200,18.721113037109376,9.838688850402832,0.37148571014404297,-0.1663011759519577
1683140200417950700,18.73895068359375,9.751948356628418,0.357128769159317,0.12382857501506805
1683140200435791400,18.756791259765624,9.80100154876709,0.4289134442806244,-0.15194423496723175
1683140200453631200,18.77463134765625,9.881160736083984,0.36670008301734924,-0.028115665540099144
1683140200471468800,18.79246875,9.795618057250977,0.3523431420326233,-0.06161518394947052
1683140200489308200,18.81030810546875,9.776474952697754,0.3858426511287689,0.004785645287483931
1683140200507148000,18.82814794921875,9.724431037902832,0.31824541091918945,-0.1094716340303421
1683140200524987000,18.84598681640625,9.776474952697754,0.3858426511287689,-0.08075776696205139
1683140200542826000,18.863825927734375,9.747760772705078,0.3762713670730591,0.0526420995593071
1683140200560664800,18.881664794921875,9.69093132019043,0.3565305769443512,-0.12442677468061447
1683140200578504700,18.899504638671875,9.714262008666992,0.41934216022491455,0.04247260093688965
1683140200596343600,18.917343505859375,9.738189697265625,0.357128769159317,0.07597211748361588
1683140200614182700,18.9351826171875,9.77707290649414,0.37148571014404297,-0.1381855010986328
1683140200632021500,18.953021484375,9.685547828674316,0.3762713670730591,0.13280165195465088
1683140200649861000,18.970861083984374,9.78126049041748,0.34277185797691345,-0.09511470049619675
1683140200667700200,18.9887001953125,9.838688850402832,0.3523431420326233,-0.08973085135221481
1683140200685538600,19.00653857421875,9.762118339538574,0.39541393518447876,0.06699903309345245
1683140200703379200,19.024379150390626,9.714859962463379,0.3326023519039154,-0.11904292553663254
1683140200721206000,19.0422060546875,9.824331283569336,0.41934216022491455,-0.06161518394947052
1683140200739056600,19.060056640625,9.804591178894043,0.3188436031341553,0.12921242415905
1683140200756896000,19.07789599609375,9.725028991699219,0.36610186100006104,-0.23808585107326508
1683140200774735400,19.0957353515625,9.862018585205078,0.31405797600746155,-0.09451649338006973
1683140200792562700,19.113562744140626,9.795618057250977,0.37148571014404297,0.038285162299871445
1683140200810413600,19.13141357421875,9.734002113342285,0.33738797903060913,-0.2189432680606842
1683140200828252700,19.149252685546877,9.7669038772583,0.4001995921134949,0.004785645287483931
1683140200846091500,19.167091552734377,9.818947792053223,0.30927231907844543,0.024526432156562805
1683140200863931000,19.184930908203125,9.724431037902832,0.37088751792907715,-0.1621137410402298
1683140200881767000,19.202766845703124,9.738189697265625,0.3236292600631714,0
1683140200899609300,19.220609375,9.747760772705078,0.36670008301734924,0.02392822690308094
1683140200917447200,19.238447265625,9.810572624206543,0.31824541091918945,-0.22851456701755524
1683140200935288800,19.256288818359376,9.723833084106445,0.3858426511287689,0.004785645287483931
1683140200953126700,19.274126708984376,9.82373332977295,0.33798620104789734,-0.01375873014330864
1683140200970966000,19.291966064453124,9.800403594970703,0.4049852192401886,-0.11425728350877762
1683140200988800500,19.309800537109375,9.733404159545898,0.3236292600631714,0.009571290574967861
1683140201006648800,19.32764892578125,9.885947227478027,0.37148571014404297,-0.004187439568340778
1683140201024483000,19.345483154296875,9.862616539001465,0.34277185797691345,-0.19920247793197632
1683140201042322200,19.363322265625,9.752547264099121,0.37148571014404297,0.10468599200248718
1683140201060161300,19.381161376953123,9.843474388122559,0.39541393518447876,-0.20458634197711945
1683140201078000600,19.399000732421875,9.857233047485352,0.3810569941997528,0.005383851006627083
1683140201095839700,19.41683984375,9.742975234985352,0.36670008301734924,0.02871387079358101
1683140201113688600,19.4346884765625,9.814760208129883,0.3762713670730591,-0.12801600992679596
1683140201131518000,19.45251806640625,9.81954574584961,0.31405797600746155,-0.09032905846834183
1683140201149354800,19.470354736328126,9.790233612060547,0.36670008301734924,0.07178468257188797
1683140201167199200,19.48819921875,9.677172660827637,0.37088751792907715,-0.18125630915164948
1683140201185035800,19.506035888671875,9.719047546386719,0.3475574851036072,0.004785645287483931
1683140201202874400,19.523874267578126,9.776474952697754,0.39062830805778503,0.03349951654672623
1683140201220702500,19.541702392578124,9.69093132019043,0.3852444589138031,-0.07178468257188797
1683140201238552800,19.559552734375,9.714262008666992,0.34277185797691345,0.03290131315588951
1683140201256380700,19.577380615234375,9.742975234985352,0.36670008301734924,0
1683140201274231000,19.59523095703125,9.814760208129883,0.34277185797691345,-0.12801600992679596
1683140201292056300,19.613056396484374,9.752547264099121,0.3475574851036072,0.038285162299871445
1683140201309909500,19.630909423828125,9.791430473327637,0.4001995921134949,-0.12382857501506805
1683140201327749000,19.6487490234375,9.800403594970703,0.3475574851036072,0.004785645287483931
1683140201345587700,19.666587646484373,9.7669038772583,0.39062830805778503,-0.009571290574967861
1683140201363427800,19.684427734375,9.705288887023926,0.3523431420326233,-0.04307080805301666
1683140201381266200,19.70226611328125,9.824331283569336,0.37148571014404297,-0.023330021649599075
1683140201399105300,19.720105224609377,9.800403594970703,0.3284149169921875,-0.008973085321485996
1683140201416944600,19.737944580078125,9.7669038772583,0.3810569941997528,-0.0568295381963253
1683140201434783000,19.755782958984376,9.881160736083984,0.3236292600631714,-0.10408778488636017
1683140201452620800,19.773620849609376,9.800403594970703,0.3810569941997528,-0.047258246690034866
1683140201470465000,19.791465087890625,9.829116821289062,0.2949153780937195,-0.11844471842050552
1683140201488301300,19.80930126953125,9.79083251953125,0.4097708761692047,-0.08075776696205139
1683140201506140700,19.827140625,9.842875480651855,0.2997010350227356,0.09092725813388824
1683140201523979300,19.844979248046876,9.743574142456055,0.380458801984787,-0.1621137410402298
1683140201541815000,19.86281494140625,9.833903312683105,0.3284149169921875,-0.137587308883667
1683140201559657500,19.880657470703124,9.795019149780273,0.3523431420326233,0.06699903309345245
1683140201577497000,19.8984970703125,9.77707290649414,0.3565305769443512,-0.22851456701755524
1683140201595336200,19.916336181640624,9.719047546386719,0.3810569941997528,0.0568295381963253
1683140201613175300,19.93417529296875,9.800403594970703,0.3332005441188812,-0.01375873014330864
1683140201631014400,19.952014404296875,9.814760208129883,0.4049852192401886,-0.08554340898990631
1683140201648854000,19.96985400390625,9.733404159545898,0.30927231907844543,0.004785645287483931
1683140201666692900,19.98769287109375,9.871589660644531,0.3762713670730591,-0.0849452018737793
1683140201684531700,20.00553173828125,9.872187614440918,0.3810569941997528,-0.16151553392410278
1683140201702370600,20.02337060546875,9.751948356628418,0.357128769159317,0.11904292553663254
1683140201720198700,20.04119873046875,9.781859397888184,0.3852444589138031,-0.18544375896453857
1683140201738037800,20.059037841796876,9.89551830291748,0.39062830805778503,0.019740786403417587
1683140201755874800,20.076874755859375,9.800403594970703,0.3044866919517517,-0.01375873014330864
1683140201773727200,20.094727294921874,9.743574142456055,0.3810569941997528,-0.10468599200248718
1683140201791566800,20.11256689453125,9.79083251953125,0.33798620104789734,-0.047258246690034866
1683140201809405700,20.13040576171875,9.833304405212402,0.34277185797691345,-0.008973085321485996
1683140201827245300,20.148245361328126,9.710074424743652,0.42352959513664246,-0.11006984114646912
1683140201845084000,20.166083984375,9.747760772705078,0.357128769159317,0.06640082597732544
1683140201862923500,20.183923583984374,9.814760208129883,0.36191442608833313,-0.07597211748361588
1683140201880763600,20.201763671875,9.719645500183105,0.3810569941997528,-0.04307080805301666
1683140201898600400,20.219600341796873,9.742975234985352,0.31345975399017334,-0.06161518394947052
1683140201916440300,20.2374404296875,9.762118339538574,0.3475574851036072,0.009571290574967861
1683140201934280200,20.2552802734375,9.7005033493042,0.37088751792907715,-0.12442677468061447
1683140201952119300,20.273119384765625,9.705288887023926,0.3475574851036072,-0.02392822690308094
1683140201969958100,20.290958251953125,9.79083251953125,0.4097708761692047,0.04785645380616188
1683140201987781400,20.308781494140625,9.686145782470703,0.37088751792907715,-0.04785645380616188
1683140202005640200,20.32664013671875,9.742975234985352,0.357128769159317,-0.02871387079358101
1683140202023475500,20.344475341796876,9.818947792053223,0.3332005441188812,-0.008973085321485996
1683140202041314300,20.362314208984376,9.81954574584961,0.39541393518447876,-0.11425728350877762
1683140202059153400,20.3801533203125,9.804591178894043,0.2997010350227356,0.014955141581594944
1683140202076993000,20.397992919921876,9.78664493560791,0.3900300860404968,-0.1663011759519577
1683140202094829800,20.415829833984375,9.871589660644531,0.33798620104789734,-0.04247260093688965
1683140202112673500,20.433673583984376,9.78126049041748,0.3858426511287689,0.004785645287483931
1683140202130510000,20.451510009765624,9.757332801818848,0.3332005441188812,-0.07597211748361588
1683140202148350200,20.46935009765625,9.757332801818848,0.37148571014404297,0.02871387079358101
1683140202166189300,20.487189208984375,9.81954574584961,0.28953152894973755,-0.15672987699508667
1683140202184027100,20.505027099609375,9.710074424743652,0.39062830805778503,-0.019142581149935722
1683140202201863000,20.52286279296875,9.833903312683105,0.3236292600631714,-0.12801600992679596
1683140202219694600,20.540694580078124,9.7669038772583,0.4001995921134949,-0.06161518394947052
1683140202237544700,20.558544677734375,9.842875480651855,0.3284149169921875,-0.06161518394947052
1683140202255384600,20.576384521484375,9.853045463562012,0.39541393518447876,-0.10408778488636017
1683140202273223000,20.594222900390626,9.80937671661377,0.28534409403800964,-0.018544375896453857
1683140202291049000,20.612049072265624,9.79083251953125,0.36670008301734924,-0.12861421704292297
1683140202308905000,20.629905029296875,9.824331283569336,0.3517449200153351,-0.1950150430202484
1683140202326740700,20.64774072265625,9.80937671661377,0.3523431420326233,0.10049854964017868
1683140202344571000,20.66557080078125,9.729815483093262,0.41874396800994873,-0.21954147517681122
1683140202362419700,20.683419677734374,9.771689414978027,0.3523431420326233,0.07178468257188797
1683140202380258300,20.70125830078125,9.809974670410156,0.3475574851036072,-0.03290131315588951
1683140202398097200,20.71909716796875,9.80518913269043,0.4049852192401886,-0.06161518394947052
1683140202415924200,20.73692431640625,9.690333366394043,0.3284149169921875,0.0568295381963253
1683140202433775900,20.75477587890625,9.853045463562012,0.36670008301734924,-0.09930214285850525
1683140202451614700,20.77261474609375,9.833903312683105,0.41934216022491455,-0.06640082597732544
1683140202469451000,20.790450927734376,9.757332801818848,0.33798620104789734,0.09032905846834183
1683140202487294700,20.808294677734374,9.791430473327637,0.4043870270252228,-0.18065811693668365
1683140202505133600,20.826133544921873,9.800403594970703,0.39062830805778503,0.038285162299871445
1683140202522968300,20.84396826171875,9.82373332977295,0.3332005441188812,-0.01375873014330864
1683140202540813300,20.861813232421873,9.724431037902832,0.39541393518447876,-0.08614161610603333
1683140202558649000,20.879649169921876,9.762118339538574,0.34277185797691345,-0.004785645287483931
1683140202576488700,20.89748876953125,9.78126049041748,0.36191442608833313,-0.019142581149935722
1683140202594327800,20.915327880859376,9.7669038772583,0.41934216022491455,-0.02871387079358101
1683140202612167200,20.933167236328124,9.757332801818848,0.357128769159317,0
1683140202630005800,20.951005859375,9.857233047485352,0.39541393518447876,-0.03290131315588951
1683140202647846000,20.968845947265624,9.729216575622559,0.36191442608833313,-0.02871387079358101
1683140202665684500,20.9866845703125,9.728618621826172,0.3523431420326233,0.014356935396790504
1683140202683523800,21.00452392578125,9.77707290649414,0.31824541091918945,-0.14297115802764893
1683140202701362200,21.022362060546875,9.705288887023926,0.4001995921134949,-0.05742774158716202
1683140202719201800,21.040201904296875,9.7998046875,0.29012975096702576,0.02392822690308094
1683140202737040600,21.05804052734375,9.705886840820312,0.42352959513664246,-0.16689938306808472
1683140202754880300,21.07588037109375,9.756733894348145,0.3188436031341553,0.11904292553663254
1683140202772709600,21.093709716796877,9.781859397888184,0.3613162338733673,-0.11904292553663254
1683140202790548200,21.11154833984375,9.824331283569336,0.3188436031341553,-0.06640082597732544
1683140202808390000,21.129389892578125,9.786046028137207,0.36670008301734924,-0.014356935396790504
1683140202826236700,21.147236572265626,9.862616539001465,0.3188436031341553,-0.1136590763926506
1683140202844075500,21.165075439453126,9.848259925842285,0.36191442608833313,-0.09930214285850525
1683140202861910500,21.18291064453125,9.89551830291748,0.3762713670730591,-0.08973085135221481
1683140202879754000,21.20075390625,9.857233047485352,0.37148571014404297,0.019740786403417587
1683140202897593000,21.218593017578126,9.762716293334961,0.31345975399017334,-0.18065811693668365
1683140202915432000,21.236431884765626,9.848259925842285,0.3810569941997528,-0.047258246690034866
1683140202933269000,21.25426904296875,9.871589660644531,0.3044866919517517,-0.05623133108019829
1683140202951113500,21.272113525390626,9.734002113342285,0.4043870270252228,-0.12382857501506805
1683140202968950800,21.28995068359375,9.762716293334961,0.39062830805778503,-0.07597211748361588
1683140202986784800,21.30778466796875,9.838089942932129,0.33798620104789734,0.03888336941599846
1683140203004628000,21.3256279296875,9.767501831054688,0.3900300860404968,-0.15732808411121368
1683140203022464800,21.34346484375,9.762118339538574,0.3762713670730591,0.09032905846834183
1683140203040297200,21.361297119140627,9.814760208129883,0.28953152894973755,-0.13280165195465088
1683140203058145000,21.37914501953125,9.885947227478027,0.39541393518447876,-0.061016976833343506
1683140203075984600,21.396984619140625,9.714262008666992,0.3762713670730591,0.07118647545576096
1683140203093823700,21.41482373046875,9.843474388122559,0.357128769159317,-0.15194423496723175
1683140203111662300,21.432662353515624,9.866804122924805,0.4289134442806244,-0.008973085321485996
1683140203129501400,21.45050146484375,9.719047546386719,0.34277185797691345,0.07597211748361588
1683140203147340000,21.468340087890624,9.762716293334961,0.37088751792907715,-0.16689938306808472
1683140203165181000,21.486180908203124,9.814162254333496,0.4001995921134949,0.05742774158716202
1683140203183019300,21.504019287109376,9.776474952697754,0.31405797600746155,-0.014356935396790504
1683140203200858000,21.521858154296876,9.724431037902832,0.3613162338733673,-0.16689938306808472
1683140203218697500,21.539697509765624,9.728618621826172,0.39541393518447876,0.09511470049619675
1683140203236521700,21.557521728515624,9.80518913269043,0.3332005441188812,-0.06640082597732544
1683140203254375700,21.575375732421875,9.795618057250977,0.4097708761692047,-0.07597211748361588
1683140203272210000,21.5932099609375,9.738189697265625,0.34277185797691345,0.04785645380616188
1683140203290051000,21.611051025390626,9.81954574584961,0.36610186100006104,-0.17108681797981262
1683140203307888400,21.628888427734374,9.804591178894043,0.3284149169921875,0.08614161610603333
1683140203325732000,21.646732177734375,9.705288887023926,0.36610186100006104,-0.15254244208335876
1683140203343571200,21.6645712890625,9.78126049041748,0.3236292600631714,-0.014356935396790504
1683140203361410600,21.68241064453125,9.833903312683105,0.37148571014404297,-0.047258246690034866
1683140203379249200,21.700249267578126,9.800403594970703,0.3332005441188812,-0.06161518394947052
1683140203397088800,21.7180888671875,9.776474952697754,0.36191442608833313,-0.0568295381963253
1683140203414927400,21.73592724609375,9.771689414978027,0.32303106784820557,-0.10468599200248718
1683140203432764000,21.753763916015625,9.738189697265625,0.3762713670730591,0.09511470049619675
1683140203450607900,21.77160791015625,9.77707290649414,0.3038884699344635,-0.20937198400497437
1683140203468443100,21.789443115234373,9.657432556152344,0.4049852192401886,0.07058826833963394
1683140203486286800,21.807286865234374,9.93380355834961,0.3284149169921875,-0.09930214285850525
1683140203504120800,21.825120849609377,9.848259925842285,0.41934216022491455,-0.1423729509115219
1683140203521964800,21.84296484375,9.776474952697754,0.3188436031341553,0.04307080805301666
1683140203539801300,21.86080126953125,9.857831001281738,0.3762713670730591,-0.06161518394947052
1683140203557640200,21.87864013671875,9.885947227478027,0.3188436031341553,-0.137587308883667
1683140203575469000,21.896468994140626,9.776474952697754,0.3858426511287689,0.08614161610603333
1683140203593324000,21.914323974609374,9.896116256713867,0.3613162338733673,-0.23270200192928314
1683140203611157800,21.93215771484375,9.890732765197754,0.3810569941997528,-0.03290131315588951
1683140203628996600,21.94999658203125,9.818947792053223,0.36670008301734924,0.019142581149935722
1683140203646836500,21.96783642578125,9.809974670410156,0.36191442608833313,-0.137587308883667
1683140203664675000,21.985675048828124,9.786046028137207,0.3332005441188812,-0.06640082597732544
1683140203682517500,22.003517578125,9.818947792053223,0.37148571014404297,0.1052841991186142
1683140203700353300,22.021353271484376,9.67238712310791,0.33738797903060913,-0.22911277413368225
1683140203718193200,22.039193115234376,9.79083251953125,0.36191442608833313,-0.004785645287483931
1683140203736025300,22.057025390625,9.800403594970703,0.3810569941997528,0.019142581149935722
1683140203753871000,22.07487109375,9.69093132019043,0.3852444589138031,-0.1052841991186142
1683140203771706000,22.0927060546875,9.719047546386719,0.4001995921134949,0.07597211748361588
1683140203789549600,22.110549560546875,9.824331283569336,0.3762713670730591,-0.018544375896453857
1683140203807387400,22.128387451171875,9.829116821289062,0.3284149169921875,-0.1423729509115219
1683140203825228300,22.146228271484375,9.762118339538574,0.36670008301734924,0.08075776696205139
1683140203843066400,22.16406640625,9.795618057250977,0.3810569941997528,-0.1094716340303421
1683140203860906000,22.181906005859375,9.843474388122559,0.36670008301734924,-0.06640082597732544
1683140203878744800,22.199744873046875,9.78126049041748,0.39541393518447876,0.062213387340307236
1683140203896583700,22.217583740234375,9.710074424743652,0.34695929288864136,-0.11425728350877762
1683140203914422500,22.235422607421874,9.848259925842285,0.3810569941997528,-0.0568295381963253
1683140203932259300,22.25325927734375,9.761520385742188,0.3475574851036072,0.09990034252405167
1683140203950104000,22.27110400390625,9.662816047668457,0.36610186100006104,-0.16749759018421173
1683140203967939000,22.28893896484375,9.79083251953125,0.3236292600631714,-0.06161518394947052
1683140203985780200,22.3067802734375,9.814760208129883,0.39541393518447876,0.019142581149935722
1683140204003618800,22.324618896484374,9.705288887023926,0.3326023519039154,-0.12382857501506805
1683140204021457700,22.342457763671874,9.714859962463379,0.39062830805778503,0.01375873014330864
1683140204039296500,22.360296630859374,9.795019149780273,0.3236292600631714,0.06699903309345245
1683140204057135400,22.37813525390625,9.791430473327637,0.3900300860404968,-0.15732808411121368
1683140204074975200,22.395975341796873,9.804591178894043,0.30927231907844543,0.019142581149935722
1683140204092814000,22.41381396484375,9.767501831054688,0.39062830805778503,-0.1094716340303421
1683140204110652700,22.431652587890625,9.900303840637207,0.357128769159317,-0.0849452018737793
1683140204128492000,22.449491943359376,9.776474952697754,0.3810569941997528,0.004785645287483931
1683140204146331400,22.467331298828125,9.757930755615234,0.3326023519039154,-0.1094716340303421
1683140204164170500,22.48517041015625,9.852447509765625,0.3762713670730591,-0.008973085321485996
1683140204182009300,22.50300927734375,9.829116821289062,0.3284149169921875,-0.06161518394947052
1683140204199848400,22.520848388671876,9.81954574584961,0.3762713670730591,-0.023330021649599075
1683140204217691400,22.53869140625,9.862616539001465,0.34695929288864136,-0.17108681797981262
