time,seconds_elapsed,z,y,x
1683140181829406000,0.150406005859375,2.3317975997924805,-5.9670867919921875,0.1386604905128479
1683140181847347500,0.168347412109375,2.274751663208008,-5.939619541168213,0.09992824494838715
1683140181865185300,0.186185302734375,2.2871904373168945,-5.963232040405273,0.24973660707473755
1683140181883024000,0.20402392578125,2.3129310607910156,-5.914090156555176,0.11853182315826416
1683140181900862000,0.221862060546875,2.2847814559936523,-5.946302890777588,0.22675463557243347
1683140181918701800,0.239701904296875,2.2449746131896973,-5.94268798828125,0.2257295399904251
1683140181936537300,0.257537353515625,2.2678027153015137,-5.966543197631836,0.14405223727226257
1683140181954371000,0.27537109375,2.273982048034668,-5.945703983306885,0.145822674036026
1683140181972219000,0.293218994140625,2.317378520965576,-5.973881721496582,0.21493634581565857
1683140181990055400,0.311055419921875,2.2114200592041016,-5.915759563446045,0.10575474798679352
1683140182007900200,0.328900146484375,2.2950544357299805,-5.939547538757324,0.20455794036388397
1683140182025733400,0.3467333984375,2.3072071075439453,-5.922529697418213,0.2406834214925766
1683140182043578000,0.364578125,2.2491464614868164,-5.943927764892578,0.11846776306629181
1683140182061414700,0.38241455078125,2.2895736694335938,-5.938154697418213,0.2334650158882141
1683140182079253200,0.400253173828125,2.349696636199951,-5.974717140197754,0.10345275700092316
1683140182097092600,0.418092529296875,2.2535624504089355,-5.926896572113037,0.1831667721271515
1683140182114931700,0.435931640625,2.2916154861450195,-5.957727432250977,0.1456870436668396
1683140182132771000,0.45377099609375,2.2750425338745117,-5.898675441741943,0.1716689020395279
1683140182150610000,0.47160986328125,2.278703212738037,-5.951752185821533,0.2523166537284851
1683140182168448800,0.48944873046875,2.289151191711426,-5.921457290649414,0.12462592124938965
1683140182186288600,0.50728857421875,2.245725154876709,-5.9504899978637695,0.22246980667114258
1683140182204127200,0.525127197265625,2.3413162231445312,-5.940132141113281,0.23356717824935913
1683140182221965800,0.5429658203125,2.311102867126465,-5.929139137268066,0.05252046883106232
1683140182239792400,0.56079248046875,2.2552475929260254,-5.930222034454346,0.2959390878677368
1683140182257635300,0.57863525390625,2.3166565895080566,-5.919617176055908,0.1248653307557106
1683140182275483400,0.5964833984375,2.309925079345703,-5.906392574310303,0.15766876935958862
1683140182293305600,0.6143056640625,2.245901107788086,-5.955859661102295,0.2675412893295288
1683140182311162000,0.632162109375,2.280191421508789,-5.917901515960693,0.13224655389785767
1683140182329000700,0.650000732421875,2.2659339904785156,-5.9526166915893555,0.1566729098558426
1683140182346840000,0.667840087890625,2.253866672515869,-5.939002513885498,0.2636956572532654
1683140182364678700,0.6856787109375,2.2545928955078125,-5.918276786804199,0.08386178314685822
1683140182382518800,0.703518798828125,2.2278294563293457,-5.914994716644287,0.23227471113204956
1683140182400357000,0.721357177734375,2.2641758918762207,-5.9147844314575195,0.22392696142196655
1683140182418196500,0.739196533203125,2.226741313934326,-5.902369499206543,0.1372574269771576
1683140182436033500,0.757033447265625,2.2385711669921875,-5.933749198913574,0.25209271907806396
1683140182453873700,0.774873779296875,2.259762763977051,-5.927188873291016,0.20643605291843414
1683140182471716600,0.792716552734375,2.2797017097473145,-5.928488731384277,0.09658876061439514
1683140182489553000,0.810552978515625,2.229480266571045,-5.932453155517578,0.2597777247428894
1683140182507390700,0.828390625,2.2913155555725098,-5.894435882568359,0.1292060911655426
1683140182525232000,0.846232177734375,2.2398056983947754,-5.914241313934326,0.20939527451992035
1683140182543070200,0.8640703125,2.231815814971924,-5.914085865020752,0.22716975212097168
1683140182560907000,0.881906982421875,2.2259902954101562,-5.930178642272949,0.1649182140827179
1683140182578736400,0.899736328125,2.2470803260803223,-5.9155659675598145,0.1521720588207245
1683140182596588000,0.917588134765625,2.2754616737365723,-5.94118595123291,0.23853974044322968
1683140182614426400,0.93542626953125,2.1935572624206543,-5.905966281890869,0.0846661776304245
1683140182632253700,0.953253662109375,2.2578530311584473,-5.926852226257324,0.18777379393577576
1683140182650093000,0.971093017578125,2.2498021125793457,-5.886007308959961,0.21595582365989685
1683140182667944200,0.988944091796875,2.2234392166137695,-5.910467147827148,0.1561630368232727
1683140182685782800,1.00678271484375,2.223498821258545,-5.908413410186768,0.21915552020072937
1683140182703622000,1.024621826171875,2.292020797729492,-5.930957317352295,0.19085536897182465
1683140182721460700,1.042460693359375,2.23482608795166,-5.891756057739258,0.13202868402004242
1683140182739300600,1.060300537109375,2.283628463745117,-5.926191329956055,0.1885143667459488
1683140182757130000,1.0781298828125,2.270878791809082,-5.877975940704346,0.1398898959159851
1683140182774981000,1.095981201171875,2.2706823348999023,-5.89190673828125,0.15314027667045593
1683140182792817200,1.113817138671875,2.2443361282348633,-5.870473384857178,0.24627497792243958
1683140182810657000,1.131656982421875,2.22039794921875,-5.9142560958862305,0.12230546772480011
1683140182828494600,1.14949462890625,2.2658591270446777,-5.878772258758545,0.18144454061985016
1683140182846335700,1.167335693359375,2.2421045303344727,-5.927086353302002,0.1915663480758667
1683140182864173600,1.185173583984375,2.211297035217285,-5.870716094970703,0.10977140069007874
1683140182882013200,1.20301318359375,2.237734794616699,-5.872637748718262,0.1654767096042633
1683140182899852300,1.220852294921875,2.2840800285339355,-5.8860087394714355,0.182372584939003
1683140182917690000,1.238690185546875,2.218222141265869,-5.871829986572266,0.13854114711284637
1683140182935531300,1.25653125,2.245570659637451,-5.860325336456299,0.24176888167858124
1683140182953369600,1.27436962890625,2.2132654190063477,-5.915833473205566,0.15732795000076294
1683140182971208400,1.29220849609375,2.228302001953125,-5.872548580169678,0.16328750550746918
1683140182989047600,1.310047607421875,2.21970272064209,-5.8709940910339355,0.17843082547187805
1683140183006886100,1.32788623046875,2.2559103965759277,-5.8772149085998535,0.17372994124889374
1683140183024726500,1.3457265625,2.2493014335632324,-5.833148956298828,0.15572386980056763
1683140183042565000,1.363565185546875,2.221395969390869,-5.853882312774658,0.21696454286575317
1683140183060404000,1.381404052734375,2.203178882598877,-5.857893943786621,0.16661405563354492
1683140183078242600,1.39924267578125,2.243112087249756,-5.850330352783203,0.2525867223739624
1683140183096079400,1.417079345703125,2.225508689880371,-5.899463653564453,0.07302021980285645
1683140183113924000,1.434924072265625,2.1860299110412598,-5.8517842292785645,0.2120138555765152
1683140183131758000,1.452758056640625,2.1950621604919434,-5.8433613777160645,0.16440925002098083
1683140183149598000,1.470597900390625,2.1569037437438965,-5.838282108306885,0.1923460215330124
1683140183167437600,1.4884375,2.1966428756713867,-5.833963871002197,0.1797086000442505
1683140183185279000,1.506279052734375,2.1287527084350586,-5.827190399169922,0.237923264503479
1683140183203116500,1.524116455078125,2.214721202850342,-5.872846603393555,0.19446074962615967
1683140183220955600,1.54195556640625,2.2169156074523926,-5.837100028991699,0.1395360231399536
1683140183238795300,1.559795166015625,2.159097194671631,-5.846862316131592,0.20067572593688965
1683140183256633900,1.5776337890625,2.2156429290771484,-5.8624162673950195,0.13748502731323242
1683140183274473200,1.59547314453125,2.2024893760681152,-5.781263828277588,0.1272362619638443
1683140183292312000,1.61331201171875,2.1505203247070312,-5.855020046234131,0.29987460374832153
1683140183310151700,1.631151611328125,2.156825065612793,-5.8147873878479,0.1199536919593811
1683140183327990800,1.64899072265625,2.1841139793395996,-5.839259624481201,0.21242743730545044
1683140183345830000,1.666829833984375,2.1740574836730957,-5.832236289978027,0.11344733834266663
1683140183363668200,1.684668212890625,2.2070188522338867,-5.843266487121582,0.19114059209823608
1683140183381507800,1.7025078125,2.1036548614501953,-5.802424430847168,0.1481960415840149
1683140183399347000,1.720346923828125,2.160665988922119,-5.815843105316162,0.18337106704711914
1683140183417185800,1.738185791015625,2.2032389640808105,-5.790526866912842,0.23000922799110413
1683140183435025000,1.75602490234375,2.1545052528381348,-5.823592185974121,0.11315228044986725
1683140183452864300,1.7738642578125,2.159916877746582,-5.799288272857666,0.22249141335487366
1683140183470703400,1.791703369140625,2.2208237648010254,-5.8306474685668945,0.1789751648902893
1683140183488542500,1.80954248046875,2.1651735305786133,-5.79064416885376,0.1153203472495079
1683140183506381300,1.82738134765625,2.1862258911132812,-5.801422119140625,0.1923539638519287
1683140183524221000,1.845220947265625,2.1997499465942383,-5.786900043487549,0.12557119131088257
1683140183542059500,1.8630595703125,2.1765456199645996,-5.786906719207764,0.14888739585876465
1683140183559899000,1.88089892578125,2.1618847846984863,-5.7824273109436035,0.251494437456131
1683140183577724400,1.898724365234375,2.1215367317199707,-5.809581756591797,0.10340624302625656
1683140183595579600,1.91657958984375,2.175417423248291,-5.772706031799316,0.184322327375412
1683140183613415200,1.934415283203125,2.1439433097839355,-5.8151044845581055,0.19120310246944427
1683140183631256300,1.95225634765625,2.1220755577087402,-5.757515907287598,0.10279892385005951
1683140183649094000,1.970093994140625,2.154604911804199,-5.748954772949219,0.187038391828537
1683140183666933800,1.987933837890625,2.134963035583496,-5.758242130279541,0.20597897469997406
1683140183684772600,2.005772705078125,2.108523368835449,-5.760567665100098,0.14152060449123383
1683140183702612000,2.023612060546875,2.1603918075561523,-5.754314422607422,0.22395232319831848
1683140183720450600,2.041450439453125,2.1099038124084473,-5.794613361358643,0.1271595060825348
1683140183738290400,2.05929052734375,2.119141101837158,-5.752407550811768,0.18392056226730347
1683140183756129000,2.07712890625,2.1051087379455566,-5.747105121612549,0.1622065007686615
1683140183773965300,2.09496533203125,2.1292738914489746,-5.751864433288574,0.1711459457874298
1683140183791806500,2.112806396484375,2.133605480194092,-5.706160545349121,0.14691214263439178
1683140183809646800,2.130646728515625,2.091935157775879,-5.741256237030029,0.24755926430225372
1683140183827485400,2.1484853515625,2.102835178375244,-5.738276958465576,0.15843728184700012
1683140183845313000,2.16631298828125,2.083407402038574,-5.725915908813477,0.24056990444660187
1683140183863160800,2.184160888671875,2.1210227012634277,-5.772267818450928,0.09149603545665741
1683140183881005800,2.202005859375,2.070100784301758,-5.731678009033203,0.18689940869808197
1683140183898842000,2.219842041015625,2.081428050994873,-5.701861381530762,0.14538557827472687
1683140183916669400,2.23766943359375,2.0287251472473145,-5.7161054611206055,0.21770702302455902
1683140183934520000,2.25552001953125,2.083822727203369,-5.69460916519165,0.1583959311246872
1683140183952360000,2.27335986328125,2.048982620239258,-5.715315341949463,0.22574256360530853
1683140183970198300,2.2911982421875,2.068340301513672,-5.742934703826904,0.13865622878074646
1683140183988035600,2.30903564453125,2.0975756645202637,-5.709691047668457,0.10871590673923492
1683140184005878500,2.32687841796875,2.053683280944824,-5.712325572967529,0.24208110570907593
1683140184023716000,2.344716064453125,2.0649099349975586,-5.722314834594727,0.07947118580341339
1683140184041555000,2.362554931640625,2.0617523193359375,-5.654159069061279,0.17690898478031158
1683140184059382500,2.380382568359375,2.0941624641418457,-5.71792459487915,0.26433879137039185
1683140184077233200,2.398233154296875,2.0429649353027344,-5.666460037231445,0.06966200470924377
1683140184095072800,2.41607275390625,2.0394277572631836,-5.69575309753418,0.2704958915710449
1683140184112908000,2.433907958984375,2.069054126739502,-5.684031963348389,0.1878090500831604
1683140184130753300,2.451753173828125,2.1157712936401367,-5.6900315284729,0.044004619121551514
1683140184148589300,2.46958935546875,2.022092342376709,-5.6559834480285645,0.2523775100708008
1683140184166429200,2.48742919921875,2.0976953506469727,-5.687315940856934,0.0856245756149292
1683140184184255700,2.505255859375,2.0770626068115234,-5.615128993988037,0.1396072953939438
1683140184202102300,2.523102294921875,2.0321149826049805,-5.684108257293701,0.24624939262866974
1683140184219946200,2.5409462890625,2.053030014038086,-5.6534013748168945,0.10280411690473557
1683140184237786000,2.5587861328125,2.0721144676208496,-5.675221920013428,0.10970722883939743
1683140184255627300,2.576627197265625,2.028003692626953,-5.642348289489746,0.25402021408081055
1683140184273451500,2.594451416015625,2.0075864791870117,-5.630775451660156,0.02263723313808441
1683140184291302700,2.612302734375,2.0362000465393066,-5.626193523406982,0.2023325264453888
1683140184309141500,2.6301416015625,2.0273404121398926,-5.633237838745117,0.19462920725345612
1683140184326980600,2.647980712890625,2.022812843322754,-5.595249652862549,0.15183666348457336
1683140184344826400,2.665826416015625,1.9756464958190918,-5.656595230102539,0.19789260625839233
1683140184362657300,2.6836572265625,2.0017848014831543,-5.614919662475586,0.19701404869556427
1683140184380498400,2.70149853515625,2.0294742584228516,-5.639081954956055,0.1178281158208847
1683140184398337000,2.7193369140625,2.0244197845458984,-5.608514308929443,0.1364322304725647
1683140184416164600,2.73716455078125,2.020529270172119,-5.578364372253418,0.18257036805152893
1683140184434005000,2.7550048828125,2.001458168029785,-5.593968868255615,0.15397411584854126
1683140184451851300,2.772851318359375,1.9769411087036133,-5.588335037231445,0.1586342751979828
1683140184469692700,2.790692626953125,1.9939217567443848,-5.584854602813721,0.259646475315094
1683140184487533800,2.808533935546875,1.958756446838379,-5.632476329803467,0.07849490642547607
1683140184505371400,2.826371337890625,1.9864139556884766,-5.5765380859375,0.14361810684204102
1683140184523211000,2.8442109375,1.9984941482543945,-5.5769734382629395,0.22607679665088654
1683140184541050000,2.862050048828125,1.9231324195861816,-5.568112373352051,0.08149437606334686
1683140184558889200,2.87988916015625,1.9682536125183105,-5.537242412567139,0.2169637680053711
1683140184576728000,2.89772802734375,1.9605941772460938,-5.574166297912598,0.20676623284816742
1683140184594553900,2.915553955078125,1.937575340270996,-5.553307056427002,0.11433999240398407
1683140184612409000,2.9334091796875,1.9779181480407715,-5.553266525268555,0.2787933945655823
1683140184630245600,2.95124560546875,1.9590187072753906,-5.562068462371826,0.07453212141990662
1683140184648084500,2.96908447265625,1.9817276000976562,-5.555570125579834,0.1931229680776596
1683140184665912600,2.98691259765625,1.960775375366211,-5.503421306610107,0.14050716161727905
1683140184683763000,3.004762939453125,1.92393159866333,-5.545220375061035,0.21790355443954468
1683140184701602000,3.02260205078125,1.9391603469848633,-5.512773036956787,0.13348650932312012
1683140184719441400,3.04044140625,1.9179487228393555,-5.528522491455078,0.2258985936641693
1683140184737281500,3.058281494140625,1.9461627006530762,-5.539103984832764,0.16221892833709717
1683140184755116500,3.076116455078125,1.9783568382263184,-5.5325446128845215,0.08870422095060349
1683140184772961000,3.0939609375,1.8856797218322754,-5.500580787658691,0.2257145643234253
1683140184790797600,3.111797607421875,1.975550651550293,-5.540535926818848,0.09995358437299728
1683140184808637400,3.129637451171875,1.9466314315795898,-5.461649417877197,0.12136787921190262
1683140184826476300,3.147476318359375,1.9110212326049805,-5.523871421813965,0.24870412051677704
1683140184844315100,3.165315185546875,1.9142894744873047,-5.494095802307129,0.09457147866487503
1683140184862154200,3.183154296875,1.9472689628601074,-5.503832817077637,0.12474676221609116
1683140184879993000,3.2009931640625,1.8799018859863281,-5.490633010864258,0.25876641273498535
1683140184897820700,3.218820556640625,1.8970417976379395,-5.498032093048096,-0.0021857768297195435
1683140184915672800,3.2366728515625,1.8918499946594238,-5.438762187957764,0.19166971743106842
1683140184933500000,3.2545,1.9095268249511719,-5.482776165008545,0.2047213315963745
1683140184951355400,3.27235546875,1.8872027397155762,-5.4246416091918945,0.06762377917766571
1683140184969189400,3.290189453125,1.8655376434326172,-5.4605937004089355,0.2226707488298416
1683140184987028000,3.308028076171875,1.9446110725402832,-5.455523490905762,0.19811049103736877
1683140185004864000,3.325864013671875,1.898857593536377,-5.453391075134277,0.029003769159317017
1683140185022695400,3.3436953125,1.8620514869689941,-5.433109283447266,0.2585691213607788
1683140185040545500,3.361545654296875,1.9104804992675781,-5.427810192108154,0.08016426861286163
1683140185058388000,3.379387939453125,1.916642665863037,-5.4027323722839355,0.14466525614261627
1683140185076223700,3.3972236328125,1.8540129661560059,-5.422338008880615,0.16604125499725342
1683140185094063400,3.4150634765625,1.8691611289978027,-5.392463684082031,0.17670764029026031
1683140185111897600,3.432897705078125,1.83543062210083,-5.450204372406006,0.15504233539104462
1683140185129737500,3.450737548828125,1.8329439163208008,-5.396204471588135,0.14910876750946045
1683140185147581000,3.468580810546875,1.8378701210021973,-5.412508487701416,0.1827271431684494
1683140185165422600,3.486422607421875,1.817953109741211,-5.389553070068359,0.10445187985897064
1683140185183253500,3.50425341796875,1.8093781471252441,-5.363875389099121,0.17004351317882538
1683140185201086000,3.5220859375,1.8292884826660156,-5.379025459289551,0.22992360591888428
1683140185218936800,3.539936767578125,1.8269166946411133,-5.366979598999023,0.11021122336387634
1683140185236773400,3.5577734375,1.767918586730957,-5.352907657623291,0.24593541026115417
1683140185254618600,3.57561865234375,1.8534469604492188,-5.408735275268555,0.1498926877975464
1683140185272443000,3.59344287109375,1.8465261459350586,-5.359093189239502,0.07406654953956604
1683140185290290700,3.611290771484375,1.8058323860168457,-5.347610950469971,0.22650903463363647
1683140185308135200,3.62913525390625,1.8084025382995605,-5.369243621826172,0.1318461298942566
1683140185325963500,3.646963623046875,1.8354673385620117,-5.292284965515137,0.12597189843654633
1683140185343811000,3.66481103515625,1.779940128326416,-5.355493068695068,0.28876227140426636
1683140185361649700,3.682649658203125,1.7736458778381348,-5.3493146896362305,0.0602363646030426
1683140185379489500,3.700489501953125,1.8217854499816895,-5.33353853225708,0.1326109915971756
1683140185397328000,3.718327880859375,1.774245262145996,-5.334099292755127,0.23090116679668427
1683140185415168500,3.73616845703125,1.7553901672363281,-5.345817565917969,0.03754687309265137
1683140185432994600,3.75399462890625,1.7737574577331543,-5.277935981750488,0.16848760843276978
1683140185450834200,3.771834228515625,1.7971758842468262,-5.322332382202148,0.2322598546743393
1683140185468685300,3.789685302734375,1.744072437286377,-5.277390480041504,0.09897658228874207
1683140185486524200,3.807524169921875,1.769627571105957,-5.312901973724365,0.20042501389980316
1683140185504362800,3.82536279296875,1.7327823638916016,-5.284063339233398,0.1885649561882019
1683140185522200000,3.843199951171875,1.855149269104004,-5.32103967666626,0.09517698734998703
1683140185540044500,3.86104443359375,1.7811899185180664,-5.258475303649902,0.10272862017154694
1683140185557880300,3.87888037109375,1.778916358947754,-5.283198356628418,0.1685224026441574
1683140185575719400,3.896719482421875,1.7684707641601562,-5.250530242919922,0.11089275032281876
1683140185593559600,3.9145595703125,1.7572307586669922,-5.251029014587402,0.13140185177326202
1683140185611398400,3.9323984375,1.773183822631836,-5.249976634979248,0.2457803338766098
1683140185629234700,3.950234619140625,1.7172555923461914,-5.277070999145508,0.05023281276226044
1683140185647079000,3.968078857421875,1.7524843215942383,-5.230741500854492,0.13438567519187927
1683140185664915700,3.985915771484375,1.7589168548583984,-5.251240253448486,0.16821688413619995
1683140185682754600,4.003754638671875,1.693812370300293,-5.2044997215271,0.08224460482597351
1683140185700594000,4.021593994140625,1.707040786743164,-5.1976728439331055,0.1817893534898758
1683140185718432800,4.039432861328125,1.7794818878173828,-5.218436241149902,0.19606974720954895
1683140185736272400,4.0572724609375,1.686781883239746,-5.22495698928833,0.07337307929992676
1683140185754099500,4.075099365234375,1.6927318572998047,-5.188583850860596,0.2603949010372162
1683140185771950300,4.092950439453125,1.7384929656982422,-5.233063220977783,0.11063791811466217
1683140185789789200,4.1107890625,1.7209882736206055,-5.179748058319092,0.0944528579711914
1683140185807629000,4.128629150390625,1.6820497512817383,-5.168389797210693,0.21821874380111694
1683140185825456000,4.1464560546875,1.6951398849487305,-5.171341419219971,0.10347087681293488
1683140185843306500,4.164306396484375,1.6965227127075195,-5.1445112228393555,0.16785714030265808
1683140185861145900,4.182145751953125,1.654799461364746,-5.158119201660156,0.2469193935394287
1683140185878982400,4.199982421875,1.6318778991699219,-5.189208030700684,0.07100927829742432
1683140185896827400,4.217827392578125,1.6945743560791016,-5.140908241271973,0.1303459107875824
1683140185914663700,4.23566357421875,1.650385856628418,-5.151171684265137,0.2155137062072754
1683140185932502800,4.253502685546875,1.5954513549804688,-5.142175197601318,0.05530264973640442
1683140185950342100,4.271342041015625,1.6535558700561523,-5.096345901489258,0.196329265832901
1683140185968168700,4.289168701171875,1.6255340576171875,-5.12270975112915,0.23308630287647247
1683140185986020400,4.307020263671875,1.6318349838256836,-5.11891508102417,0.09216141700744629
1683140186003859500,4.324859375,1.6443052291870117,-5.103710174560547,0.19719736278057098
1683140186021698800,4.34269873046875,1.60760498046875,-5.119987964630127,0.16277724504470825
1683140186039537700,4.36053759765625,1.692133903503418,-5.128072261810303,0.13143965601921082
1683140186057375700,4.378375732421875,1.6541833877563477,-5.064663410186768,0.08597634732723236
1683140186075216400,4.39621630859375,1.6237831115722656,-5.113389492034912,0.19826552271842957
1683140186093059800,4.414059814453125,1.63677978515625,-5.05971097946167,0.08850452303886414
1683140186110894000,4.43189404296875,1.6055078506469727,-5.062530994415283,0.1736201047897339
1683140186128733700,4.449733642578125,1.583719253540039,-5.094244003295898,0.21821469068527222
1683140186146572500,4.467572509765625,1.6057958602905273,-5.089276313781738,0.0471004843711853
1683140186164412200,4.485412109375,1.5802526473999023,-5.035708427429199,0.14199256896972656
1683140186182246100,4.50324609375,1.6487197875976562,-5.081472873687744,0.19196957349777222
1683140186200096300,4.52109619140625,1.5595331192016602,-5.00338888168335,0.04260548949241638
1683140186217927700,4.538927734375,1.5618829727172852,-5.046165943145752,0.22541901469230652
1683140186235768600,4.5567685546875,1.6409320831298828,-5.02783727645874,0.18182632327079773
1683140186253603300,4.574603271484375,1.5837926864624023,-5.030672550201416,0.07291984558105469
1683140186271450600,4.59245068359375,1.5544347763061523,-5.023644924163818,0.2219294309616089
1683140186289285400,4.610285400390625,1.65582275390625,-5.031880855560303,0.05995902419090271
1683140186307125000,4.628125,1.594162940979004,-4.976896286010742,0.10180625319480896
1683140186324952000,4.6459521484375,1.5787467956542969,-5.016907691955566,0.17624180018901825
1683140186342802700,4.663802734375,1.5986337661743164,-4.969985485076904,0.08570786565542221
1683140186360642300,4.681642333984375,1.5475435256958008,-4.976217746734619,0.1623879373073578
1683140186378482200,4.699482177734375,1.5827999114990234,-4.980483055114746,0.19791734218597412
1683140186396321000,4.717321044921875,1.5292634963989258,-4.995326519012451,0.058987945318222046
1683140186414159600,4.73515966796875,1.5441865921020508,-4.960605621337891,0.18097655475139618
1683140186431998700,4.752998779296875,1.5683269500732422,-4.944161415100098,0.09368354082107544
1683140186449835800,4.770835693359375,1.532088279724121,-4.9409308433532715,0.18522405624389648
1683140186467680300,4.78868017578125,1.5160837173461914,-4.926843643188477,0.1264706254005432
1683140186485516300,4.806516357421875,1.5421342849731445,-4.917990684509277,0.16302192211151123
1683140186503355600,4.824355712890625,1.5366878509521484,-4.968236923217773,0.1777660846710205
1683140186521183700,4.842183837890625,1.535665512084961,-4.900574684143066,0.08521685004234314
1683140186539034000,4.8600341796875,1.499384880065918,-4.9279913902282715,0.19279654324054718
1683140186556873200,4.877873291015625,1.5365867614746094,-4.922863006591797,0.13413211703300476
1683140186574712000,4.895712158203125,1.5507478713989258,-4.863668918609619,0.08452263474464417
1683140186592552000,4.913552001953125,1.463557243347168,-4.900096416473389,0.23225809633731842
1683140186610390800,4.931390869140625,1.4933137893676758,-4.893316268920898,0.08551521599292755
1683140186628230000,4.94922998046875,1.4905986785888672,-4.858858585357666,0.14983326196670532
1683140186646068700,4.96706884765625,1.474595069885254,-4.918200492858887,0.2143838256597519
1683140186663908600,4.98490869140625,1.4414281845092773,-4.8702311515808105,0.06065879762172699
1683140186681744400,5.002744384765625,1.4884977340698242,-4.848370552062988,0.11313404142856598
1683140186699586600,5.020586669921875,1.4645586013793945,-4.879796981811523,0.2119186818599701
1683140186717413000,5.0384130859375,1.435145378112793,-4.794059753417969,0.05370679497718811
1683140186735265800,5.056265869140625,1.4174623489379883,-4.84287166595459,0.2642495036125183
1683140186753104100,5.074104248046875,1.4608221054077148,-4.840963363647461,0.109225794672966
1683140186770940700,5.091940673828125,1.4851770401000977,-4.829744815826416,0.1459985077381134
1683140186788782300,5.1097822265625,1.4392852783203125,-4.8332319259643555,0.12158417701721191
1683140186806624300,5.127624267578125,1.4805231094360352,-4.835008144378662,0.11761921644210815
1683140186824460800,5.145460693359375,1.4637641906738281,-4.796966075897217,0.10605907440185547
1683140186842300000,5.1632998046875,1.4560537338256836,-4.8170485496521,0.11210480332374573
1683140186860126700,5.181126708984375,1.4351005554199219,-4.774360656738281,0.1857176423072815
1683140186877978600,5.198978515625,1.4198884963989258,-4.811868667602539,0.14098435640335083
1683140186895817700,5.216817626953125,1.417668342590332,-4.770864963531494,0.07988333702087402
1683140186913656600,5.234656494140625,1.454568862915039,-4.805377960205078,0.18244406580924988
1683140186931495400,5.252495361328125,1.3632316589355469,-4.752096176147461,0.062371209263801575
1683140186949334800,5.270334716796875,1.4213037490844727,-4.757090091705322,0.1120099127292633
1683140186967162000,5.288162109375,1.4417400360107422,-4.738237380981445,0.21290981769561768
1683140186985013200,5.30601318359375,1.3838624954223633,-4.737300395965576,0.057132452726364136
1683140187002852000,5.32385205078125,1.4006576538085938,-4.710381984710693,0.2014862298965454
1683140187020692200,5.341692138671875,1.4230690002441406,-4.777841567993164,0.10919052362442017
1683140187038530800,5.35953076171875,1.4284143447875977,-4.714904308319092,0.09094871580600739
1683140187056370000,5.377369873046875,1.3905973434448242,-4.742594242095947,0.11468879878520966
1683140187074209000,5.395208984375,1.3718814849853516,-4.688350200653076,0.12082851678133011
1683140187092036900,5.413036865234375,1.4262371063232422,-4.707999229431152,0.1203610971570015
1683140187109887200,5.43088720703125,1.3961153030395508,-4.675269603729248,0.07945287972688675
1683140187127728000,5.44872802734375,1.3513879776000977,-4.687323093414307,0.1952357292175293
1683140187145564400,5.466564453125,1.3472881317138672,-4.667595863342285,0.144597589969635
1683140187163405300,5.4844052734375,1.3568220138549805,-4.691370964050293,0.053842753171920776
1683140187181244400,5.502244384765625,1.3700265884399414,-4.671328067779541,0.22236007452011108
1683140187199082500,5.52008251953125,1.3084259033203125,-4.641360759735107,0.042244210839271545
1683140187216923100,5.537923095703125,1.3158578872680664,-4.6291351318359375,0.16939868032932281
1683140187234762000,5.555761962890625,1.368239402770996,-4.630964279174805,0.2075219601392746
1683140187252601000,5.57360107421875,1.2963066101074219,-4.609222888946533,0.10295850038528442
1683140187270440400,5.5914404296875,1.2959222793579102,-4.648705959320068,0.18784469366073608
1683140187288279300,5.609279296875,1.3831892013549805,-4.626894474029541,0.13600704073905945
1683140187306118700,5.62711865234375,1.3514881134033203,-4.61065673828125,0.056671515107154846
1683140187323957500,5.64495751953125,1.2804546356201172,-4.610356330871582,0.22255975008010864
1683140187341786600,5.66278662109375,1.3457956314086914,-4.574944496154785,0.08211974799633026
1683140187359636000,5.680635986328125,1.3194122314453125,-4.584006309509277,0.13726301491260529
1683140187377475300,5.698475341796875,1.3013296127319336,-4.586652755737305,0.18530990183353424
1683140187395314700,5.716314697265625,1.2574567794799805,-4.581965923309326,0.10848388820886612
1683140187413153500,5.734153564453125,1.2950572967529297,-4.57524299621582,0.10692135244607925
1683140187430990000,5.751989990234375,1.3174123764038086,-4.5884318351745605,0.19494003057479858
1683140187448835300,5.76983544921875,1.2286357879638672,-4.542269229888916,0.04500448703765869
1683140187466671000,5.787671142578125,1.3091497421264648,-4.573231220245361,0.16341665387153625
1683140187484510700,5.8055107421875,1.3102521896362305,-4.5056538581848145,0.08887813985347748
1683140187502345700,5.823345703125,1.2388172149658203,-4.535159587860107,0.22158150374889374
1683140187520189000,5.84118896484375,1.2637977600097656,-4.531317234039307,0.10587482899427414
1683140187538012700,5.8590126953125,1.3082914352416992,-4.536711692810059,0.10420235991477966
1683140187555870700,5.87687060546875,1.2502670288085938,-4.520103454589844,0.14867039024829865
1683140187573706500,5.89470654296875,1.3149662017822266,-4.518390655517578,0.04386244714260101
1683140187591545600,5.912545654296875,1.2409906387329102,-4.4748969078063965,0.175694078207016
1683140187609384700,5.930384765625,1.2592706680297852,-4.496939182281494,0.10716591030359268
1683140187627224000,5.94822412109375,1.249856948852539,-4.453802585601807,0.14007659256458282
1683140187645063000,5.96606298828125,1.2611522674560547,-4.511000156402588,0.19157591462135315
1683140187662902800,5.98390283203125,1.277634620666504,-4.458011627197266,0.05409631133079529
1683140187680741600,6.00174169921875,1.2561864852905273,-4.471301078796387,0.1444825530052185
1683140187698580700,6.019580810546875,1.2564411163330078,-4.45482063293457,0.12955839931964874
1683140187716419800,6.037419921875,1.2840232849121094,-4.426764011383057,0.033419057726860046
1683140187734259700,6.055259765625,1.2506380081176758,-4.434972763061523,0.1947098970413208
1683140187752098000,6.07309814453125,1.1899261474609375,-4.444797515869141,0.0858633816242218
1683140187769937700,6.090937744140625,1.2531003952026367,-4.393080711364746,0.1362343281507492
1683140187787774200,6.108774169921875,1.201512336730957,-4.459131240844727,0.17674365639686584
1683140187805619000,6.126618896484375,1.1933679580688477,-4.407799243927002,0.06804685294628143
1683140187823455200,6.144455322265625,1.2138853073120117,-4.389147758483887,0.124057337641716
1683140187841282600,6.162282470703125,1.2280540466308594,-4.389967441558838,0.14240482449531555
1683140187859133200,6.18013330078125,1.185856819152832,-4.3465986251831055,0.11152753233909607
1683140187876973000,6.19797314453125,1.1743345260620117,-4.3666887283325195,0.16782954335212708
1683140187894812400,6.2158125,1.162785530090332,-4.376572132110596,0.1391163468360901
1683140187912650800,6.233650634765625,1.2489957809448242,-4.352086067199707,0.164729043841362
1683140187930489900,6.25148974609375,1.1939687728881836,-4.38270378112793,0.06364680826663971
1683140187948330200,6.269330322265625,1.1535186767578125,-4.352850437164307,0.15698502957820892
1683140187966168800,6.2871689453125,1.2216434478759766,-4.3373308181762695,0.09811262786388397
1683140187984001500,6.30500146484375,1.1509990692138672,-4.317098617553711,0.1085212454199791
1683140188001843200,6.32284326171875,1.159555435180664,-4.328368186950684,0.18787233531475067
1683140188019686700,6.340686767578125,1.1249170303344727,-4.308975696563721,0.10830390453338623
1683140188037524200,6.358524169921875,1.1405611038208008,-4.323212623596191,0.08743539452552795
1683140188055361800,6.37636181640625,1.1549930572509766,-4.317522048950195,0.21371230483055115
1683140188073203500,6.394203369140625,1.1055889129638672,-4.304049015045166,0.010877415537834167
1683140188091043300,6.412043212890625,1.138214111328125,-4.307162284851074,0.14315222203731537
1683140188108882200,6.429882080078125,1.162017822265625,-4.253974437713623,0.1413847804069519
1683140188126710000,6.4477099609375,1.0728092193603516,-4.272729396820068,0.1303272247314453
1683140188144560600,6.465560546875,1.1194782257080078,-4.260248184204102,0.1222238838672638
1683140188162400500,6.483400390625,1.1520538330078125,-4.274451732635498,0.16731388866901398
1683140188180239600,6.501239501953125,1.0710420608520508,-4.266847133636475,0.08112385869026184
1683140188198063000,6.51906298828125,1.150390625,-4.262180328369141,0.05351933836936951
1683140188215909600,6.53690966796875,1.0951204299926758,-4.217913627624512,0.18124179542064667
1683140188233757200,6.554757080078125,1.0907936096191406,-4.253702640533447,0.05467061698436737
1683140188251595800,6.572595703125,1.0907182693481445,-4.182375431060791,0.13570110499858856
1683140188269435600,6.590435546875,1.1224908828735352,-4.239299297332764,0.21142254769802094
1683140188287274500,6.6082744140625,1.0843801498413086,-4.201623439788818,0.035175710916519165
1683140188305114000,6.626114013671875,1.1195287704467773,-4.225460052490234,0.1486562192440033
1683140188322949600,6.64394970703125,1.0772151947021484,-4.186936378479004,0.11763039231300354
1683140188340795000,6.661794921875,1.1633634567260742,-4.2054548263549805,0.053093358874320984
1683140188358631000,6.679630859375,1.1018352508544922,-4.150272846221924,0.10558009147644043
1683140188376466700,6.697466796875,1.0667142868041992,-4.174807548522949,0.13422322273254395
1683140188394313700,6.715313720703125,1.106527328491211,-4.147648334503174,0.12382571399211884
1683140188412149000,6.73314892578125,1.0661258697509766,-4.168706893920898,0.05982816219329834
1683140188429987800,6.75098779296875,1.0787792205810547,-4.148413181304932,0.2169095128774643
1683140188447825000,6.768824951171875,1.0442218780517578,-4.161947727203369,-0.011232703924179077
1683140188465669600,6.786669677734375,1.0645713806152344,-4.110065937042236,0.11850994825363159
1683140188483505700,6.804505615234375,1.0695266723632812,-4.113955974578857,0.16250784695148468
1683140188501344500,6.822344482421875,1.0413923263549805,-4.093033313751221,0.06942827999591827
1683140188519184400,6.840184326171875,1.0254783630371094,-4.110813617706299,0.15865018963813782
1683140188537023700,6.858023681640625,1.1147871017456055,-4.090885639190674,0.15548384189605713
1683140188554862600,6.875862548828125,1.0454626083374023,-4.118476390838623,0.02563972771167755
1683140188572699000,6.893698974609375,1.0064077377319336,-4.077735424041748,0.21327587962150574
1683140188590544100,6.911544189453125,1.0792036056518555,-4.09016227722168,0.06488680839538574
1683140188608380400,6.92938037109375,1.042811393737793,-4.061334609985352,0.07937346398830414
1683140188626219500,6.947219482421875,1.0057592391967773,-4.056301593780518,0.20164737105369568
1683140188644058400,6.965058349609375,0.9919824600219727,-4.0485944747924805,0.07568535208702087
1683140188661894400,6.982894287109375,1.0159473419189453,-4.052651882171631,0.1393376886844635
1683140188679737600,7.000737548828125,0.9967813491821289,-4.041348457336426,0.17593707144260406
1683140188697576400,7.018576416015625,0.9804868698120117,-4.05620813369751,0.03792382776737213
1683140188715422000,7.036421875,0.9864969253540039,-4.039925575256348,0.121620774269104
1683140188733252000,7.054252197265625,1.000981330871582,-3.9747915267944336,0.125407874584198
1683140188751092200,7.07209228515625,0.9609355926513672,-4.022812366485596,0.17691028118133545
1683140188768933000,7.08993310546875,0.9977760314941406,-3.9746079444885254,0.06066752225160599
1683140188786772200,7.107772216796875,0.9769258499145508,-3.9826200008392334,0.19626572728157043
1683140188804612400,7.1256123046875,1.0033950805664062,-4.0112199783325195,0.11167779564857483
1683140188822440400,7.1434404296875,1.0271587371826172,-3.9933390617370605,0.0533348023891449
1683140188840289500,7.16128955078125,0.9606342315673828,-3.968442678451538,0.16729088127613068
1683140188858129400,7.17912939453125,1.0208415985107422,-4.009217739105225,0.06276625394821167
1683140188875957000,7.19695703125,0.9853239059448242,-3.9102094173431396,0.06840147078037262
1683140188893805300,7.214805419921875,0.974574089050293,-3.9734835624694824,0.21883472800254822
1683140188911649800,7.23264990234375,0.9465465545654297,-3.9509470462799072,0.037908464670181274
1683140188929485800,7.25048583984375,0.9775457382202148,-3.957338333129883,0.10628071427345276
1683140188947325200,7.2683251953125,0.9269418716430664,-3.9426395893096924,0.190085768699646
1683140188965162500,7.28616259765625,0.96783447265625,-3.9547603130340576,-0.03745056688785553
1683140188983007200,7.30400732421875,0.9297914505004883,-3.8902528285980225,0.13791848719120026
1683140189000829700,7.32182958984375,0.9664773941040039,-3.9196958541870117,0.1704074889421463
1683140189018683000,7.339682861328125,0.9306306838989258,-3.8637521266937256,0.03137314319610596
1683140189036521700,7.357521728515625,0.9110193252563477,-3.908133029937744,0.17217448353767395
1683140189054360800,7.37536083984375,1.0063257217407227,-3.8984780311584473,0.1426515430212021
1683140189072200000,7.393199951171875,0.9839239120483398,-3.8890740871429443,-0.018178313970565796
1683140189090036700,7.41103662109375,0.9170446395874023,-3.868795394897461,0.2062338888645172
1683140189107881700,7.4288818359375,0.962956428527832,-3.8597264289855957,0.03481249511241913
1683140189125705700,7.446705810546875,0.9994792938232422,-3.838365077972412,0.08216257393360138
1683140189143553000,7.464552978515625,0.9248037338256836,-3.842810869216919,0.12346891313791275
1683140189161396700,7.482396728515625,0.9180088043212891,-3.8175904750823975,0.14839109778404236
1683140189179235600,7.500235595703125,0.8754701614379883,-3.8700029850006104,0.08406304568052292
1683140189197074700,7.51807470703125,0.9136056900024414,-3.81062650680542,0.07653734087944031
1683140189214913800,7.535913818359375,0.8836231231689453,-3.8345022201538086,0.15957270562648773
1683140189232753400,7.55375341796875,0.8623800277709961,-3.8004865646362305,0.03896542638540268
1683140189250592500,7.571592529296875,0.8788242340087891,-3.7682406902313232,0.12791749835014343
1683140189268431600,7.589431640625,0.8679485321044922,-3.7860822677612305,0.19867601990699768
1683140189286270700,7.607270751953125,0.8557300567626953,-3.780942678451538,0.057663366198539734
1683140189304110800,7.62511083984375,0.848358154296875,-3.7634568214416504,0.18923452496528625
1683140189321944800,7.64294482421875,0.8989887237548828,-3.814624071121216,0.10812193900346756
1683140189339788500,7.66078857421875,0.9004449844360352,-3.760749340057373,0.029317304491996765
1683140189357627400,7.67862744140625,0.8531980514526367,-3.7427639961242676,0.17942871153354645
1683140189375455500,7.69645556640625,0.8786582946777344,-3.7709593772888184,0.057693108916282654
1683140189393303000,7.714302978515625,0.9116525650024414,-3.6934423446655273,0.08276569098234177
1683140189411145700,7.732145751953125,0.8304347991943359,-3.7318906784057617,0.23933659493923187
1683140189428984600,7.749984619140625,0.8396568298339844,-3.738678455352783,0.01640227437019348
1683140189446824400,7.767824462890625,0.8891363143920898,-3.706599712371826,0.15458345413208008
1683140189464661200,7.7856611328125,0.8595952987670898,-3.7442705631256104,0.0705685093998909
1683140189482505000,7.8035048828125,0.8410739898681641,-3.711483955383301,0.08477941900491714
1683140189500341500,7.821341552734375,0.8319416046142578,-3.6695728302001953,0.09835801273584366
1683140189518181600,7.839181640625,0.8333120346069336,-3.695801019668579,0.15970268845558167
1683140189536020500,7.8570205078125,0.8221893310546875,-3.6674983501434326,0.07659590244293213
1683140189553847800,7.874847900390625,0.8022842407226562,-3.6744678020477295,0.17573320865631104
1683140189571698400,7.892698486328125,0.8631467819213867,-3.682558298110962,0.11010721325874329
1683140189589538000,7.9105380859375,0.9025278091430664,-3.684046983718872,0.011966362595558167
1683140189607376400,7.92837646484375,0.7831277847290039,-3.638327121734619,0.17926013469696045
1683140189625218600,7.946218505859375,0.8899364471435547,-3.6746435165405273,0.035818979144096375
1683140189643054300,7.964054443359375,0.8691587448120117,-3.592576503753662,0.05895613133907318
1683140189660890400,7.981890380859375,0.8104743957519531,-3.65216326713562,0.1888226866722107
1683140189678734300,7.999734375,0.8267688751220703,-3.6245856285095215,0.051293984055519104
1683140189696573400,8.017573486328125,0.8437585830688477,-3.638653039932251,0.06015108525753021
1683140189714412800,8.035412841796875,0.7949714660644531,-3.616366147994995,0.199140727519989
1683140189732252200,8.053252197265625,0.7839288711547852,-3.6070759296417236,-0.05269220471382141
1683140189750091000,8.071091064453125,0.804656982421875,-3.576115608215332,0.14327557384967804
1683140189767933200,8.08893310546875,0.8231105804443359,-3.5956478118896484,0.15321896970272064
1683140189785767000,8.106766845703126,0.8024492263793945,-3.549196720123291,0.021727323532104492
1683140189803609000,8.124609130859374,0.7349424362182617,-3.586548328399658,0.17352592945098877
1683140189821448400,8.142448486328124,0.8343448638916016,-3.5672664642333984,0.1311521977186203
1683140189839287600,8.16028759765625,0.7861967086791992,-3.5563981533050537,0.03210879862308502
1683140189857126700,8.178126708984376,0.7849645614624023,-3.566803455352783,0.1767212450504303
1683140189874966000,8.195966064453126,0.8247451782226562,-3.5181236267089844,-0.0060517191886901855
1683140189892805600,8.2138056640625,0.7749223709106445,-3.5233495235443115,0.19492894411087036
1683140189910644500,8.23164453125,0.7237310409545898,-3.519622802734375,0.09994396567344666
1683140189928483600,8.249483642578125,0.768096923828125,-3.4898252487182617,0.11788944154977798
1683140189946323200,8.2673232421875,0.7689275741577148,-3.5780251026153564,0.09200246632099152
1683140189964162000,8.285162109375,0.7382631301879883,-3.4867656230926514,0.09792213886976242
1683140189982001700,8.303001708984375,0.7432432174682617,-3.505007266998291,0.10881756246089935
1683140189999840000,8.320840087890625,0.7141962051391602,-3.484057903289795,0.07574135065078735
1683140190017662000,8.338661865234375,0.780487060546875,-3.456639289855957,0.15516051650047302
1683140190035520500,8.3565205078125,0.7160549163818359,-3.466157913208008,0.09506190568208694
1683140190053354200,8.374354248046876,0.7082452774047852,-3.4626214504241943,0.12099326401948929
1683140190071202300,8.392202392578126,0.759272575378418,-3.4665932655334473,0.16894058883190155
1683140190089037300,8.410037353515625,0.7599048614501953,-3.4684393405914307,0.013138040900230408
1683140190106876000,8.4278759765625,0.7225570678710938,-3.4563231468200684,0.17201875150203705
1683140190124715500,8.445715576171875,0.7564792633056641,-3.424729824066162,0.05134052038192749
1683140190142542600,8.46354248046875,0.7495899200439453,-3.4354052543640137,0.08823983371257782
1683140190160394200,8.481394287109374,0.7161998748779297,-3.4074244499206543,0.14530688524246216
1683140190178230300,8.499230224609375,0.6824169158935547,-3.434415817260742,0.10477159917354584
1683140190196075500,8.517075439453125,0.7379035949707031,-3.4121546745300293,0.036996662616729736
1683140190213911800,8.534911865234376,0.7585048675537109,-3.4325356483459473,0.17959293723106384
1683140190231747800,8.552747802734375,0.6418333053588867,-3.396505117416382,0.00792764127254486
1683140190249590300,8.57059033203125,0.737274169921875,-3.395057201385498,0.08372565358877182
1683140190267428600,8.5884287109375,0.7400045394897461,-3.3595051765441895,0.15956975519657135
1683140190285268700,8.606268798828125,0.686039924621582,-3.3860418796539307,0.02082936465740204
1683140190303107600,8.624107666015625,0.6971406936645508,-3.349531888961792,0.1487581878900528
1683140190320947500,8.641947509765625,0.7498102188110352,-3.392280101776123,0.10417463630437851
1683140190338786800,8.659786865234375,0.6759910583496094,-3.3521549701690674,0.0714493915438652
1683140190356614000,8.67761376953125,0.7092275619506836,-3.3816733360290527,0.05845168977975845
1683140190374462700,8.695462646484375,0.6945428848266602,-3.3122010231018066,0.07879351079463959
1683140190392307200,8.71330712890625,0.7340822219848633,-3.3465166091918945,0.11352798342704773
1683140190410138600,8.731138671875,0.6919593811035156,-3.286010980606079,0.06268665194511414
1683140190427982600,8.748982666015625,0.6595706939697266,-3.3233489990234375,0.16391415894031525
1683140190445822500,8.766822509765625,0.7196846008300781,-3.3098294734954834,0.09590121358633041
1683140190463661000,8.7846611328125,0.6684513092041016,-3.326158285140991,0.07461575418710709
1683140190481500700,8.802500732421874,0.6651735305786133,-3.305896759033203,0.12096132338047028
1683140190499339500,8.820339599609374,0.676295280456543,-3.2761642932891846,0.03282519429922104
1683140190517176600,8.838176513671876,0.7068414688110352,-3.298781394958496,0.13181227445602417
1683140190535021300,8.856021240234375,0.668574333190918,-3.261617422103882,0.014129310846328735
1683140190552857300,8.873857421875,0.6998519897460938,-3.2674736976623535,0.18826234340667725
1683140190570697000,8.891697021484376,0.6374273300170898,-3.307255268096924,0.03628742694854736
1683140190588536000,8.9095361328125,0.6524810791015625,-3.236518144607544,0.12930072844028473
1683140190606380300,8.92738037109375,0.6736001968383789,-3.284400463104248,0.09574105590581894
1683140190624214500,8.945214599609375,0.6276073455810547,-3.236476182937622,0.04655197262763977
1683140190642053600,8.9630537109375,0.6962547302246094,-3.2350876331329346,0.10902007669210434
1683140190659881500,8.980881591796875,0.6606016159057617,-3.207794666290283,0.05702623724937439
1683140190677720800,8.998720947265625,0.6282720565795898,-3.220674991607666,0.16967889666557312
1683140190695572000,9.016572021484375,0.6006841659545898,-3.2097339630126953,0.10524873435497284
1683140190713411000,9.0344111328125,0.6471672058105469,-3.225748062133789,0.017304465174674988
1683140190731250700,9.052250732421875,0.6398677825927734,-3.209807872772217,0.195389524102211
1683140190749089800,9.07008984375,0.6135435104370117,-3.186156749725342,-0.008192166686058044
1683140190766928600,9.0879287109375,0.5973520278930664,-3.193222999572754,0.11715361475944519
1683140190784768500,9.1057685546875,0.655919075012207,-3.1534247398376465,0.12391400337219238
1683140190802607600,9.123607666015625,0.5988683700561523,-3.1729087829589844,0.0823298841714859
1683140190820446700,9.14144677734375,0.6209726333618164,-3.18344783782959,0.10784049332141876
1683140190838285600,9.15928564453125,0.6588001251220703,-3.175159215927124,0.05083591490983963
1683140190856113200,9.177113037109375,0.5862283706665039,-3.1547818183898926,0.14331939816474915
1683140190873965300,9.19496533203125,0.6177215576171875,-3.18208909034729,0.029996447265148163
1683140190891799000,9.212799072265625,0.5953130722045898,-3.095785617828369,0.06603237986564636
1683140190909642800,9.230642822265626,0.6510171890258789,-3.1668941974639893,0.17305675148963928
1683140190927470000,9.248469970703125,0.6042356491088867,-3.087913751602173,-0.005256563425064087
1683140190945321500,9.266321533203126,0.5977458953857422,-3.127863645553589,0.18814554810523987
1683140190963160600,9.28416064453125,0.5849065780639648,-3.117424249649048,0.09740535914897919
1683140190981000000,9.302,0.6428956985473633,-3.12994384765625,0.033200234174728394
1683140190998838800,9.3198388671875,0.5946903228759766,-3.0975182056427,0.10809435695409775
1683140191016678700,9.3376787109375,0.6274232864379883,-3.1063232421875,0.03263852000236511
1683140191034516500,9.3555166015625,0.6198873519897461,-3.072705030441284,0.0693967342376709
1683140191052353500,9.373353515625,0.6072788238525391,-3.077244281768799,0.08422358334064484
1683140191070196000,9.391196044921875,0.6205387115478516,-3.0636284351348877,0.16093382239341736
1683140191088035800,9.409035888671875,0.5675544738769531,-3.1023306846618652,0.021381288766860962
1683140191105871600,9.42687158203125,0.6300439834594727,-3.0613534450531006,0.048401884734630585
1683140191123705000,9.444705078125,0.6127538681030273,-3.0737900733947754,0.10978756844997406
1683140191141541400,9.462541259765626,0.542119026184082,-3.0238494873046875,0.0324215367436409
1683140191159393000,9.48039306640625,0.5641975402832031,-3.0176029205322266,0.09263690561056137
1683140191177220400,9.498220458984376,0.6411809921264648,-3.0367584228515625,0.14566291868686676
1683140191195071200,9.5160712890625,0.5492744445800781,-3.0313122272491455,0.02202647179365158
1683140191212910000,9.53391015625,0.5434770584106445,-2.99592661857605,0.19008174538612366
1683140191230750000,9.55175,0.6021213531494141,-3.0505096912384033,0.05989778786897659
1683140191248589000,9.569589111328124,0.5983066558837891,-2.9906840324401855,0.026872217655181885
1683140191266428400,9.587428466796876,0.5363168716430664,-2.9850473403930664,0.1558990776538849
1683140191284267000,9.60526708984375,0.5867700576782227,-2.9955575466156006,0.0283396914601326
1683140191302102300,9.623102294921875,0.598179817199707,-2.9538838863372803,0.08127264678478241
1683140191319946200,9.6409462890625,0.5220909118652344,-2.9714322090148926,0.1889169067144394
1683140191337784800,9.658784912109375,0.5550823211669922,-2.991903781890869,0.06085706502199173
1683140191355624700,9.676624755859375,0.6005306243896484,-2.945530652999878,0.06531864404678345
1683140191373461500,9.69446142578125,0.5510969161987305,-2.967655658721924,0.14814156293869019
1683140191391305500,9.712305419921876,0.5497331619262695,-2.9659039974212646,0.044190846383571625
1683140191409139200,9.73013916015625,0.5837678909301758,-2.8977737426757812,0.07412726432085037
1683140191426984200,9.747984130859376,0.5250005722045898,-2.938324213027954,0.18536019325256348
1683140191444821000,9.765821044921875,0.5108356475830078,-2.9123358726501465,0.014525547623634338
1683140191462659800,9.783659912109375,0.5203323364257812,-2.9081218242645264,0.19413867592811584
1683140191480499200,9.801499267578125,0.5382966995239258,-2.94146728515625,-0.0010126680135726929
1683140191498338600,9.819338623046875,0.5159387588500977,-2.9172863960266113,0.10870163887739182
1683140191516178200,9.83717822265625,0.4774503707885742,-2.9142611026763916,0.061248719692230225
1683140191534017300,9.855017333984375,0.5142393112182617,-2.904067039489746,0.07196713984012604
1683140191551852800,9.872852783203125,0.5506696701049805,-2.879962921142578,0.10461439937353134
1683140191569696000,9.890696044921874,0.48960113525390625,-2.8712103366851807,0.10213540494441986
1683140191587524900,9.90852490234375,0.5144271850585938,-2.8898673057556152,0.14007706940174103
1683140191605362200,9.926362060546875,0.5602130889892578,-2.8963193893432617,0.006472304463386536
1683140191623213600,9.944213623046876,0.47917842864990234,-2.86421799659729,0.10549891740083694
1683140191641048300,9.96204833984375,0.5603694915771484,-2.892559051513672,0.016947180032730103
1683140191658892300,9.979892333984376,0.4846029281616211,-2.805521249771118,0.06702534109354019
1683140191676726300,9.997726318359375,0.539301872253418,-2.8711512088775635,0.11384551227092743
1683140191694559000,10.01555908203125,0.5260381698608398,-2.7971811294555664,0.01813073456287384
1683140191712409600,10.03340966796875,0.4957904815673828,-2.861114501953125,0.1531187891960144
1683140191730249500,10.05124951171875,0.5045604705810547,-2.8330676555633545,0.07674317806959152
1683140191748083700,10.069083740234374,0.5233907699584961,-2.8404312133789062,0.0010256767272949219
1683140191765927700,10.086927734375,0.5001420974731445,-2.8077585697174072,0.09286515414714813
1683140191783766800,10.104766845703125,0.5131044387817383,-2.799499750137329,0.08736979961395264
1683140191801603300,10.122603271484374,0.4978818893432617,-2.7811195850372314,0.030226178467273712
1683140191819448000,10.140447998046875,0.4408864974975586,-2.7838544845581055,0.12585631012916565
1683140191837282000,10.158281982421874,0.5389127731323242,-2.7806665897369385,0.1430932879447937
1683140191855126500,10.17612646484375,0.4653606414794922,-2.7935876846313477,-0.007390126585960388
1683140191872960300,10.193960205078126,0.4745349884033203,-2.773193120956421,0.1673787236213684
1683140191890805200,10.21180517578125,0.5241565704345703,-2.786228656768799,0.022849522531032562
1683140191908641500,10.2296416015625,0.5119524002075195,-2.746356248855591,0.0491582453250885
1683140191926481000,10.24748095703125,0.4642782211303711,-2.7318201065063477,0.1561659276485443
1683140191944320500,10.265320556640624,0.4765453338623047,-2.739039421081543,0.028182074427604675
1683140191962159600,10.28315966796875,0.4825172424316406,-2.734532356262207,0.09523528814315796
1683140191979998700,10.300998779296876,0.48978710174560547,-2.7323386669158936,0.16058741509914398
1683140191997838000,10.318838134765626,0.43750667572021484,-2.7549993991851807,-0.0015941411256790161
1683140192015678000,10.336677978515626,0.4537935256958008,-2.7196457386016846,0.09353010356426239
1683140192033516300,10.354516357421875,0.4838714599609375,-2.681457996368408,0.10193285346031189
1683140192051356000,10.37235595703125,0.43976306915283203,-2.713284492492676,0.10196530818939209
1683140192069195000,10.390195068359375,0.4705629348754883,-2.678107738494873,0.05344103276729584
1683140192087035000,10.408034912109375,0.43805408477783203,-2.6814210414886475,0.152601957321167
1683140192104864800,10.42586474609375,0.4690828323364258,-2.7171010971069336,0.07323823869228363
1683140192122713000,10.443713134765625,0.48404502868652344,-2.6720504760742188,0.03876502066850662
1683140192140551400,10.461551513671875,0.43459320068359375,-2.680267333984375,0.12740497291088104
1683140192158392000,10.47939208984375,0.4973316192626953,-2.690821409225464,0.049544647336006165
1683140192176230400,10.49723046875,0.47231388092041016,-2.6124930381774902,0.0292091965675354
1683140192194070000,10.515070068359375,0.41471385955810547,-2.677480697631836,0.19387099146842957
1683140192211905300,10.5329052734375,0.43610477447509766,-2.638437271118164,-0.0012216717004776
1683140192229746000,10.550745849609376,0.45523643493652344,-2.6443071365356445,0.09636752307415009
1683140192247590700,10.568590576171875,0.42778968811035156,-2.664360523223877,0.13762930035591125
1683140192265426700,10.5864267578125,0.44728660583496094,-2.6656007766723633,-0.042431995272636414
1683140192283266300,10.604266357421874,0.41173267364501953,-2.6086440086364746,0.10384969413280487
1683140192301106000,10.62210595703125,0.4896717071533203,-2.6345601081848145,0.12807807326316833
1683140192318944800,10.63994482421875,0.42917919158935547,-2.568063735961914,-0.011551707983016968
1683140192336781000,10.657781005859375,0.39669036865234375,-2.6082167625427246,0.16770680248737335
1683140192354626000,10.6756259765625,0.47442054748535156,-2.617600917816162,0.10531525313854218
1683140192372461000,10.6934609375,0.4620246887207031,-2.609260082244873,-0.026601552963256836
1683140192390304000,10.711303955078124,0.39386940002441406,-2.591874361038208,0.17375263571739197
1683140192408141000,10.72914111328125,0.4873991012573242,-2.59226131439209,-0.027591153979301453
1683140192425980000,10.74697998046875,0.4763050079345703,-2.54996395111084,0.03821447491645813
1683140192443819800,10.76481982421875,0.4034881591796875,-2.583385944366455,0.1460375189781189
1683140192461659000,10.782658935546875,0.4436502456665039,-2.5559847354888916,0.028116434812545776
1683140192479498200,10.800498291015625,0.4177370071411133,-2.567671060562134,0.09046628326177597
1683140192497336600,10.818336669921875,0.4328775405883789,-2.5580430030822754,0.15826933085918427
1683140192515177700,10.836177734375,0.4167356491088867,-2.564056396484375,-0.016337662935256958
1683140192533016300,10.854016357421875,0.4467039108276367,-2.5345451831817627,0.09439580142498016
1683140192550855200,10.871855224609375,0.4437446594238281,-2.5200507640838623,0.08189475536346436
1683140192568694500,10.889694580078125,0.42443180084228516,-2.534191370010376,0.03596474975347519
1683140192586534100,10.9075341796875,0.4115266799926758,-2.512157917022705,0.0892823189496994
1683140192604369200,10.925369140625,0.4356851577758789,-2.50822114944458,0.1443748027086258
1683140192622212000,10.943212158203124,0.37715721130371094,-2.5497078895568848,0.0027143657207489014
1683140192640045800,10.9610458984375,0.3987264633178711,-2.484574794769287,0.10092230886220932
1683140192657876500,10.97887646484375,0.45462703704833984,-2.5033106803894043,0.0840824693441391
1683140192675730200,10.996730224609376,0.36071109771728516,-2.4878361225128174,0.03802020102739334
1683140192693566700,11.014566650390625,0.3898048400878906,-2.4614250659942627,0.09604740887880325
1683140192711399700,11.032399658203126,0.36217498779296875,-2.4727160930633545,0.12099124491214752
1683140192729248000,11.050248046875,0.4035987854003906,-2.4844584465026855,0.10816807299852371
1683140192747087600,11.068087646484376,0.3867607116699219,-2.447993278503418,0.045568011701107025
1683140192764926500,11.085926513671875,0.36908721923828125,-2.477245807647705,0.10850410163402557
1683140192782765300,11.103765380859375,0.43712425231933594,-2.4783027172088623,0.05173859745264053
1683140192800602600,11.1216025390625,0.41043663024902344,-2.401305675506592,0.00838170200586319
1683140192818444800,11.13944482421875,0.3446540832519531,-2.4738521575927734,0.1876145750284195
1683140192836282000,11.1572822265625,0.3782234191894531,-2.4252898693084717,-0.0025945305824279785
1683140192854126000,11.1751259765625,0.37176036834716797,-2.4223074913024902,0.12484890967607498
1683140192871959300,11.192959228515624,0.373992919921875,-2.449526309967041,0.12520058453083038
1683140192889804500,11.210804443359375,0.3913726806640625,-2.4498913288116455,-0.05366778373718262
1683140192907640600,11.228640625,0.3379354476928711,-2.396291971206665,0.13277126848697662
1683140192925479200,11.246479248046874,0.41399097442626953,-2.4389326572418213,0.03678232431411743
1683140192943319000,11.264319091796875,0.35654449462890625,-2.3565287590026855,0.019173361361026764
1683140192961158100,11.282158203125,0.39652061462402344,-2.440162181854248,0.13788478076457977
1683140192978997800,11.299997802734374,0.3759450912475586,-2.3674800395965576,0.0025488361716270447
1683140192996836400,11.31783642578125,0.4118843078613281,-2.412980079650879,0.14244681596755981
1683140193014676700,11.3356767578125,0.3819704055786133,-2.399333953857422,-0.013886608183383942
1683140193032515600,11.353515625,0.3993062973022461,-2.388456106185913,0.047605961561203
1683140193050355000,11.37135498046875,0.36473941802978516,-2.3611624240875244,0.06554071605205536
1683140193068193500,11.389193603515626,0.35223960876464844,-2.3554468154907227,0.021417267620563507
1683140193086033400,11.407033447265626,0.41335487365722656,-2.356154680252075,0.11617527157068253
1683140193103861200,11.424861328125,0.33841896057128906,-2.3536376953125,0.02764149010181427
1683140193121711600,11.442711669921875,0.4085884094238281,-2.3484795093536377,0.13467037677764893
1683140193139550700,11.46055078125,0.3619089126586914,-2.3710038661956787,-0.02259410172700882
1683140193157389800,11.478389892578125,0.37296199798583984,-2.3241262435913086,0.11503466963768005
1683140193175230700,11.496230712890625,0.4014415740966797,-2.331908941268921,0.010481059551239014
1683140193193059600,11.5140595703125,0.37421512603759766,-2.292642116546631,0.022211216390132904
1683140193210909700,11.53190966796875,0.3333721160888672,-2.3176560401916504,0.16186708211898804
1683140193228747800,11.549747802734375,0.36285400390625,-2.306262254714966,0.03490271419286728
1683140193246587000,11.5675869140625,0.3568754196166992,-2.3353374004364014,0.043047524988651276
1683140193264426000,11.585426025390625,0.35724830627441406,-2.295520305633545,0.15523600578308105
1683140193282264800,11.603264892578125,0.31143856048583984,-2.299635171890259,-0.01115872710943222
1683140193300101600,11.6211015625,0.3243560791015625,-2.2946279048919678,0.08822400867938995
1683140193317946000,11.638946044921875,0.3672771453857422,-2.2606911659240723,0.07818987965583801
1683140193335779800,11.65677978515625,0.3119497299194336,-2.2733945846557617,0.11905977129936218
1683140193353625000,11.674625,0.32213878631591797,-2.277156114578247,0.045929014682769775
1683140193371458600,11.69245849609375,0.32028770446777344,-2.2468175888061523,0.13182179629802704
1683140193389303300,11.71030322265625,0.36939430236816406,-2.300971269607544,0.08261319994926453
1683140193407139800,11.728139892578126,0.33673763275146484,-2.248350143432617,0.01091911643743515
1683140193424979000,11.74597900390625,0.3224821090698242,-2.2283880710601807,0.1274937242269516
1683140193442818600,11.763818603515626,0.3376646041870117,-2.2781383991241455,0.039445772767066956
1683140193460657400,11.781657470703125,0.3516378402709961,-2.1861753463745117,0.018014200031757355
1683140193478483500,11.7994833984375,0.30432987213134766,-2.2515406608581543,0.22021281719207764
1683140193496339200,11.817339111328126,0.28631019592285156,-2.235325336456299,-0.028440706431865692
1683140193514175500,11.835175537109375,0.3537921905517578,-2.2328085899353027,0.05201730877161026
1683140193532014600,11.8530146484375,0.2928638458251953,-2.2460269927978516,0.15455937385559082
1683140193549854000,11.87085400390625,0.30777740478515625,-2.2380104064941406,-0.07159207761287689
1683140193567693300,11.888693359375,0.31148815155029297,-2.1745054721832275,0.08229094743728638
1683140193585530000,11.906530029296874,0.3342323303222656,-2.239645004272461,0.12344841659069061
1683140193603374300,11.924374267578125,0.29569053649902344,-2.172091007232666,-0.008577913045883179
1683140193621211100,11.942211181640625,0.3016643524169922,-2.205463409423828,0.12754929065704346
1683140193639050200,11.96005029296875,0.3198823928833008,-2.2002553939819336,0.09241639077663422
1683140193656890000,11.97789013671875,0.33798789978027344,-2.205319404602051,-0.04020749032497406
1683140193674728700,11.995728759765624,0.284423828125,-2.1581506729125977,0.12301294505596161
1683140193692568300,12.013568359375,0.3782920837402344,-2.1761786937713623,0.006857588887214661
1683140193710407200,12.0314072265625,0.3153953552246094,-2.1282899379730225,0.07090611755847931
1683140193728247000,12.0492470703125,0.26260852813720703,-2.1696178913116455,0.1035659909248352
1683140193746086000,12.0670859375,0.32055187225341797,-2.1338112354278564,0.09284111112356186
1683140193763925200,12.08492529296875,0.32541656494140625,-2.1877291202545166,0.07503793388605118
1683140193781760500,12.102760498046875,0.3301410675048828,-2.1353282928466797,0.0381569042801857
1683140193799604000,12.12060400390625,0.3106822967529297,-2.131575345993042,0.06310735642910004
1683140193817441800,12.13844189453125,0.3221292495727539,-2.127243757247925,0.0595003142952919
1683140193835283200,12.156283203125,0.3027162551879883,-2.097442865371704,0.028945259749889374
1683140193853121000,12.17412109375,0.31111907958984375,-2.1207919120788574,0.15661174058914185
1683140193870961000,12.1919609375,0.26531028747558594,-2.149298667907715,0.017951391637325287
1683140193888797000,12.209796875,0.32181835174560547,-2.089303970336914,0.07538588345050812
1683140193906642000,12.227641845703126,0.30057525634765625,-2.149038314819336,0.11371636390686035
1683140193924478000,12.24547802734375,0.2652702331542969,-2.097700357437134,-0.010827474296092987
1683140193942315000,12.26331494140625,0.3154172897338867,-2.081136465072632,0.08892093598842621
1683140193960159700,12.28115966796875,0.28078269958496094,-2.0990700721740723,0.08999752253293991
1683140193977995000,12.2989951171875,0.2940797805786133,-2.0734031200408936,0.03548738360404968
1683140193995835100,12.316835205078124,0.2657175064086914,-2.0622894763946533,0.11953814327716827
1683140194013672700,12.334672607421876,0.2937955856323242,-2.1021363735198975,0.0828542709350586
1683140194031516200,12.35251611328125,0.25938987731933594,-2.060732364654541,0.07197150588035583
1683140194049353200,12.370353271484374,0.2775449752807617,-2.0650227069854736,0.061416469514369965
1683140194067192300,12.3881923828125,0.2806529998779297,-2.0722851753234863,0.05923423171043396
1683140194085032200,12.4060322265625,0.30031681060791016,-2.029499053955078,0.04777531325817108
1683140194102870800,12.423870849609376,0.2415914535522461,-2.059865951538086,0.10282634198665619
1683140194120710100,12.441710205078126,0.2547340393066406,-2.041243076324463,0.08503704518079758
1683140194138549200,12.45954931640625,0.25263404846191406,-2.0608890056610107,0.07285356521606445
1683140194156388900,12.477388916015625,0.2608814239501953,-2.0353078842163086,-0.004078730940818787
1683140194174228200,12.495228271484375,0.31700897216796875,-2.0624840259552,0.13110782206058502
1683140194192067000,12.513067138671875,0.22130393981933594,-1.9999548196792603,-0.025829844176769257
1683140194209906000,12.530906005859375,0.2533245086669922,-2.028700828552246,0.08570003509521484
1683140194227745800,12.548745849609375,0.29168701171875,-1.9918313026428223,0.1239965409040451
1683140194245585200,12.566585205078125,0.2762565612792969,-2.01829195022583,0.005630239844322205
1683140194263424000,12.584424072265625,0.23727989196777344,-2.013242244720459,0.10523808002471924
1683140194281263400,12.602263427734375,0.32417774200439453,-2.029106855392456,0.027152396738529205
1683140194299103000,12.62010302734375,0.24992942810058594,-1.9810938835144043,0.04746644198894501
1683140194316942000,12.637942138671875,0.2762012481689453,-2.020326614379883,0.027042917907238007
1683140194334781000,12.655781005859374,0.26000022888183594,-1.9505345821380615,0.04551263153553009
1683140194352608500,12.6736083984375,0.2759237289428711,-1.987508773803711,0.09744447469711304
1683140194370460200,12.691460205078124,0.2978830337524414,-1.9619314670562744,0.06533129513263702
1683140194388299000,12.709299072265624,0.24159908294677734,-1.9976747035980225,0.02475283294916153
1683140194406138000,12.72713818359375,0.25725364685058594,-1.9625866413116455,0.14778724312782288
1683140194423977000,12.74497705078125,0.3188180923461914,-1.9934097528457642,-0.008116722106933594
1683140194441813200,12.762813232421875,0.30103302001953125,-1.9363811016082764,0.02251359075307846
1683140194459656000,12.780656005859376,0.24659061431884766,-1.9450926780700684,0.09494955837726593
1683140194477495000,12.7984951171875,0.2971181869506836,-1.9408411979675293,0.013572275638580322
1683140194495334100,12.816334228515625,0.25714874267578125,-1.9352517127990723,0.06288697570562363
1683140194513174000,12.834174072265625,0.2789182662963867,-1.928777813911438,0.1519910842180252
1683140194531009500,12.852009521484375,0.1997842788696289,-1.9634795188903809,-0.015590257942676544
1683140194548855600,12.86985546875,0.2528524398803711,-1.915492057800293,0.11348941922187805
1683140194566691600,12.887691650390625,0.29985809326171875,-1.9289884567260742,0.00795767456293106
1683140194584531000,12.905531005859375,0.18696022033691406,-1.9121750593185425,0.08615909516811371
1683140194602370000,12.9233701171875,0.21821880340576172,-1.893925428390503,0.06543554365634918
1683140194620209700,12.941209716796875,0.213226318359375,-1.8826831579208374,0.08694137632846832
1683140194638047700,12.9590478515625,0.24707984924316406,-1.928480863571167,0.11037619411945343
1683140194655888000,12.976887939453125,0.20969676971435547,-1.8907434940338135,0.03740232437849045
1683140194673711400,12.99471142578125,0.22882461547851562,-1.9056990146636963,0.10193382203578949
1683140194691570000,13.01256982421875,0.2926034927368164,-1.9174898862838745,0.027796782553195953
1683140194709402000,13.030402099609375,0.2645282745361328,-1.8325467109680176,0.0015405640006065369
1683140194727247400,13.048247314453125,0.19634437561035156,-1.9090111255645752,0.17533257603645325
1683140194745083600,13.066083740234374,0.23687171936035156,-1.856542706489563,-0.01287946105003357
1683140194762923300,13.08392333984375,0.24499893188476562,-1.854661226272583,0.10163980722427368
1683140194780761900,13.101761962890626,0.22396278381347656,-1.8999691009521484,0.12539657950401306
1683140194798602200,13.119602294921876,0.24093151092529297,-1.8889477252960205,-0.05032377690076828
1683140194816441000,13.137441162109376,0.19626331329345703,-1.8404228687286377,0.09830379486083984
1683140194834280000,13.155280029296875,0.2934303283691406,-1.8954172134399414,0.06174979358911514
1683140194852107300,13.173107177734375,0.2051687240600586,-1.7983587980270386,0.0011671856045722961
1683140194869959000,13.190958984375,0.23603057861328125,-1.8729727268218994,0.13482820987701416
1683140194887796700,13.208796630859375,0.21965503692626953,-1.8341679573059082,0.05695129930973053
1683140194905627100,13.226627197265625,0.21549510955810547,-1.8561245203018188,0.046765729784965515
1683140194923464400,13.24446435546875,0.21069812774658203,-1.8325408697128296,0.029225178062915802
1683140194941303800,13.2623037109375,0.2518272399902344,-1.8522281646728516,0.05210418999195099
1683140194959155000,13.280155029296875,0.1869678497314453,-1.8029876947402954,0.007952012121677399
1683140194976982800,13.297982666015624,0.2033214569091797,-1.8090547323226929,0.04950396344065666
1683140194994833200,13.315833251953125,0.26541996002197266,-1.799755573272705,0.1347295641899109
1683140195012672800,13.3336728515625,0.18082904815673828,-1.8091719150543213,-0.0002524927258491516
1683140195030511900,13.351511962890624,0.19494915008544922,-1.7969915866851807,0.15255457162857056
1683140195048351200,13.369351318359374,0.2676506042480469,-1.8318276405334473,0.014918304979801178
1683140195066189800,13.38718994140625,0.26155567169189453,-1.7815265655517578,0.011167377233505249
1683140195084030000,13.405030029296874,0.20158767700195312,-1.7803616523742676,0.09759820997714996
1683140195101865200,13.422865234375,0.25240039825439453,-1.77864670753479,0.01154414564371109
1683140195119708200,13.440708251953126,0.24569034576416016,-1.7532798051834106,0.05334324389696121
1683140195137546000,13.4585458984375,0.2407855987548828,-1.7647740840911865,0.14245620369911194
1683140195155387600,13.4763876953125,0.1797018051147461,-1.798759937286377,-0.03426559269428253
1683140195173228000,13.49422802734375,0.2139596939086914,-1.7425639629364014,0.10779576003551483
1683140195191063000,13.51206298828125,0.244781494140625,-1.7861747741699219,0.03352595865726471
1683140195208904000,13.529904052734375,0.17888927459716797,-1.752457618713379,0.03637642413377762
1683140195226743600,13.54774365234375,0.20346450805664062,-1.7370638847351074,0.06873554736375809
1683140195244583000,13.5655830078125,0.18789291381835938,-1.736351728439331,0.07019408047199249
1683140195262422000,13.583422119140625,0.21669864654541016,-1.7433998584747314,0.1133895069360733
1683140195280262700,13.6012626953125,0.18390274047851562,-1.71803879737854,0.03502564877271652
1683140195298089200,13.619089111328124,0.18810558319091797,-1.7491333484649658,0.09721589833498001
1683140195315940000,13.636940185546875,0.23543262481689453,-1.75004243850708,0.04709840565919876
1683140195333778400,13.6547783203125,0.23423004150390625,-1.6857869625091553,-0.012869998812675476
1683140195351615000,13.672614990234376,0.16843509674072266,-1.737128496170044,0.1560586392879486
1683140195369460700,13.690460693359375,0.21285724639892578,-1.6986593008041382,-0.015468642115592957
1683140195387295700,13.708295654296874,0.20553112030029297,-1.7108521461486816,0.07381360232830048
1683140195405136600,13.72613671875,0.1913766860961914,-1.7316720485687256,0.12284676730632782
1683140195422974700,13.743974609375,0.1743488311767578,-1.7277295589447021,-0.027235761284828186
1683140195440814600,13.761814697265624,0.17833614349365234,-1.7005486488342285,0.039124973118305206
1683140195458653700,13.77965380859375,0.24011707305908203,-1.7352185249328613,0.11723120510578156
1683140195476492800,13.797492919921876,0.14232158660888672,-1.6518983840942383,-0.045558713376522064
1683140195494332000,13.815331787109375,0.17137718200683594,-1.7031476497650146,0.12482088804244995
1683140195512171500,13.833171630859376,0.21835899353027344,-1.6699942350387573,0.0884031280875206
1683140195530011000,13.851010986328125,0.18876171112060547,-1.6840938329696655,0.012294717133045197
1683140195547849700,13.868849609375,0.14319896697998047,-1.6866192817687988,0.12566760182380676
1683140195565688800,13.886688720703125,0.26800060272216797,-1.7113819122314453,-0.03243779391050339
1683140195583529000,13.904529052734375,0.1947488784790039,-1.6405284404754639,0.04046676307916641
1683140195601367800,13.922367919921875,0.2018413543701172,-1.6815418004989624,0.058149971067905426
1683140195619207000,13.94020703125,0.18090152740478516,-1.6250900030136108,0.020692676305770874
1683140195637045800,13.958045654296875,0.20337486267089844,-1.6668057441711426,0.07737472653388977
1683140195654886000,13.975885986328125,0.21275806427001953,-1.6348845958709717,0.02133677899837494
1683140195672724700,13.993724853515625,0.15826892852783203,-1.6833436489105225,0.07809767872095108
1683140195690563600,14.0115634765625,0.1934061050415039,-1.6422550678253174,0.01652783900499344
1683140195708403000,14.02940283203125,0.1961212158203125,-1.6291887760162354,-0.034719318151474
1683140195726242300,14.0472421875,0.18926429748535156,-1.632423996925354,0.15074467658996582
1683140195744081700,14.06508154296875,0.16462039947509766,-1.6075161695480347,-0.025862619280815125
1683140195761916200,14.082916259765625,0.18843936920166016,-1.5972481966018677,0.09661847352981567
1683140195779760000,14.100760009765626,0.1816854476928711,-1.660635232925415,0.09344637393951416
1683140195797599700,14.118599853515626,0.1952190399169922,-1.5951108932495117,0.009254910051822662
1683140195815438600,14.1364384765625,0.13976669311523438,-1.6251468658447266,0.11585062742233276
1683140195833277400,14.15427734375,0.20116329193115234,-1.6187903881072998,0.038930296897888184
1683140195851116500,14.172116455078125,0.21711063385009766,-1.5762125253677368,-0.005333900451660156
1683140195868956400,14.189956298828125,0.15519046783447266,-1.6065170764923096,0.12690851092338562
1683140195886795300,14.207795166015625,0.182891845703125,-1.5757321119308472,0.01032944768667221
1683140195904634400,14.22563427734375,0.1625232696533203,-1.5678932666778564,0.10021446645259857
1683140195922473200,14.24347314453125,0.17255401611328125,-1.6291714906692505,0.06983223557472229
1683140195940313000,14.26131298828125,0.1739177703857422,-1.586065411567688,0.017035163938999176
1683140195958152200,14.279152099609375,0.18136215209960938,-1.581026554107666,0.052948303520679474
1683140195975991300,14.2969912109375,0.15419387817382812,-1.5818421840667725,0.06754161417484283
1683140195993822500,14.314822509765625,0.16889667510986328,-1.5394330024719238,0.030149288475513458
1683140196011670000,14.332669921875,0.1598825454711914,-1.5701156854629517,0.07022669166326523
1683140196029509400,14.35050927734375,0.16172122955322266,-1.568381905555725,0.07934552431106567
1683140196047347500,14.368347412109374,0.11625957489013672,-1.5654277801513672,0.05663856863975525
1683140196065188000,14.38618798828125,0.1347951889038086,-1.5599263906478882,0.0022050142288208008
1683140196083027200,14.404027099609374,0.18051528930664062,-1.579464316368103,0.1202310174703598
1683140196100864000,14.421864013671875,0.09077739715576172,-1.533308982849121,-0.038065843284130096
1683140196118707500,14.43970751953125,0.15105342864990234,-1.5493474006652832,0.08751815557479858
1683140196136544300,14.457544189453126,0.18389225006103516,-1.5244762897491455,0.10550863295793533
1683140196154384000,14.4753837890625,0.13116931915283203,-1.543550729751587,0.03636512905359268
1683140196172218400,14.49321826171875,0.11122322082519531,-1.5349080562591553,0.10777606070041656
1683140196190059300,14.511059326171875,0.22750091552734375,-1.5705369710922241,0.032826416194438934
1683140196207904500,14.528904541015624,0.1720895767211914,-1.5030694007873535,-0.0042426735162734985
1683140196225740800,14.54674072265625,0.18487548828125,-1.543458104133606,0.07368132472038269
1683140196243580000,14.564579833984375,0.15407657623291016,-1.490969181060791,0.010188080370426178
1683140196261419000,14.5824189453125,0.17937374114990234,-1.5059791803359985,0.059974003583192825
1683140196279246000,14.60024609375,0.18045711517333984,-1.499571442604065,0.10004502534866333
1683140196297098000,14.618097900390625,0.14148998260498047,-1.5367412567138672,0.036110423505306244
1683140196314936800,14.635936767578125,0.19894981384277344,-1.5033373832702637,0.043703656643629074
1683140196332776000,14.65377587890625,0.17143821716308594,-1.5091140270233154,0.040274493396282196
1683140196350603300,14.671603271484376,0.1967945098876953,-1.4933106899261475,0.051572736352682114
1683140196368455000,14.689454833984374,0.20124053955078125,-1.466179609298706,-0.016439110040664673
1683140196386293800,14.707293701171874,0.17575550079345703,-1.4853041172027588,0.11193124949932098
1683140196404132600,14.725132568359374,0.12098407745361328,-1.5012307167053223,0.015069790184497833
1683140196421967000,14.742967041015625,0.18270206451416016,-1.4494926929473877,0.061286576092243195
1683140196439811600,14.7608115234375,0.1547870635986328,-1.5225989818572998,0.09540529549121857
1683140196457639200,14.77863916015625,0.1358480453491211,-1.464238166809082,-0.024738356471061707
1683140196475471600,14.7964716796875,0.14165115356445312,-1.449721336364746,0.07380926609039307
1683140196493319000,14.81431884765625,0.19067001342773438,-1.4736144542694092,0.058851368725299835
1683140196511169800,14.832169677734376,0.1565237045288086,-1.4250774383544922,0.014859668910503387
1683140196529007600,14.850007568359375,0.13285541534423828,-1.4499772787094116,0.15670894086360931
1683140196546846700,14.8678466796875,0.1595926284790039,-1.474273443222046,-0.020588621497154236
1683140196564685800,14.885685791015625,0.13358783721923828,-1.4312238693237305,0.10200706124305725
1683140196582525700,14.903525634765625,0.14031600952148438,-1.4858371019363403,-0.0008679330348968506
1683140196600364500,14.921364501953125,0.11087322235107422,-1.4333045482635498,0.031398385763168335
1683140196618203600,14.93920361328125,0.13283348083496094,-1.4147624969482422,0.08645971119403839
1683140196636030700,14.95703076171875,0.08080768585205078,-1.4289562702178955,0.04863320663571358
1683140196653868000,14.974867919921875,0.16541385650634766,-1.426182746887207,0.08210980147123337
1683140196671724500,14.992724609375,0.13621044158935547,-1.4163236618041992,0.050202563405036926
1683140196689560300,15.010560302734374,0.0975351333618164,-1.4325330257415771,0.0774683728814125
1683140196707387000,15.028386962890625,0.17648887634277344,-1.4466552734375,0.06370668113231659
1683140196725240000,15.046239990234374,0.16097068786621094,-1.4049489498138428,-0.046613894402980804
1683140196743078000,15.064077880859376,0.165374755859375,-1.44131600856781,0.09296784549951553
1683140196760917200,15.081917236328126,0.10853099822998047,-1.3694417476654053,0.031237222254276276
1683140196778756000,15.099756103515626,0.11601924896240234,-1.4007982015609741,0.0820072740316391
1683140196796596200,15.11759619140625,0.10082054138183594,-1.3993921279907227,0.0784052312374115
1683140196814432000,15.135431884765625,0.15065288543701172,-1.419405460357666,0.06969905644655228
1683140196832277200,15.15327734375,0.1357860565185547,-1.3826167583465576,0.007372327148914337
1683140196850113000,15.171113037109375,0.16854190826416016,-1.4104979038238525,0.06786290556192398
1683140196867953200,15.188953125,0.13077354431152344,-1.3707997798919678,0.011914432048797607
1683140196885792000,15.2067919921875,0.18228721618652344,-1.374909520149231,0.025091171264648438
1683140196903630800,15.224630859375,0.1639728546142578,-1.3566621541976929,0.1013089194893837
1683140196921470200,15.24247021484375,0.10182857513427734,-1.3985645771026611,0.006912402808666229
1683140196939297800,15.2602978515625,0.16611289978027344,-1.3649823665618896,0.023081719875335693
1683140196957137200,15.27813720703125,0.16175460815429688,-1.402384638786316,0.06856878101825714
1683140196974988000,15.295988037109375,0.10075950622558594,-1.3584040403366089,-0.020873285830020905
1683140196992823000,15.313822998046875,0.1446533203125,-1.3460719585418701,0.008532606065273285
1683140197010666800,15.331666748046874,0.1697683334350586,-1.3576339483261108,0.10636258125305176
1683140197028505900,15.349505859375,0.09456253051757812,-1.3438177108764648,-0.010787494480609894
1683140197046345000,15.367344970703124,0.10590457916259766,-1.3349186182022095,0.12752197682857513
1683140197064183800,15.385183837890626,0.12406158447265625,-1.3873709440231323,0.042599406093358994
1683140197082023700,15.403023681640626,0.16364669799804688,-1.3312679529190063,0.004763782024383545
1683140197099862500,15.420862548828126,0.08561134338378906,-1.3412604331970215,0.10004929453134537
1683140197117701600,15.43870166015625,0.14890766143798828,-1.3435487747192383,0.0017654821276664734
1683140197135540500,15.45654052734375,0.16830158233642578,-1.2976117134094238,0.01706612855195999
1683140197153380600,15.474380615234375,0.09132957458496094,-1.3265352249145508,0.12905728816986084
1683140197171217400,15.492217529296875,0.09268760681152344,-1.3422778844833374,0.023682959377765656
1683140197189058300,15.510058349609375,0.14734458923339844,-1.306762456893921,0.062315672636032104
1683140197206900200,15.527900146484376,0.15071678161621094,-1.3596962690353394,-0.007832616567611694
1683140197224737000,15.545737060546875,0.08935260772705078,-1.317270278930664,0.08590830117464066
1683140197242576100,15.563576171875,0.09879779815673828,-1.2965691089630127,0.014688275754451752
1683140197260415500,15.58141552734375,0.082611083984375,-1.2935043573379517,0.059637296944856644
1683140197278254300,15.59925439453125,0.13314151763916016,-1.2923027276992798,0.10679265856742859
1683140197296094200,15.61709423828125,0.07676315307617188,-1.2811065912246704,0.03826058655977249
1683140197313932800,15.634932861328124,0.06439208984375,-1.3100336790084839,0.09432035684585571
1683140197331769000,15.65276904296875,0.13258743286132812,-1.308242917060852,0.09527125209569931
1683140197349611500,15.670611572265624,0.1254262924194336,-1.291601300239563,-0.049289003014564514
1683140197367450000,15.6884501953125,0.1060171127319336,-1.3114714622497559,0.11486976593732834
1683140197385291000,15.706291015625,0.1340036392211914,-1.2661397457122803,-0.023080721497535706
1683140197403117300,15.724117431640625,0.12139320373535156,-1.2822799682617188,0.07380715012550354
1683140197420956400,15.741956298828125,0.08793163299560547,-1.2780709266662598,0.10661990940570831
1683140197438807800,15.759807861328126,0.07546424865722656,-1.2977941036224365,0.0215868279337883
1683140197456649700,15.777649658203124,0.1100015640258789,-1.271815299987793,0.0036028772592544556
1683140197474485800,15.79548583984375,0.157989501953125,-1.3101537227630615,0.0950019508600235
1683140197492324000,15.813323974609375,0.03700733184814453,-1.2504537105560303,-0.034988582134246826
1683140197510164500,15.83116455078125,0.13238048553466797,-1.2659356594085693,0.051406774669885635
1683140197528004000,15.849004150390625,0.1498584747314453,-1.2405916452407837,0.09455564618110657
1683140197545842700,15.8668427734375,0.0681009292602539,-1.2595839500427246,-0.007381953299045563
1683140197563682000,15.88468212890625,0.10773849487304688,-1.2462122440338135,0.11846931278705597
1683140197581521400,15.902521484375,0.1664867401123047,-1.2853145599365234,0.03249775990843773
1683140197599360300,15.9203603515625,0.12323856353759766,-1.242088794708252,0.0017885640263557434
1683140197617199900,15.938199951171875,0.11868095397949219,-1.2571303844451904,0.061417244374752045
1683140197635039200,15.956039306640625,0.16321754455566406,-1.243060827255249,-0.01708151400089264
1683140197652877600,15.973877685546874,0.15118885040283203,-1.2274852991104126,0.01585150510072708
1683140197670714000,15.991714111328125,0.1264057159423828,-1.2286289930343628,0.1248345822095871
1683140197688557300,16.009557373046874,0.06528854370117188,-1.2514739036560059,-0.022743694484233856
1683140197706397700,16.027397705078126,0.14969348907470703,-1.213464617729187,0.08340956270694733
1683140197724235000,16.045235107421874,0.11552047729492188,-1.2452725172042847,0.053576454520225525
1683140197742073900,16.063073974609374,0.13951778411865234,-1.2172647714614868,0.005676664412021637
1683140197759913200,16.080913330078126,0.16437911987304688,-1.1955204010009766,0.003958426415920258
1683140197777751000,16.0987509765625,0.11041736602783203,-1.2052686214447021,0.08238734304904938
1683140197795592200,16.11659228515625,0.08257293701171875,-1.2148628234863281,0.034752484411001205
1683140197813430000,16.134429931640625,0.13434219360351562,-1.177970290184021,0.038391586393117905
1683140197831271000,16.15227099609375,0.1003866195678711,-1.2534408569335938,0.10877159982919693
1683140197849109000,16.17010888671875,0.06703662872314453,-1.1997625827789307,-0.015193536877632141
1683140197866949000,16.18794921875,0.09659290313720703,-1.1869983673095703,0.02201608568429947
1683140197884787700,16.20578759765625,0.09911823272705078,-1.2088407278060913,0.11500221490859985
1683140197902627000,16.223626953125,0.08620452880859375,-1.15510892868042,-0.028890900313854218
1683140197920447200,16.241447265625,0.04234504699707031,-1.1709578037261963,0.1375819444656372
1683140197938302500,16.259302490234376,0.12273025512695312,-1.2050000429153442,0.05566292256116867
1683140197956147000,16.27714697265625,0.10176467895507812,-1.1541807651519775,0.002917349338531494
1683140197973983700,16.294983642578124,0.06553363800048828,-1.2016749382019043,0.09812258183956146
1683140197991822800,16.31282275390625,0.14077091217041016,-1.1987862586975098,0.009816102683544159
1683140198009661200,16.3306611328125,0.13779258728027344,-1.1338096857070923,-0.005950115621089935
1683140198027502600,16.348502685546876,0.06858158111572266,-1.189300537109375,0.14513957500457764
1683140198045340400,16.36634033203125,0.10648727416992188,-1.1461836099624634,-0.0371435210108757
1683140198063179800,16.3841796875,0.09611129760742188,-1.1610190868377686,0.09389394521713257
1683140198081019400,16.402019287109376,0.07336235046386719,-1.1871389150619507,0.0942055806517601
1683140198098855400,16.41985546875,0.0879812240600586,-1.187148928642273,-0.043670572340488434
1683140198116700200,16.4377001953125,0.07064533233642578,-1.1555194854736328,0.03859880566596985
1683140198134533400,16.455533447265626,0.12727832794189453,-1.180931806564331,0.07086346298456192
1683140198152371700,16.473371826171874,0.05026435852050781,-1.114835262298584,-0.039232537150382996
1683140198170218000,16.491218017578124,0.05522918701171875,-1.1610409021377563,0.11230625212192535
1683140198188054000,16.509053955078127,0.10614013671875,-1.1464176177978516,0.06905630230903625
1683140198205893000,16.52689306640625,0.10086250305175781,-1.1556291580200195,-0.00010066479444503784
1683140198223732500,16.544732421875,0.06277942657470703,-1.1438653469085693,0.1198643371462822
1683140198241571600,16.562571533203126,0.16826629638671875,-1.1627228260040283,-0.043395742774009705
1683140198259411000,16.580410888671874,0.11716556549072266,-1.1078648567199707,0.010134018957614899
1683140198277249800,16.598249755859374,0.10286140441894531,-1.139906406402588,0.07078494131565094
1683140198295090000,16.61608984375,0.12523365020751953,-1.110690712928772,-0.014333173632621765
1683140198312928800,16.6339287109375,0.09427833557128906,-1.111616849899292,0.06096135824918747
1683140198330767600,16.651767578125,0.13964080810546875,-1.1292757987976074,0.09019098430871964
1683140198348600300,16.669600341796876,0.060692787170410156,-1.1341118812561035,-0.026482723653316498
1683140198366446600,16.687446533203126,0.09483051300048828,-1.1124745607376099,0.07505028694868088
1683140198384285400,16.705285400390625,0.1240854263305664,-1.1088969707489014,-0.041103169322013855
1683140198402124300,16.723124267578125,0.067626953125,-1.0985636711120605,0.123695507645607
1683140198419963100,16.740963134765625,0.050507545471191406,-1.0898327827453613,-0.0018273666501045227
1683140198437803500,16.758803466796873,0.0913543701171875,-1.076334834098816,0.07361014932394028
1683140198455630600,16.776630615234374,0.08982372283935547,-1.152152419090271,0.08576279878616333
1683140198473481200,16.794481201171877,0.10956001281738281,-1.0773309469223022,-0.03253241628408432
1683140198491310300,16.812310302734375,0.06206321716308594,-1.1074390411376953,0.10561394691467285
1683140198509160000,16.830159912109377,0.1104888916015625,-1.1014680862426758,0.021494895219802856
1683140198526999300,16.847999267578125,0.13600635528564453,-1.0494611263275146,-0.025627650320529938
1683140198544838000,16.865837890625,0.05355644226074219,-1.093351125717163,0.13966675102710724
1683140198562678500,16.883678466796876,0.070556640625,-1.0789750814437866,-0.02075842022895813
1683140198580516900,16.901516845703124,0.0874319076538086,-1.0509271621704102,0.05669292062520981
1683140198598355700,16.919355712890624,0.08146095275878906,-1.1202516555786133,0.11390525102615356
1683140198616192000,16.93719189453125,0.03733348846435547,-1.0767050981521606,-0.039427220821380615
1683140198634036700,16.95503662109375,0.09109210968017578,-1.0559635162353516,0.02213147282600403
1683140198651866600,16.97286669921875,0.07488346099853516,-1.0883090496063232,0.11425299942493439
1683140198669716000,16.990716064453125,0.049263954162597656,-1.0183606147766113,-0.04135565459728241
1683140198687551500,17.008551513671875,0.03322124481201172,-1.054235816001892,0.1510947048664093
1683140198705390300,17.026390380859375,0.11593246459960938,-1.0707817077636719,0.027401156723499298
1683140198723230000,17.04422998046875,0.09363842010498047,-1.0579414367675781,0.0037207603454589844
1683140198741068800,17.06206884765625,0.03267669677734375,-1.0696594715118408,0.1034964919090271
1683140198758908000,17.079907958984375,0.1351451873779297,-1.0906684398651123,-0.027133718132972717
1683140198776747300,17.097747314453127,0.10244178771972656,-1.0171382427215576,-0.013162635266780853
1683140198794575400,17.115575439453124,0.08761787414550781,-1.0773556232452393,0.1030091643333435
1683140198812424400,17.133424560546874,0.0852804183959961,-1.0233395099639893,-0.03823753446340561
1683140198830267100,17.15126708984375,0.09907913208007812,-1.0508754253387451,0.0830872654914856
1683140198848104200,17.169104248046875,0.05151557922363281,-1.0499224662780762,0.1018817275762558
1683140198865943800,17.18694384765625,0.06694984436035156,-1.0628257989883423,-0.07883063703775406
1683140198883782700,17.20478271484375,0.0680837631225586,-1.0183308124542236,0.06684373319149017
1683140198901621800,17.222621826171874,0.10789966583251953,-1.0521886348724365,0.05773715674877167
1683140198919460900,17.2404609375,0.040734291076660156,-0.9923009872436523,-0.037709787487983704
1683140198937299700,17.2582998046875,0.05857086181640625,-1.0217660665512085,0.10065179318189621
1683140198955140400,17.276140380859374,0.12758636474609375,-1.0162978172302246,0.08775252103805542
1683140198972978700,17.293978759765626,0.07381820678710938,-1.0428708791732788,-0.06307660043239594
1683140198990805800,17.3118056640625,0.06569671630859375,-1.0088788270950317,0.13023298978805542
1683140199008657200,17.3296572265625,0.13174152374267578,-1.0354750156402588,-0.05396943539381027
1683140199026496300,17.347496337890625,0.11358356475830078,-0.9903707504272461,0.020553849637508392
1683140199044335400,17.36533544921875,0.05987834930419922,-1.0103063583374023,0.07866465300321579
1683140199062174500,17.383174560546873,0.12329959869384766,-1.0020241737365723,-0.03539281338453293
1683140199080014000,17.40101416015625,0.09716129302978516,-1.0081385374069214,0.05262567475438118
1683140199097857800,17.41885791015625,0.08422565460205078,-0.9904407262802124,0.13379943370819092
1683140199115692000,17.436692138671877,0.031978607177734375,-1.0228817462921143,-0.03769916296005249
1683140199133530000,17.454530029296876,0.11269187927246094,-0.9987074136734009,0.08111078292131424
1683140199151371800,17.472371826171877,0.09959888458251953,-0.9892904162406921,-0.008095301687717438
1683140199169209900,17.4902099609375,0.04564380645751953,-0.9836971163749695,0.0506630539894104
1683140199187050200,17.50805029296875,0.09538459777832031,-0.9816811084747314,0.05903134495019913
1683140199204874800,17.525874755859373,0.054785728454589844,-0.9510047435760498,0.042152874171733856
1683140199222727200,17.54372705078125,0.06793403625488281,-1.0321756601333618,0.11092104762792587
1683140199240566300,17.561566162109376,0.08467292785644531,-0.9782642126083374,-0.06597065925598145
1683140199258405600,17.579405517578124,0.07491397857666016,-0.9818853139877319,0.08298277854919434
1683140199276244500,17.597244384765624,0.05558204650878906,-0.999025821685791,0.006203323602676392
1683140199294080800,17.615080810546875,0.035427093505859375,-0.9150957465171814,0.03122647851705551
1683140199311918800,17.6329189453125,0.049411773681640625,-0.9922341108322144,0.1281178742647171
1683140199329762600,17.650762451171875,0.08375263214111328,-0.947095513343811,-0.04725814610719681
1683140199347601200,17.66860107421875,0.044219017028808594,-0.9600890278816223,0.10593728721141815
1683140199365441300,17.686441162109375,0.02888011932373047,-0.9696098566055298,0.05712735652923584
1683140199383280000,17.704280029296875,0.11638927459716797,-0.9879587888717651,0.020321592688560486
1683140199401118700,17.72211865234375,0.07049846649169922,-0.9492033123970032,-0.008388228714466095
1683140199418958000,17.7399580078125,0.09431934356689453,-0.9721515774726868,0.053552914410829544
1683140199436798000,17.7577978515625,0.09523868560791016,-0.9249064922332764,-0.01321738213300705
1683140199454636500,17.775636474609374,0.06062602996826172,-0.9512209892272949,0.07057943940162659
1683140199472475600,17.7934755859375,0.03399467468261719,-0.9574646949768066,0.10143446177244186
1683140199490303200,17.81130322265625,0.05755805969238281,-0.9774969220161438,-0.04037763923406601
1683140199508154600,17.829154541015626,0.05811882019042969,-0.9354038834571838,0.006538480520248413
1683140199525993500,17.846993408203126,0.12437152862548828,-0.9701387286186218,0.06319848448038101
1683140199543832300,17.864832275390626,0.017548561096191406,-0.9038674831390381,-0.052923448383808136
1683140199561659600,17.88265966796875,0.045841217041015625,-0.934944748878479,0.08778218179941177
1683140199579511300,17.90051123046875,0.1136922836303711,-0.9285624623298645,0.09121212363243103
1683140199597349000,17.91834912109375,0.05343055725097656,-0.9396584630012512,-0.03441745787858963
1683140199615190800,17.936190673828126,0.06323623657226562,-0.9307011961936951,0.103655606508255
1683140199633019400,17.954019287109375,0.10509490966796875,-0.9511233568191528,-0.009007014334201813
1683140199650866700,17.97186669921875,0.1086578369140625,-0.9093496799468994,0.02959444373846054
1683140199668708000,17.9897080078125,0.09466361999511719,-0.9238421320915222,0.01143261045217514
1683140199686545700,18.007545654296877,0.08892250061035156,-0.9109557271003723,0.02598368376493454
1683140199704384800,18.025384765625,0.05817890167236328,-0.9260298013687134,0.03627646714448929
1683140199722224000,18.04322412109375,0.08336353302001953,-0.8891162872314453,0.027777377516031265
1683140199740063200,18.061063232421876,0.03189563751220703,-0.9475677013397217,0.08358705043792725
1683140199757902600,18.078902587890624,0.056822776794433594,-0.9056054353713989,-0.00964289903640747
1683140199775741400,18.096741455078124,0.057480812072753906,-0.8999603986740112,-0.026765979826450348
1683140199793579300,18.114579345703124,0.06493091583251953,-0.9061054587364197,0.10883523523807526
1683140199811420400,18.13242041015625,0.04018688201904297,-0.8617390990257263,-0.0251782089471817
1683140199829256200,18.150256103515623,0.018904685974121094,-0.869987428188324,0.09937965124845505
1683140199847087400,18.16808740234375,0.056229591369628906,-0.9211927056312561,0.08829780668020248
1683140199864941000,18.185941162109376,0.0765676498413086,-0.8659039735794067,-0.019021809101104736
1683140199882777000,18.203777099609376,0.033514976501464844,-0.9053061604499817,0.10278947651386261
1683140199900616000,18.221615966796875,0.08757495880126953,-0.90369713306427,0.008372947573661804
1683140199918455300,18.239455322265623,0.09656238555908203,-0.8497266173362732,-0.0037084445357322693
1683140199936294700,18.257294677734375,0.033496856689453125,-0.9009180068969727,0.12017668038606644
1683140199954133500,18.275133544921875,0.08133220672607422,-0.8704021573066711,-0.04185393452644348
1683140199971972600,18.29297265625,0.054871559143066406,-0.8562115430831909,0.09445372223854065
1683140199989811700,18.310811767578127,0.04871082305908203,-0.913923978805542,0.07441750913858414
1683140200007650300,18.328650390625,0.033782958984375,-0.883643388748169,-0.02183220535516739
1683140200025491500,18.346491455078127,0.039467811584472656,-0.8739093542098999,0.061611756682395935
1683140200043329000,18.3643291015625,0.10473251342773438,-0.9030820727348328,0.027358349412679672
1683140200061168000,18.382168212890626,0.06480789184570312,-0.8193618059158325,-0.0319715291261673
1683140200079007700,18.4000078125,0.053343772888183594,-0.887969970703125,0.1475124955177307
1683140200096846300,18.417846435546874,0.05495262145996094,-0.8446989059448242,-0.027011148631572723
1683140200114683600,18.43568359375,0.080230712890625,-0.8751229047775269,0.11973129212856293
1683140200132525600,18.453525634765626,0.06435394287109375,-0.8708901405334473,-0.0404011532664299
1683140200150364700,18.47136474609375,0.09871959686279297,-0.8761422038078308,0.02429646998643875
1683140200168203800,18.489203857421874,0.025278091430664062,-0.8462332487106323,0.016313999891281128
1683140200186043000,18.50704296875,0.05095195770263672,-0.8460483551025391,0.032009221613407135
1683140200203881500,18.524881591796873,0.06740474700927734,-0.8328779339790344,0.04282664507627487
1683140200221709300,18.542709228515626,0.022390365600585938,-0.8567232489585876,0.04932880401611328
1683140200239557400,18.560557373046876,0.05780315399169922,-0.8612988591194153,0.028663817793130875
1683140200257400000,18.578400146484373,0.07149124145507812,-0.864509642124176,-0.05736762285232544
1683140200275239200,18.5962392578125,0.02197551727294922,-0.8485888838768005,0.131498783826828
1683140200293066500,18.61406640625,0.05498027801513672,-0.8461428284645081,-0.10065488517284393
1683140200310917000,18.631917236328125,0.04094123840332031,-0.8109572529792786,0.0637897402048111
1683140200328756000,18.649755859375,0.05125236511230469,-0.8556232452392578,0.09939179569482803
1683140200346594600,18.667594482421876,0.07990646362304688,-0.8066338896751404,-0.05679252743721008
1683140200364435000,18.68543505859375,0.005637168884277344,-0.8442564010620117,0.09364183992147446
1683140200382273800,18.703273681640624,0.09674549102783203,-0.8345332741737366,0.07613909989595413
1683140200400113200,18.721113037109376,0.07561874389648438,-0.8313580751419067,-0.07772959768772125
1683140200417950700,18.73895068359375,0.024627685546875,-0.8254508972167969,0.13213753700256348
1683140200435791400,18.756791259765624,0.07494258880615234,-0.7992013096809387,-0.02171502262353897
1683140200453631200,18.77463134765625,0.08968734741210938,-0.7999037504196167,0.021748855710029602
1683140200471468800,18.79246875,0.04476737976074219,-0.8280709981918335,0.0543113648891449
1683140200489308200,18.81030810546875,0.04088401794433594,-0.7990559339523315,0.0659017413854599
1683140200507148000,18.82814794921875,0.025132179260253906,-0.8529824018478394,0.008234933018684387
1683140200524987000,18.84598681640625,0.037433624267578125,-0.7966344356536865,0.0022573694586753845
1683140200542826000,18.863825927734375,0.04524803161621094,-0.8101720213890076,0.0892525464296341
1683140200560664800,18.881664794921875,0.00024890899658203125,-0.8076181411743164,-0.02153301239013672
1683140200578504700,18.899504638671875,0.020967483520507812,-0.7657783031463623,0.06502177566289902
1683140200596343600,18.917343505859375,0.032805442810058594,-0.797869861125946,0.12980002164840698
1683140200614182700,18.9351826171875,0.03793525695800781,-0.8035458326339722,-0.043130725622177124
1683140200632021500,18.953021484375,0.0015888214111328125,-0.7856482863426208,0.13314849138259888
1683140200649861000,18.970861083984374,0.0532684326171875,-0.8258712887763977,0.008816465735435486
1683140200667700200,18.9887001953125,0.07689762115478516,-0.795802652835846,-0.02072776108980179
1683140200685538600,19.00653857421875,0.035572052001953125,-0.7686013579368591,0.08368904888629913
1683140200703379200,19.024379150390626,0.018309593200683594,-0.810298502445221,0.016321249306201935
1683140200721206000,19.0422060546875,0.06101703643798828,-0.7469426393508911,-0.0076515525579452515
1683140200739056600,19.060056640625,0.05277442932128906,-0.802495002746582,0.16755320131778717
1683140200756896000,19.07789599609375,0.007285118103027344,-0.7952300906181335,-0.07764589786529541
1683140200774735400,19.0957353515625,0.10208320617675781,-0.8036336302757263,-0.014950551092624664
1683140200792562700,19.113562744140626,0.03483772277832031,-0.7771920561790466,0.10283385962247849
1683140200810413600,19.13141357421875,0.02199840545654297,-0.795112133026123,-0.08866080641746521
1683140200828252700,19.149252685546877,0.04658317565917969,-0.7379089593887329,0.0521053671836853
1683140200846091500,19.167091552734377,0.050223350524902344,-0.8061342239379883,0.10511811077594757
1683140200863931000,19.184930908203125,0.01100921630859375,-0.7667343616485596,-0.036535970866680145
1683140200881767000,19.202766845703124,0.02563953399658203,-0.7844317555427551,0.05345119908452034
1683140200899609300,19.220609375,0.018848419189453125,-0.7795425057411194,0.09019413590431213
1683140200917447200,19.238447265625,0.06735610961914062,-0.7940188646316528,-0.09557729214429855
1683140200935288800,19.256288818359376,0.018054962158203125,-0.7392823100090027,0.05307520180940628
1683140200953126700,19.274126708984376,0.0623321533203125,-0.7835584878921509,0.06920409202575684
1683140200970966000,19.291966064453124,0.06156635284423828,-0.7250375747680664,-0.03471929579973221
1683140200988800500,19.309800537109375,0.006450653076171875,-0.771517813205719,0.08407794684171677
1683140201006648800,19.32764892578125,0.09688282012939453,-0.7619360685348511,0.07630832493305206
1683140201024483000,19.345483154296875,0.07471466064453125,-0.7667381763458252,-0.07784409075975418
1683140201042322200,19.363322265625,0.01959514617919922,-0.7462453842163086,0.11128813773393631
1683140201060161300,19.381161376953123,0.08921337127685547,-0.7414560317993164,-0.04468248784542084
1683140201078000600,19.399000732421875,0.06748008728027344,-0.7233591675758362,0.027389690279960632
1683140201095839700,19.41683984375,0.009775161743164062,-0.7464876770973206,0.10231621563434601
1683140201113688600,19.4346884765625,0.06412792205810547,-0.7328627705574036,-0.012092582881450653
1683140201131518000,19.45251806640625,0.05125999450683594,-0.7744204998016357,0.0012997165322303772
1683140201149354800,19.470354736328126,0.026590347290039062,-0.7396164536476135,0.12383564561605453
1683140201167199200,19.48819921875,0.003459930419921875,-0.746843159198761,-0.06856686621904373
1683140201185035800,19.506035888671875,0.0027322769165039062,-0.7319490909576416,0.04629037156701088
1683140201202874400,19.523874267578126,0.04420948028564453,-0.7211379408836365,0.09204094111919403
1683140201220702500,19.541702392578124,-0.009642601013183594,-0.7076624035835266,-0.00924140214920044
1683140201238552800,19.559552734375,0.003939628601074219,-0.741036057472229,0.08580736815929413
1683140201256380700,19.577380615234375,0.024501800537109375,-0.7231044173240662,0.08783234655857086
1683140201274231000,19.59523095703125,0.05109691619873047,-0.7482614517211914,-0.04999074339866638
1683140201292056300,19.613056396484374,0.021327972412109375,-0.7303205728530884,0.08466330915689468
1683140201309909500,19.630909423828125,0.06186866760253906,-0.7051501274108887,-0.022733181715011597
1683140201327749000,19.6487490234375,0.04176807403564453,-0.7230716943740845,0.03789982572197914
1683140201345587700,19.666587646484373,0.02702617645263672,-0.6978252530097961,0.061623185873031616
1683140201363427800,19.684427734375,0.009576797485351562,-0.7203329205513,0.03737834095954895
1683140201381266200,19.70226611328125,0.04680633544921875,-0.7141209244728088,0.03322011977434158
1683140201399105300,19.720105224609377,0.05228424072265625,-0.7321102619171143,0.06447990983724594
1683140201416944600,19.737944580078125,0.024628639221191406,-0.7089793086051941,0.008625268936157227
1683140201434783000,19.755782958984376,0.09338760375976562,-0.7323520183563232,-0.009294092655181885
1683140201452620800,19.773620849609376,0.043023109436035156,-0.6820194125175476,0.022303082048892975
1683140201470465000,19.791465087890625,0.059493064880371094,-0.7428678870201111,0.013441115617752075
1683140201488301300,19.80930126953125,0.032853126525878906,-0.6687353849411011,0.0014403313398361206
1683140201506140700,19.827140625,0.059142112731933594,-0.7298696637153625,0.13408835232257843
1683140201523979300,19.844979248046876,0.007955551147460938,-0.7063208818435669,-0.028021030128002167
1683140201541815000,19.86281494140625,0.07455062866210938,-0.7100789546966553,-0.05190134793519974
1683140201559657500,19.880657470703124,0.03453636169433594,-0.7013633251190186,0.12850195169448853
1683140201577497000,19.8984970703125,0.031159400939941406,-0.7053191661834717,-0.09512439370155334
1683140201595336200,19.916336181640624,0.012935638427734375,-0.6596231460571289,0.0829358696937561
1683140201613175300,19.93417529296875,0.032555580139160156,-0.709942102432251,0.09438548982143402
1683140201631014400,19.952014404296875,0.05112743377685547,-0.6657608151435852,-0.03011523187160492
1683140201648854000,19.96985400390625,0.004978179931640625,-0.712903618812561,0.06846697628498077
1683140201666692900,19.98769287109375,0.0823526382446289,-0.6897779107093811,0.029668934643268585
1683140201684531700,20.00553173828125,0.078582763671875,-0.6781982183456421,-0.07837135344743729
1683140201702370600,20.02337060546875,0.009794235229492188,-0.6770535707473755,0.12587109208106995
1683140201720198700,20.04119873046875,0.04237079620361328,-0.6762229204177856,-0.03123009204864502
1683140201738037800,20.059037841796876,0.08959388732910156,-0.6432712078094482,0.03335508704185486
1683140201755874800,20.076874755859375,0.021196365356445312,-0.7126413583755493,0.09798765182495117
1683140201773727200,20.094727294921874,0.011295318603515625,-0.6686509251594543,-0.0069784000515937805
1683140201791566800,20.11256689453125,0.050968170166015625,-0.6931304931640625,0.006605856120586395
1683140201809405700,20.13040576171875,0.04073143005371094,-0.6850122213363647,0.08219220489263535
1683140201827245300,20.148245361328126,0.014895439147949219,-0.6397002339363098,-0.04178692400455475
1683140201845084000,20.166083984375,0.01451873779296875,-0.6536397933959961,0.09078656136989594
1683140201862923500,20.183923583984374,0.0450286865234375,-0.6709204912185669,0.040784452110528946
1683140201880763600,20.201763671875,-0.00408172607421875,-0.6455353498458862,0.027371816337108612
1683140201898600400,20.219600341796873,0.014956474304199219,-0.699725329875946,0.015374884009361267
1683140201916440300,20.2374404296875,0.013592720031738281,-0.670859694480896,0.08474014699459076
1683140201934280200,20.2552802734375,0.0017251968383789062,-0.664335310459137,-0.04355037957429886
1683140201952119300,20.273119384765625,-0.006545066833496094,-0.6600440144538879,0.03707991540431976
1683140201969958100,20.290958251953125,0.04432868957519531,-0.6257510185241699,0.09360402077436447
1683140201987781400,20.308781494140625,-0.011960983276367188,-0.6461769342422485,0.013329491019248962
1683140202005640200,20.32664013671875,0.000431060791015625,-0.6526583433151245,0.04150920361280441
1683140202023475500,20.344475341796876,0.057559967041015625,-0.6682894229888916,0.08992759138345718
1683140202041314300,20.362314208984376,0.034966468811035156,-0.641273021697998,-0.04749089479446411
1683140202059153400,20.3801533203125,0.04472827911376953,-0.6805331110954285,0.07132329046726227
1683140202076993000,20.397992919921876,0.03964519500732422,-0.6298246383666992,-0.030595645308494568
1683140202094829800,20.415829833984375,0.07030582427978516,-0.6493823528289795,0.006409354507923126
1683140202112673500,20.433673583984376,0.019458770751953125,-0.6181023716926575,0.08367334306240082
1683140202130510000,20.451510009765624,0.017508506774902344,-0.654679536819458,0.02628505229949951
1683140202148350200,20.46935009765625,0.0057964324951171875,-0.6409030556678772,0.06071097031235695
1683140202166189300,20.487189208984375,0.055245399475097656,-0.6804330348968506,-0.014701038599014282
1683140202184027100,20.505027099609375,-0.017683029174804688,-0.6231269836425781,0.024028465151786804
1683140202201863000,20.52286279296875,0.0635976791381836,-0.6587471961975098,-0.01153218001127243
1683140202219694600,20.540694580078124,0.025850296020507812,-0.594282865524292,0.007666528224945068
1683140202237544700,20.558544677734375,0.05163288116455078,-0.6475266218185425,0.04320124536752701
1683140202255384600,20.576384521484375,0.06517887115478516,-0.604304313659668,-0.017553776502609253
1683140202273223000,20.594222900390626,0.026541709899902344,-0.6630029082298279,0.07359130680561066
1683140202291049000,20.612049072265624,0.03087615966796875,-0.6382113695144653,-0.007445767521858215
1683140202308905000,20.629905029296875,0.049671173095703125,-0.6291450262069702,-0.08036202937364578
1683140202326740700,20.64774072265625,0.03402519226074219,-0.6241368651390076,0.1390177309513092
1683140202344571000,20.66557080078125,0.0033559799194335938,-0.5971881151199341,-0.09006267040967941
1683140202362419700,20.683419677734374,0.030973434448242188,-0.602495551109314,0.08027833700180054
1683140202380258300,20.70125830078125,0.02980804443359375,-0.6330978870391846,0.09634992480278015
1683140202398097200,20.71909716796875,0.03598308563232422,-0.5880777835845947,-0.017338968813419342
1683140202415924200,20.73692431640625,-0.018837928771972656,-0.6348350048065186,0.08765090256929398
1683140202433775900,20.75477587890625,0.0630025863647461,-0.6180492043495178,0.03008025884628296
1683140202451614700,20.77261474609375,0.06154632568359375,-0.5853747129440308,-0.039778076112270355
1683140202469451000,20.790450927734376,0.0028734207153320312,-0.6126620769500732,0.12143350392580032
1683140202487294700,20.808294677734374,0.037331581115722656,-0.5909985899925232,-0.025210700929164886
1683140202505133600,20.826133544921873,0.029956817626953125,-0.5707347989082336,0.05170624703168869
1683140202522968300,20.84396826171875,0.032561302185058594,-0.6285521984100342,0.08538910746574402
1683140202540813300,20.861813232421873,-0.010747909545898438,-0.5858274102210999,0.003932006657123566
1683140202558649000,20.879649169921876,0.027169227600097656,-0.6178330183029175,0.029876112937927246
1683140202576488700,20.89748876953125,0.017189979553222656,-0.6030104160308838,0.04967580735683441
1683140202594327800,20.915327880859376,0.02270984649658203,-0.565740704536438,0.016388051211833954
1683140202612167200,20.933167236328124,0.011860847473144531,-0.5896503925323486,0.05615409463644028
1683140202630005800,20.951005859375,0.05193519592285156,-0.5765842199325562,0.04920057952404022
1683140202647846000,20.968845947265624,0.0022382736206054688,-0.5913143754005432,0.04066227376461029
1683140202665684500,20.9866845703125,-0.012621879577636719,-0.6013226509094238,0.05856463313102722
1683140202683523800,21.00452392578125,0.036103248596191406,-0.6203479766845703,0.000634901225566864
1683140202701362200,21.022362060546875,-0.012784004211425781,-0.5658407211303711,-0.03039097785949707
1683140202719201800,21.040201904296875,0.0315093994140625,-0.6261557936668396,0.0998433381319046
1683140202737040600,21.05804052734375,-0.010081291198730469,-0.5396508574485779,-0.05365195870399475
1683140202754880300,21.07588037109375,0.011151313781738281,-0.5961009860038757,0.12071895599365234
1683140202772709600,21.093709716796877,0.015935897827148438,-0.5932348370552063,0.014555081725120544
1683140202790548200,21.11154833984375,0.04816246032714844,-0.5980815887451172,0.010797224938869476
1683140202808390000,21.129389892578125,0.014848709106445312,-0.5908817052841187,0.04341791570186615
1683140202826236700,21.147236572265626,0.06560993194580078,-0.599854052066803,-0.02140039950609207
1683140202844075500,21.165075439453126,0.05855274200439453,-0.568912148475647,0.016276083886623383
1683140202861910500,21.18291064453125,0.07045364379882812,-0.5645424127578735,-0.009293325245380402
1683140202879754000,21.20075390625,0.053254127502441406,-0.5514616966247559,0.07682144641876221
1683140202897593000,21.218593017578126,0.006281852722167969,-0.5994989275932312,-0.010323002934455872
1683140202915432000,21.236431884765626,0.05716896057128906,-0.5588569641113281,0.00029634684324264526
1683140202933269000,21.25426904296875,0.05607414245605469,-0.6000766754150391,0.05865352600812912
1683140202951113500,21.272113525390626,-0.0009336471557617188,-0.5512920022010803,-0.03095477819442749
1683140202968950800,21.28995068359375,0.026015281677246094,-0.5471447706222534,-0.01588132232427597
1683140202986784800,21.30778466796875,0.05215167999267578,-0.5651268362998962,0.10067880153656006
1683140203004628000,21.3256279296875,-0.005229949951171875,-0.5527749061584473,-0.03613249957561493
1683140203022464800,21.34346484375,0.014409065246582031,-0.5411227941513062,0.09669586271047592
1683140203040297200,21.361297119140627,0.03674125671386719,-0.6089901924133301,0.03139317408204079
1683140203058145000,21.37914501953125,0.061234474182128906,-0.5427115559577942,-0.013993851840496063
1683140203075984600,21.396984619140625,-0.005179405212402344,-0.5524605512619019,0.08479970693588257
1683140203093823700,21.41482373046875,0.05000114440917969,-0.5569031238555908,-0.005857788026332855
1683140203111662300,21.432662353515624,0.057951927185058594,-0.5191121101379395,0.008481748402118683
1683140203129501400,21.45050146484375,-0.022459983825683594,-0.5495970249176025,0.11639734357595444
1683140203147340000,21.468340087890624,0.013405799865722656,-0.5550138354301453,-0.009863950312137604
1683140203165181000,21.486180908203124,0.031096458435058594,-0.5198240280151367,0.06069566681981087
1683140203183019300,21.504019287109376,0.013885498046875,-0.5850019454956055,0.06656811386346817
1683140203200858000,21.521858154296876,-0.012635231018066406,-0.5480363965034485,-0.04869619011878967
1683140203218697500,21.539697509765624,0.014042854309082031,-0.5244694352149963,0.07223096489906311
1683140203236521700,21.557521728515624,0.03306102752685547,-0.5544902682304382,0.03648649528622627
1683140203254375700,21.575375732421875,0.013072967529296875,-0.509026050567627,-0.012738153338432312
1683140203272210000,21.5932099609375,0.0041484832763671875,-0.5453310012817383,0.10952583700418472
1683140203290051000,21.611051025390626,0.031058311462402344,-0.546725332736969,-0.056194156408309937
1683140203307888400,21.628888427734374,0.029150009155273438,-0.550507128238678,0.12242919206619263
1683140203325732000,21.646732177734375,-0.017157554626464844,-0.5472220182418823,-0.044268421828746796
1683140203343571200,21.6645712890625,0.02670574188232422,-0.5464773774147034,0.021429341286420822
1683140203361410600,21.68241064453125,0.05174064636230469,-0.5203943252563477,0.04856898635625839
1683140203379249200,21.700249267578126,0.01917266845703125,-0.5410178303718567,0.012853465974330902
1683140203397088800,21.7180888671875,0.010755538940429688,-0.5243335366249084,0.04141578450798988
1683140203414927400,21.73592724609375,0.023354530334472656,-0.5453580021858215,-0.000008195638656616211
1683140203432764000,21.753763916015625,-0.022487640380859375,-0.5272641777992249,0.11360940337181091
1683140203450607900,21.77160791015625,0.03165149688720703,-0.5633213520050049,-0.05568370968103409
1683140203468443100,21.789443115234373,-0.043498992919921875,-0.49403437972068787,0.05484500899910927
1683140203486286800,21.807286865234374,0.0967245101928711,-0.548963189125061,0.026213400065898895
1683140203504120800,21.825120849609377,0.043231964111328125,-0.4743749499320984,-0.04721695929765701
1683140203521964800,21.84296484375,0.003353118896484375,-0.5375168919563293,0.10236479341983795
1683140203539801300,21.86080126953125,0.056064605712890625,-0.5192290544509888,0.03521869331598282
1683140203557640200,21.87864013671875,0.05845928192138672,-0.5397990942001343,-0.035395316779613495
1683140203575469000,21.896468994140626,0.011038780212402344,-0.5134236216545105,0.09275755286216736
1683140203593324000,21.914323974609374,0.08028316497802734,-0.5199254155158997,-0.06537887454032898
1683140203611157800,21.93215771484375,0.06932353973388672,-0.4897972345352173,0.008832268416881561
1683140203628996600,21.94999658203125,0.019095420837402344,-0.5115101933479309,0.08767997473478317
1683140203646836500,21.96783642578125,0.038806915283203125,-0.5045931935310364,-0.016692280769348145
1683140203664675000,21.985675048828124,0.007830619812011719,-0.5240795016288757,0.011803530156612396
1683140203682517500,22.003517578125,0.020789146423339844,-0.5055339336395264,0.12914931774139404
1683140203700353300,22.021353271484376,-0.03070545196533203,-0.5307862162590027,-0.08328982442617416
1683140203718193200,22.039193115234376,0.02030181884765625,-0.4995909333229065,0.03243726119399071
1683140203736025300,22.057025390625,0.03020763397216797,-0.504797101020813,0.08669468015432358
1683140203753871000,22.07487109375,-0.03156280517578125,-0.47952044010162354,-0.03255469352006912
1683140203771706000,22.0927060546875,-0.013902664184570312,-0.47977882623672485,0.10678663104772568
1683140203789549600,22.110549560546875,0.037227630615234375,-0.4889442026615143,0.06827852129936218
1683140203807387400,22.128387451171875,0.03311443328857422,-0.5262000560760498,-0.04573586583137512
1683140203825228300,22.146228271484375,-0.0029926300048828125,-0.49478840827941895,0.10462036728858948
1683140203843066400,22.16406640625,0.03906822204589844,-0.49715858697891235,-0.00960829108953476
1683140203860906000,22.181906005859375,0.03504467010498047,-0.483694851398468,-0.010312028229236603
1683140203878744800,22.199744873046875,0.014387130737304688,-0.47207337617874146,0.09397724270820618
1683140203896583700,22.217583740234375,-0.013123512268066406,-0.49663564562797546,0.00848051905632019
1683140203914422500,22.235422607421874,0.041159629821777344,-0.47956061363220215,0.000892147421836853
1683140203932259300,22.25325927734375,0.0006952285766601562,-0.4918823838233948,0.145384281873703
