time,seconds_elapsed,z,y,x
1683140181821319400,0.1423193359375,9.844670295715332,0.3720839321613312,0.062213387340307236
1683140181838414000,0.1594140625,9.726823806762695,0.357128769159317,-0.28115665912628174
1683140181856267800,0.177267822265625,9.81655502319336,0.4007977843284607,0.019142581149935722
1683140181874103800,0.195103759765625,9.79262638092041,0.4007977843284607,-0.06640082597732544
1683140181891938300,0.212938232421875,9.721440315246582,0.4055834412574768,-0.07657032459974289
1683140181909782000,0.230781982421875,9.730413436889648,0.36729827523231506,0.009571290574967861
1683140181927621400,0.248621337890625,9.887741088867188,0.4007977843284607,-0.028115665540099144
1683140181945460200,0.266460205078125,9.754940032958984,0.3523431420326233,-0.15254244208335876
1683140181963303200,0.28430322265625,9.725627899169922,0.4055834412574768,0.1381855010986328
1683140181981138700,0.302138671875,9.840482711791992,0.37148571014404297,-0.1663011759519577
1683140181998977800,0.319977783203125,9.821340560913086,0.39122650027275085,-0.06161518394947052
1683140182016817000,0.33781689453125,9.735198974609375,0.39122650027275085,0.07597211748361588
1683140182034655700,0.35565576171875,9.764511108398438,0.3762713670730591,-0.16689938306808472
1683140182052494800,0.373494873046875,9.80219841003418,0.38644084334373474,0.014356935396790504
1683140182070333700,0.391333740234375,9.735198974609375,0.3768695592880249,0.06640082597732544
1683140182088172300,0.40917236328125,9.68794059753418,0.3762713670730591,-0.12442677468061447
1683140182106015700,0.427015625,9.849455833435059,0.33858439326286316,-0.028115665540099144
1683140182123851300,0.444851318359375,9.806983947753906,0.4055834412574768,-0.09032905846834183
1683140182141690400,0.4626904296875,9.701699256896973,0.33858439326286316,0.01375873014330864
1683140182159530000,0.480530029296875,9.80219841003418,0.4007977843284607,-0.12382857501506805
1683140182177367600,0.498367431640625,9.754341125488281,0.3768695592880249,-0.04785645380616188
1683140182195208400,0.51620849609375,9.730413436889648,0.3529413342475891,0.0568295381963253
1683140182213047000,0.534047119140625,9.717252731323242,0.3523431420326233,-0.21954147517681122
1683140182230885600,0.5518857421875,9.726225852966309,0.38644084334373474,-0.03349951654672623
1683140182248725000,0.56972509765625,9.835099220275879,0.3194418251514435,-0.004187439568340778
1683140182266564900,0.58756494140625,9.674181938171387,0.4384847581386566,-0.17228323221206665
1683140182284403200,0.6054033203125,9.7064847946167,0.3529413342475891,0.12382857501506805
1683140182302241500,0.623241455078125,9.79262638092041,0.3720839321613312,-0.07597211748361588
1683140182320082200,0.641082275390625,9.77826976776123,0.34277185797691345,-0.11904292553663254
1683140182337910000,0.658909912109375,9.725627899169922,0.39601215720176697,0.08554340898990631
1683140182355756300,0.67675634765625,9.921838760375977,0.3236292600631714,-0.23748764395713806
1683140182373595600,0.694595703125,9.77826976776123,0.4295116662979126,-0.04785645380616188
1683140182391440600,0.712440673828125,9.815957069396973,0.33858439326286316,0.019142581149935722
1683140182409276400,0.7302763671875,9.821938514709473,0.4001995921134949,-0.18065811693668365
1683140182427116000,0.748115966796875,9.80219841003418,0.3529413342475891,-0.009571290574967861
1683140182444955100,0.765955078125,9.825528144836426,0.3720839321613312,0.019142581149935722
1683140182462794200,0.783794189453125,9.764511108398438,0.3332005441188812,-0.2667997181415558
1683140182480633000,0.801633056640625,9.77826976776123,0.38644084334373474,0.014356935396790504
1683140182498460700,0.819460693359375,9.840482711791992,0.3720839321613312,-0.09032905846834183
1683140182516311300,0.837311279296875,9.735796928405762,0.39541393518447876,-0.1333998590707779
1683140182534150700,0.855150634765625,9.76391315460205,0.39122650027275085,0.014356935396790504
1683140182551990000,0.872989990234375,9.90688419342041,0.381655216217041,-0.01375873014330864
1683140182569828600,0.89082861328125,9.759725570678711,0.3475574851036072,-0.17647066712379456
1683140182587666700,0.908666748046875,9.79681396484375,0.38644084334373474,0.12382857501506805
1683140182605508000,0.926508056640625,9.840482711791992,0.36191442608833313,-0.18544375896453857
1683140182623346000,0.944345947265625,9.850054740905762,0.4055834412574768,-0.047258246690034866
1683140182641185000,0.96218505859375,9.79262638092041,0.4247260093688965,0.04307080805301666
1683140182659024400,0.9800244140625,9.78843879699707,0.3762713670730591,-0.15254244208335876
1683140182676863200,0.99786328125,9.787840843200684,0.381655216217041,-0.009571290574967861
1683140182694702800,1.015702880859375,9.81117057800293,0.39122650027275085,0.038285162299871445
1683140182712539600,1.03353955078125,9.702896118164062,0.34277185797691345,-0.20039889216423035
1683140182730382300,1.05138232421875,9.77826976776123,0.3768695592880249,-0.02392822690308094
1683140182748219600,1.0692197265625,9.759127616882324,0.4103690981864929,0.02871387079358101
1683140182766059000,1.08705908203125,9.650253295898438,0.3762713670730591,-0.13878370821475983
1683140182783893000,1.10489306640625,9.739984512329102,0.41994038224220276,0.03768695518374443
1683140182801739500,1.122739501953125,9.783055305480957,0.3768695592880249,0.04307080805301666
1683140182819576000,1.140576171875,9.764511108398438,0.3858426511287689,-0.14297115802764893
1683140182837415000,1.158414794921875,9.701699256896973,0.38644084334373474,0.1094716340303421
1683140182855254500,1.176254638671875,9.811769485473633,0.36729827523231506,-0.11904292553663254
1683140182873093000,1.194093017578125,9.840482711791992,0.36251261830329895,-0.1136590763926506
1683140182890933000,1.21193310546875,9.754341125488281,0.4247260093688965,0.04307080805301666
1683140182908759000,1.229759033203125,9.64965534210205,0.36191442608833313,-0.014955141581594944
1683140182926610700,1.247610595703125,9.76391315460205,0.41994038224220276,-0.04307080805301666
1683140182944449800,1.26544970703125,9.739984512329102,0.3433700501918793,0.02871387079358101
1683140182962287900,1.283287841796875,9.754940032958984,0.3810569941997528,-0.11425728350877762
1683140182980129000,1.30112890625,9.864411354064941,0.33858439326286316,-0.1136590763926506
1683140182997967000,1.318967041015625,9.721440315246582,0.39122650027275085,-0.009571290574967861
1683140183015806200,1.33680615234375,9.750154495239258,0.33798620104789734,-0.14297115802764893
1683140183033633500,1.354633544921875,9.716654777526855,0.4247260093688965,0.028115665540099144
1683140183051484700,1.372484619140625,9.773484230041504,0.31465616822242737,-0.052043892443180084
1683140183069323800,1.39032373046875,9.740582466125488,0.39122650027275085,-0.04785645380616188
1683140183087162600,1.40816259765625,9.768698692321777,0.2949153780937195,-0.09990034252405167
1683140183105001200,1.426001220703125,9.683155059814453,0.44386860728263855,0.01375873014330864
1683140183122841000,1.443841064453125,9.911669731140137,0.30508488416671753,-0.10408778488636017
1683140183140679700,1.4616796875,9.80219841003418,0.4103690981864929,-0.12382857501506805
1683140183158508800,1.4795087890625,9.854242324829102,0.3433700501918793,-0.06161518394947052
1683140183176358400,1.4973583984375,9.845269203186035,0.39601215720176697,-0.137587308883667
1683140183194197200,1.515197265625,9.815957069396973,0.33858439326286316,-0.004187439568340778
1683140183212036000,1.5330361328125,9.740582466125488,0.38644084334373474,-0.04785645380616188
1683140183229875500,1.55087548828125,9.750154495239258,0.36191442608833313,-0.18125630915164948
1683140183247714300,1.56871435546875,9.835099220275879,0.381655216217041,0.08614161610603333
1683140183265558300,1.586558349609375,9.726823806762695,0.4145565330982208,-0.23389841616153717
1683140183283392500,1.604392578125,9.783055305480957,0.36251261830329895,0.04785645380616188
1683140183301232000,1.622232177734375,9.811769485473633,0.38644084334373474,-0.08554340898990631
1683140183319070700,1.64007080078125,9.859027862548828,0.4055834412574768,-0.047258246690034866
1683140183336910000,1.65791015625,9.744770050048828,0.3188436031341553,-0.08075776696205139
1683140183354749200,1.675749267578125,9.739984512329102,0.4055834412574768,0.09032905846834183
1683140183372588300,1.69358837890625,9.854840278625488,0.3529413342475891,-0.137587308883667
1683140183390427600,1.711427734375,9.864411354064941,0.381655216217041,-0.09930214285850525
1683140183408266800,1.729266845703125,9.783055305480957,0.4007977843284607,0.038285162299871445
1683140183426105900,1.74710595703125,9.716654777526855,0.37148571014404297,-0.11425728350877762
1683140183443945000,1.764945068359375,9.768698692321777,0.39601215720176697,-0.009571290574967861
1683140183461780200,1.7827802734375,9.735198974609375,0.36251261830329895,0.10468599200248718
1683140183479613400,1.800613525390625,9.678967475891113,0.34277185797691345,-0.21954147517681122
1683140183497461200,1.818461181640625,9.76391315460205,0.3720839321613312,-0.038285162299871445
1683140183515302100,1.83630224609375,9.739984512329102,0.4055834412574768,0.07118647545576096
1683140183533140200,1.85414013671875,9.645467758178711,0.37148571014404297,-0.12921242415905
1683140183550979000,1.87197900390625,9.754341125488281,0.4295116662979126,0.0568295381963253
1683140183568818700,1.889818603515625,9.773484230041504,0.36251261830329895,0.0526420995593071
1683140183586657500,1.907657470703125,9.778867721557617,0.4001995921134949,-0.17168502509593964
1683140183604497000,1.925496826171875,9.768099784851074,0.33379876613616943,0.07657032459974289
1683140183622331100,1.9433310546875,9.78843879699707,0.3858426511287689,-0.12861421704292297
1683140183640174600,1.961174560546875,9.840482711791992,0.33379876613616943,-0.0849452018737793
1683140183658002200,1.979002197265625,9.744770050048828,0.41515472531318665,0.02871387079358101
1683140183675853000,1.99685302734375,9.77826976776123,0.36251261830329895,-0.09511470049619675
1683140183693692400,2.0146923828125,9.77826976776123,0.39122650027275085,-0.014356935396790504
1683140183711528400,2.032528564453125,9.749555587768555,0.3290131092071533,-0.019142581149935722
1683140183729373400,2.05037353515625,9.745368003845215,0.39601215720176697,-0.04785645380616188
1683140183747209500,2.06820947265625,9.873982429504395,0.3044866919517517,-0.17527425289154053
1683140183765048600,2.086048583984375,9.711869239807129,0.4055834412574768,-0.0005982056609354913
1683140183782888200,2.10388818359375,9.77408218383789,0.36670008301734924,-0.1094716340303421
1683140183800717800,2.1217177734375,9.754341125488281,0.4103690981864929,-0.009571290574967861
1683140183818566100,2.139566162109375,9.773484230041504,0.30987054109573364,-0.047258246690034866
1683140183836401000,2.15740087890625,9.783055305480957,0.39601215720176697,-0.0568295381963253
1683140183854248700,2.175248779296875,9.81655502319336,0.3044866919517517,-0.1136590763926506
1683140183872083200,2.193083251953125,9.735796928405762,0.4295116662979126,-0.004785645287483931
1683140183889922300,2.21092236328125,9.911669731140137,0.36729827523231506,-0.09451649338006973
1683140183907763000,2.228762939453125,9.840482711791992,0.38644084334373474,-0.10408778488636017
1683140183925586200,2.246586181640625,9.845269203186035,0.36251261830329895,-0.0568295381963253
1683140183943440000,2.26443994140625,9.835697174072266,0.39601215720176697,-0.052043892443180084
1683140183961278700,2.28227880859375,9.787840843200684,0.3433700501918793,0.014356935396790504
1683140183979118300,2.300118408203125,9.835697174072266,0.4007977843284607,-0.08075776696205139
1683140183996957000,2.31795703125,9.768698692321777,0.3768695592880249,-0.02392822690308094
1683140184014795800,2.335795654296875,9.864411354064941,0.36251261830329895,-0.10887342691421509
1683140184032635400,2.353635498046875,9.821340560913086,0.4534398913383484,-0.1094716340303421
1683140184050474200,2.37147412109375,9.749555587768555,0.33858439326286316,0.09990034252405167
1683140184068313900,2.38931396484375,9.731011390686035,0.3858426511287689,-0.1621137410402298
1683140184086153000,2.407153076171875,9.835697174072266,0.4103690981864929,-0.01375873014330864
1683140184103991800,2.42499169921875,9.76391315460205,0.30508488416671753,0
1683140184121827300,2.442827392578125,9.731011390686035,0.39541393518447876,-0.1860419660806656
1683140184139669800,2.460669677734375,9.749555587768555,0.41515472531318665,0.014356935396790504
1683140184157497000,2.4784970703125,9.768698692321777,0.3481557071208954,0.009571290574967861
1683140184175348700,2.4963486328125,9.707681655883789,0.4576273262500763,-0.11964113265275955
1683140184193187000,2.51418701171875,9.66819953918457,0.3768695592880249,0.137587308883667
1683140184211027000,2.53202685546875,9.79262638092041,0.3529413342475891,-0.07118647545576096
1683140184228865800,2.54986572265625,9.726225852966309,0.39601215720176697,-0.04785645380616188
1683140184246707500,2.56770751953125,9.711270332336426,0.36251261830329895,0.08075776696205139
1683140184264543700,2.585543701171875,9.835697174072266,0.33798620104789734,-0.1902294009923935
1683140184282382800,2.6033828125,9.811769485473633,0.44386860728263855,-0.03290131315588951
1683140184300222200,2.62122216796875,9.682557106018066,0.33379876613616943,0.11425728350877762
1683140184318061600,2.6390615234375,9.778867721557617,0.4097708761692047,-0.18065811693668365
1683140184335900200,2.656900146484375,9.792028427124023,0.3577269911766052,0.0526420995593071
1683140184353728000,2.67472802734375,9.821340560913086,0.3720839321613312,-0.15194423496723175
1683140184371576000,2.692576171875,9.811769485473633,0.33858439326286316,-0.06640082597732544
1683140184389409500,2.710409423828125,9.697511672973633,0.4055834412574768,-0.04785645380616188
1683140184407255800,2.728255859375,9.759127616882324,0.3481557071208954,-0.04785645380616188
1683140184425096200,2.74609619140625,9.754341125488281,0.39601215720176697,0.009571290574967861
1683140184442935000,2.76393505859375,9.773484230041504,0.33858439326286316,-0.08554340898990631
1683140184460774100,2.781774169921875,9.739984512329102,0.39601215720176697,-0.004785645287483931
1683140184478613000,2.799613037109375,9.835099220275879,0.33858439326286316,-0.023330021649599075
1683140184496452600,2.81745263671875,9.754940032958984,0.41515472531318665,-0.09990034252405167
1683140184514291200,2.835291259765625,9.825528144836426,0.3242274820804596,-0.023330021649599075
1683140184532130600,2.853130615234375,9.793225288391113,0.39601215720176697,-0.1333998590707779
1683140184549969400,2.870969482421875,9.850054740905762,0.39122650027275085,-0.07118647545576096
1683140184567808500,2.88880859375,9.801599502563477,0.3720839321613312,0.05742774158716202
1683140184585648400,2.9066484375,9.721440315246582,0.34277185797691345,-0.1908276081085205
1683140184603487200,2.9244873046875,9.81117057800293,0.38644084334373474,0.09571290761232376
1683140184621325800,2.942325927734375,9.764511108398438,0.28534409403800964,-0.24287149310112
1683140184639165000,2.9601650390625,9.740582466125488,0.4103690981864929,-0.02871387079358101
1683140184657004300,2.97800439453125,9.783055305480957,0.36251261830329895,-0.09511470049619675
1683140184674843600,2.99584375,9.754940032958984,0.381655216217041,-0.08554340898990631
1683140184692682500,3.0136826171875,9.79262638092041,0.36729827523231506,-0.07597211748361588
1683140184710522000,3.031522216796875,9.806983947753906,0.4103690981864929,-0.047258246690034866
1683140184728360200,3.049360107421875,9.730413436889648,0.30987054109573364,-0.019142581149935722
1683140184746201000,3.067201171875,9.750154495239258,0.4007977843284607,-0.06699903309345245
1683140184764039200,3.0850390625,9.735796928405762,0.3762713670730591,-0.11425728350877762
1683140184781874400,3.10287451171875,9.815957069396973,0.3577269911766052,0.038285162299871445
1683140184799707000,3.120706787109375,9.688538551330566,0.44805604219436646,-0.11964113265275955
1683140184817555200,3.13855517578125,9.682557106018066,0.3768695592880249,0.06161518394947052
1683140184835395600,3.1563955078125,9.815957069396973,0.3768695592880249,0.014356935396790504
1683140184853233700,3.174233642578125,9.735796928405762,0.41994038224220276,-0.09092725813388824
1683140184871074800,3.19207470703125,9.701699256896973,0.3529413342475891,0.08075776696205139
1683140184888910000,3.20991015625,9.864411354064941,0.3577269911766052,-0.16151553392410278
1683140184906755000,3.227755126953125,9.811769485473633,0.44386860728263855,-0.03768695518374443
1683140184924579300,3.245579345703125,9.730413436889648,0.33858439326286316,0.04307080805301666
1683140184942430200,3.26343017578125,9.821938514709473,0.4342973232269287,-0.18544375896453857
1683140184960269800,3.281269775390625,9.749555587768555,0.39601215720176697,0.07597211748361588
1683140184978109000,3.29910888671875,9.739984512329102,0.33858439326286316,0.03349951654672623
1683140184995947800,3.31694775390625,9.66939640045166,0.36191442608833313,-0.17168502509593964
1683140185013773000,3.33477294921875,9.744770050048828,0.3768695592880249,0.009571290574967861
1683140185031629000,3.352629150390625,9.835697174072266,0.30508488416671753,-0.08015955984592438
1683140185049465000,3.370465087890625,9.650253295898438,0.4384847581386566,-0.11006984114646912
1683140185067303400,3.388303466796875,9.69212818145752,0.3433700501918793,0.08554340898990631
1683140185085132300,3.40613232421875,9.759127616882324,0.41515472531318665,-0.0526420995593071
1683140185102983000,3.42398291015625,9.768698692321777,0.3433700501918793,0.03349951654672623
1683140185120822000,3.441822021484375,9.79262638092041,0.39122650027275085,-0.09990034252405167
1683140185138660000,3.45966015625,9.868598937988281,0.3290131092071533,-0.03768695518374443
1683140185156492000,3.477491943359375,9.769296646118164,0.381655216217041,-0.09511470049619675
1683140185174327000,3.4953271484375,9.883553504943848,0.36729827523231506,-0.12323036789894104
1683140185192178700,3.5131787109375,9.815957069396973,0.39122650027275085,0.014356935396790504
1683140185210017300,3.531017333984375,9.769296646118164,0.3332005441188812,-0.14775680005550385
1683140185227856400,3.5488564453125,9.845269203186035,0.4007977843284607,-0.08554340898990631
1683140185245696000,3.566696044921875,9.839884757995605,0.30987054109573364,0.010169495828449726
1683140185263535400,3.584535400390625,9.68375301361084,0.4001995921134949,-0.1621137410402298
1683140185281373700,3.602373779296875,9.80219841003418,0.3720839321613312,-0.11904292553663254
1683140185299213000,3.620213134765625,9.801599502563477,0.36729827523231506,0.05742774158716202
1683140185317052200,3.63805224609375,9.745368003845215,0.4001995921134949,-0.20039889216423035
1683140185334891800,3.655891845703125,9.744770050048828,0.3720839321613312,0.07597211748361588
1683140185352730400,3.67373046875,9.787840843200684,0.33379876613616943,-0.06161518394947052
1683140185370569700,3.69156982421875,9.840482711791992,0.4103690981864929,-0.09990034252405167
1683140185388408800,3.709408935546875,9.735198974609375,0.3529413342475891,0.038285162299871445
1683140185406248000,3.727248046875,9.869196891784668,0.3720839321613312,-0.12801600992679596
1683140185424087000,3.745087158203125,9.854840278625488,0.44386860728263855,-0.10408778488636017
1683140185441930800,3.7629306640625,9.735198974609375,0.36729827523231506,0.11904292553663254
1683140185459761700,3.78076171875,9.754940032958984,0.4049852192401886,-0.1381855010986328
1683140185477603600,3.798603515625,9.863813400268555,0.4007977843284607,-0.018544375896453857
1683140185495444000,3.81644384765625,9.769296646118164,0.31405797600746155,-0.14297115802764893
1683140185513283800,3.834283935546875,9.744770050048828,0.39122650027275085,0.03349951654672623
1683140185531122000,3.852121826171875,9.664610862731934,0.3858426511287689,-0.1052841991186142
1683140185548961000,3.8699609375,9.668798446655273,0.381655216217041,-0.014955141581594944
1683140185566796500,3.887796630859375,9.773484230041504,0.41515472531318665,0.06699903309345245
1683140185584639200,3.90563916015625,9.68794059753418,0.39541393518447876,-0.09092725813388824
1683140185602476300,3.923476318359375,9.69212818145752,0.36729827523231506,0.03768695518374443
1683140185620317700,3.941317626953125,9.754341125488281,0.36729827523231506,-0.014356935396790504
1683140185638157000,3.959156982421875,9.806983947753906,0.3720839321613312,-0.14715859293937683
1683140185655996000,3.976995849609375,9.716055870056152,0.3577269911766052,0.09032905846834183
1683140185673826300,3.994826416015625,9.807581901550293,0.4007977843284607,-0.15672987699508667
1683140185691674000,4.012674072265625,9.811769485473633,0.36251261830329895,-0.028115665540099144
1683140185709513200,4.03051318359375,9.754341125488281,0.38644084334373474,0.019142581149935722
1683140185727351300,4.048351318359375,9.664012908935547,0.36191442608833313,-0.07657032459974289
1683140185745189400,4.066189453125,9.80219841003418,0.38644084334373474,-0.08075776696205139
1683140185763033300,4.084033447265625,9.8207426071167,0.31465616822242737,0.014955141581594944
1683140185780870100,4.1018701171875,9.621540069580078,0.4097708761692047,-0.17706887423992157
1683140185798709000,4.119708984375,9.79262638092041,0.33858439326286316,-0.047258246690034866
1683140185816548000,4.137548095703125,9.811769485473633,0.39601215720176697,-0.023330021649599075
1683140185834387500,4.155387451171875,9.740582466125488,0.3523431420326233,-0.14297115802764893
1683140185852226800,4.173226806640625,9.76391315460205,0.39122650027275085,0.004785645287483931
1683140185870066000,4.19106591796875,9.854242324829102,0.33379876613616943,-0.028115665540099144
1683140185887904800,4.20890478515625,9.769296646118164,0.4103690981864929,-0.09511470049619675
1683140185905744000,4.226743896484375,9.79262638092041,0.33858439326286316,-0.01375873014330864
1683140185923582700,4.244582763671875,9.835697174072266,0.38644084334373474,-0.1423729509115219
1683140185941422000,4.262422119140625,9.887741088867188,0.3768695592880249,-0.10887342691421509
1683140185959261400,4.280261474609375,9.797411918640137,0.38644084334373474,0.019142581149935722
1683140185977088800,4.2980888671875,9.769296646118164,0.3475574851036072,-0.15732808411121368
1683140185994940000,4.31593994140625,9.835099220275879,0.4103690981864929,0.019740786403417587
1683140186012779000,4.333779052734375,9.797411918640137,0.30927231907844543,-0.1902294009923935
1683140186030615300,4.351615234375,9.76391315460205,0.38644084334373474,0.004785645287483931
1683140186048459800,4.369459716796875,9.712467193603516,0.3762713670730591,-0.1908276081085205
1683140186066296300,4.38729638671875,9.735198974609375,0.41515472531318665,0.03290131315588951
1683140186084132900,4.4051328125,9.773484230041504,0.39122650027275085,0.02392822690308094
1683140186101966300,4.42296630859375,9.77408218383789,0.41994038224220276,-0.1094716340303421
1683140186119813400,4.4408134765625,9.730413436889648,0.33858439326286316,0.014356935396790504
1683140186137653500,4.458653564453125,9.873384475708008,0.39601215720176697,-0.01375873014330864
1683140186155490000,4.476489990234375,9.807581901550293,0.381655216217041,-0.17587246000766754
1683140186173330700,4.49433056640625,9.735198974609375,0.3433700501918793,0.08554340898990631
1683140186191173400,4.51217333984375,9.807581901550293,0.39541393518447876,-0.1950150430202484
1683140186209009700,4.530009765625,9.806983947753906,0.38644084334373474,-0.028115665540099144
1683140186226849000,4.54784912109375,9.773484230041504,0.381655216217041,0.07657032459974289
1683140186244688100,4.565688232421875,9.66939640045166,0.39541393518447876,-0.1339980661869049
1683140186262527000,4.58352685546875,9.783055305480957,0.3529413342475891,-0.047258246690034866
1683140186280363500,4.601363525390625,9.787840843200684,0.3529413342475891,0.019142581149935722
1683140186298208500,4.61920849609375,9.664610862731934,0.4049852192401886,-0.17647066712379456
1683140186316044500,4.63704443359375,9.716055870056152,0.36251261830329895,0.03768695518374443
1683140186333883600,4.654883544921875,9.787840843200684,0.43908295035362244,0
1683140186351711000,4.6727109375,9.68794059753418,0.381655216217041,-0.05742774158716202
1683140186369562400,4.690562255859375,9.749555587768555,0.3577269911766052,-0.02871387079358101
1683140186387400400,4.708400390625,9.773484230041504,0.3481557071208954,-0.06161518394947052
1683140186405238300,4.72623828125,9.787840843200684,0.381655216217041,-0.047258246690034866
1683140186423082200,4.744082275390625,9.821340560913086,0.3290131092071533,-0.07597211748361588
1683140186440918500,4.76191845703125,9.731011390686035,0.39601215720176697,-0.08614161610603333
1683140186458758100,4.779758056640625,9.849455833435059,0.3290131092071533,-0.06161518394947052
1683140186476597000,4.797596923828125,9.764511108398438,0.41994038224220276,-0.09032905846834183
1683140186494437600,4.815437744140625,9.716055870056152,0.33858439326286316,0.1333998590707779
1683140186512274200,4.833274169921875,9.693324089050293,0.3858426511287689,-0.16689938306808472
1683140186530116000,4.8511162109375,9.81655502319336,0.3242274820804596,-0.1423729509115219
1683140186547953700,4.86895361328125,9.739984512329102,0.3529413342475891,0.06640082597732544
1683140186565792800,4.886792724609375,9.754940032958984,0.3523431420326233,-0.26201409101486206
1683140186583632000,4.9046318359375,9.70229721069336,0.41994038224220276,0.028115665540099144
1683140186601471000,4.922470947265625,9.835099220275879,0.33858439326286316,0.024526432156562805
1683140186619310600,4.940310546875,9.79801082611084,0.41515472531318665,-0.16151553392410278
1683140186637146400,4.958146484375,9.735198974609375,0.3290131092071533,0.04785645380616188
1683140186654992000,4.975991943359375,9.863813400268555,0.38644084334373474,-0.06640082597732544
1683140186672827600,4.99382763671875,9.893125534057617,0.37148571014404297,-0.23748764395713806
1683140186690666800,5.011666748046875,9.739984512329102,0.36251261830329895,0.12382857501506805
1683140186708506000,5.029506103515625,9.841081619262695,0.3858426511287689,-0.23748764395713806
1683140186726345200,5.04734521484375,9.878170013427734,0.39601215720176697,-0.03290131315588951
1683140186744184800,5.065184814453125,9.77826976776123,0.3242274820804596,-0.06161518394947052
1683140186762019000,5.08301904296875,9.759127616882324,0.41994038224220276,-0.038285162299871445
1683140186779862500,5.100862548828125,9.726225852966309,0.3236292600631714,-0.08075776696205139
1683140186797702000,5.118701904296875,9.759127616882324,0.4055834412574768,-0.04307080805301666
1683140186815541000,5.136541015625,9.739984512329102,0.4055834412574768,0.009571290574967861
1683140186833368600,5.15436865234375,9.745368003845215,0.39601215720176697,-0.08075776696205139
1683140186851219500,5.172219482421875,9.739984512329102,0.43908295035362244,0.019142581149935722
1683140186869054200,5.19005419921875,9.801599502563477,0.3768695592880249,0.02871387079358101
1683140186886898200,5.207898193359375,9.769296646118164,0.36191442608833313,-0.17587246000766754
1683140186904737000,5.225737060546875,9.759127616882324,0.4007977843284607,0.11425728350877762
1683140186922574300,5.24357421875,9.79262638092041,0.3529413342475891,-0.12382857501506805
1683140186940414500,5.26141455078125,9.830911636352539,0.381655216217041,-0.12323036789894104
1683140186958257200,5.279257080078125,9.773484230041504,0.41515472531318665,0.09032905846834183
1683140186976091100,5.297091064453125,9.726225852966309,0.357128769159317,-0.15254244208335876
1683140186993935600,5.314935546875,9.826126098632812,0.41994038224220276,-0.0568295381963253
1683140187011768600,5.3327685546875,9.753743171691895,0.3768695592880249,0.12382857501506805
1683140187029611300,5.350611328125,9.65503978729248,0.3762713670730591,-0.16271193325519562
1683140187047449600,5.36844970703125,9.77826976776123,0.3768695592880249,0.04785645380616188
1683140187065290800,5.386290771484375,9.835697174072266,0.4007977843284607,-0.09990034252405167
1683140187083128600,5.404128662109375,9.701699256896973,0.3433700501918793,0.004785645287483931
1683140187100968200,5.42196826171875,9.726225852966309,0.44386860728263855,-0.08135596662759781
1683140187118795800,5.439795654296875,9.696913719177246,0.381655216217041,0.10468599200248718
1683140187136646700,5.457646728515625,9.806983947753906,0.36251261830329895,-0.07118647545576096
1683140187154485800,5.47548583984375,9.854840278625488,0.3577269911766052,-0.12801600992679596
1683140187172320500,5.493320556640625,9.687342643737793,0.39601215720176697,0.11425728350877762
1683140187190167800,5.511167724609375,9.873982429504395,0.3242274820804596,-0.19920247793197632
1683140187208002800,5.5290029296875,9.840482711791992,0.43908295035362244,-0.07597211748361588
1683140187225842000,5.546842041015625,9.777671813964844,0.3242274820804596,0.0526420995593071
1683140187243671800,5.564671875,9.77408218383789,0.39062830805778503,-0.1902294009923935
1683140187261521000,5.58252099609375,9.859027862548828,0.3433700501918793,-0.023330021649599075
1683140187279361500,5.600361572265625,9.76391315460205,0.36251261830329895,0.03349951654672623
1683140187297197600,5.618197509765625,9.712467193603516,0.3284149169921875,-0.25244277715682983
1683140187315038200,5.6360380859375,9.744770050048828,0.39122650027275085,0.009571290574967861
1683140187332877300,5.653877197265625,9.868598937988281,0.3433700501918793,-0.09930214285850525
1683140187350714600,5.671714599609375,9.721440315246582,0.41515472531318665,-0.14297115802764893
1683140187368543200,5.689543212890625,9.701699256896973,0.3720839321613312,0.03768695518374443
1683140187386397700,5.707397705078125,9.897313117980957,0.381655216217041,-0.02273181453347206
1683140187404234000,5.72523388671875,9.807581901550293,0.3529413342475891,-0.19980068504810333
1683140187422073300,5.7430732421875,9.758528709411621,0.39122650027275085,0.12382857501506805
1683140187439912400,5.760912353515625,9.873982429504395,0.37148571014404297,-0.2805584669113159
1683140187457750000,5.77875,9.844670295715332,0.4055834412574768,0.04307080805301666
1683140187475597300,5.796597412109375,9.70229721069336,0.4007977843284607,-0.0526420995593071
1683140187493416400,5.81441650390625,9.773484230041504,0.39122650027275085,-0.06640082597732544
1683140187511271700,5.832271728515625,9.80219841003418,0.33858439326286316,-0.028115665540099144
1683140187529108500,5.8501083984375,9.768698692321777,0.4103690981864929,-0.03349951654672623
1683140187546947800,5.86794775390625,9.720842361450195,0.33379876613616943,-0.038285162299871445
1683140187564786700,5.88578662109375,9.773484230041504,0.36729827523231506,-0.0568295381963253
1683140187582625800,5.903625732421875,9.744770050048828,0.4103690981864929,-0.019142581149935722
1683140187600453400,5.921453369140625,9.797411918640137,0.36251261830329895,-0.06161518394947052
1683140187618290000,5.9392900390625,9.77408218383789,0.41994038224220276,-0.12382857501506805
1683140187636143600,5.9571435546875,9.720842361450195,0.3720839321613312,0.1094716340303421
1683140187653983000,5.97498291015625,9.697511672973633,0.3475574851036072,-0.14775680005550385
1683140187671818200,5.992818359375,9.711869239807129,0.39122650027275085,-0.03349951654672623
1683140187689661400,6.010661376953125,9.76391315460205,0.3577269911766052,0.04307080805301666
1683140187707500000,6.0285,9.698110580444336,0.3523431420326233,-0.20518454909324646
1683140187725339400,6.04633935546875,9.716055870056152,0.4342973232269287,0.06161518394947052
1683140187743179000,6.064178955078125,9.739984512329102,0.3481557071208954,0.07597211748361588
1683140187761017900,6.082017822265625,9.778867721557617,0.4342973232269287,-0.18065811693668365
1683140187778857500,6.099857421875,9.720842361450195,0.3529413342475891,0.11904292553663254
1683140187796696600,6.117696533203125,9.768698692321777,0.3768695592880249,-0.09511470049619675
1683140187814536000,6.135535888671875,9.840482711791992,0.3577269911766052,-0.13280165195465088
1683140187832374800,6.153374755859375,9.716055870056152,0.36729827523231506,0.019142581149935722
1683140187850214000,6.1712138671875,9.764511108398438,0.33858439326286316,-0.15732808411121368
1683140187868053200,6.18905322265625,9.783055305480957,0.4103690981864929,-0.047258246690034866
1683140187885878300,6.206878173828125,9.79262638092041,0.3290131092071533,-0.0568295381963253
1683140187903731500,6.2247314453125,9.711869239807129,0.3768695592880249,-0.02871387079358101
1683140187921570000,6.242570068359375,9.721440315246582,0.3044866919517517,-0.1381855010986328
1683140187939411200,6.2604111328125,9.711869239807129,0.4103690981864929,-0.03349951654672623
1683140187957249300,6.278249267578125,9.854242324829102,0.3194418251514435,-0.047258246690034866
1683140187975088000,6.296088134765625,9.688538551330566,0.4289134442806244,-0.14835500717163086
1683140187992927700,6.313927734375,9.759127616882324,0.36729827523231506,0.03349951654672623
1683140188010762500,6.331762451171875,9.854242324829102,0.4055834412574768,-0.008973085321485996
1683140188028606200,6.349606201171875,9.77408218383789,0.34277185797691345,-0.18065811693668365
1683140188046442000,6.36744189453125,9.777671813964844,0.38644084334373474,0.1094716340303421
1683140188064287200,6.385287353515625,9.854840278625488,0.3284149169921875,-0.23748764395713806
1683140188082123500,6.40312353515625,9.844670295715332,0.4007977843284607,-0.028115665540099144
1683140188099963000,6.420962890625,9.77826976776123,0.39122650027275085,-0.009571290574967861
1683140188117801700,6.4388017578125,9.806983947753906,0.38644084334373474,-0.137587308883667
1683140188135629600,6.456629638671875,9.81655502319336,0.38644084334373474,-0.008973085321485996
1683140188153480700,6.474480712890625,9.768698692321777,0.39122650027275085,0.0526420995593071
1683140188171316700,6.492316650390625,9.726225852966309,0.3188436031341553,-0.15254244208335876
1683140188189161700,6.51016162109375,9.868598937988281,0.381655216217041,-0.03290131315588951
1683140188206983400,6.5279833984375,9.735198974609375,0.41515472531318665,0.02392822690308094
1683140188224834300,6.545834228515625,9.826126098632812,0.3577269911766052,-0.137587308883667
1683140188242676500,6.563676513671875,9.830911636352539,0.44386860728263855,-0.047258246690034866
1683140188260508000,6.5815078125,9.735198974609375,0.36729827523231506,0.07597211748361588
1683140188278355200,6.599355224609375,9.726225852966309,0.36191442608833313,-0.1621137410402298
1683140188296192800,6.61719287109375,9.79262638092041,0.41994038224220276,0.04785645380616188
1683140188314034700,6.63503466796875,9.787840843200684,0.3242274820804596,-0.08075776696205139
1683140188331869200,6.652869140625,9.70229721069336,0.36729827523231506,-0.10049854964017868
1683140188349711600,6.670711669921875,9.720842361450195,0.4247260093688965,0.028115665540099144
1683140188367551000,6.688551025390625,9.68794059753418,0.3577269911766052,-0.019142581149935722
1683140188385378000,6.7063779296875,9.79262638092041,0.4007977843284607,-0.018544375896453857
1683140188403229200,6.724229248046875,9.721440315246582,0.3768695592880249,-0.038285162299871445
1683140188421069000,6.742069091796875,9.730413436889648,0.3768695592880249,0.04307080805301666
1683140188438907600,6.75990771484375,9.821340560913086,0.3529413342475891,-0.06161518394947052
1683140188456747000,6.7777470703125,9.797411918640137,0.4055834412574768,-0.10468599200248718
1683140188474586400,6.79558642578125,9.78245735168457,0.3290131092071533,0.04785645380616188
1683140188492413700,6.81341357421875,9.783653259277344,0.4055834412574768,-0.17587246000766754
1683140188510264800,6.831264892578125,9.787840843200684,0.36251261830329895,0.038285162299871445
1683140188528104200,6.849104248046875,9.744770050048828,0.3720839321613312,0.02871387079358101
1683140188545943000,6.866943115234375,9.678369522094727,0.33798620104789734,-0.1333998590707779
1683140188563782400,6.884782470703125,9.744770050048828,0.39122650027275085,-0.04307080805301666
1683140188581621500,6.90262158203125,9.868598937988281,0.30987054109573364,-0.04187439754605293
1683140188599460900,6.9204609375,9.621540069580078,0.42412781715393066,-0.15314064919948578
1683140188617290800,6.938290771484375,9.773484230041504,0.36251261830329895,0.02392822690308094
1683140188635140000,6.95614013671875,9.849455833435059,0.39122650027275085,-0.023330021649599075
1683140188652978400,6.973978515625,9.740582466125488,0.3529413342475891,-0.11425728350877762
1683140188670817800,6.99181787109375,9.768698692321777,0.3768695592880249,0.014356935396790504
1683140188688657000,7.009656982421875,9.859625816345215,0.3433700501918793,-0.137587308883667
1683140188706495700,7.027495849609375,9.811769485473633,0.4055834412574768,-0.01375873014330864
1683140188724335400,7.04533544921875,9.845269203186035,0.3720839321613312,-0.137587308883667
1683140188742169600,7.063169677734375,9.81655502319336,0.3720839321613312,-0.09032905846834183
1683140188760014000,7.08101416015625,9.811769485473633,0.3577269911766052,-0.09990034252405167
1683140188777857800,7.09885791015625,9.80219841003418,0.4007977843284607,-0.052043892443180084
1683140188795692500,7.116692626953125,9.730413436889648,0.33379876613616943,-0.004785645287483931
1683140188813530400,7.1345302734375,9.740582466125488,0.4007977843284607,-0.08554340898990631
1683140188831372000,7.1523720703125,9.754940032958984,0.36729827523231506,-0.12861421704292297
1683140188849209600,7.170209716796875,9.792028427124023,0.3768695592880249,0.04307080805301666
1683140188867049000,7.188049072265625,9.716654777526855,0.4342973232269287,-0.14775680005550385
1683140188884888600,7.205888671875,9.720842361450195,0.38644084334373474,0.0568295381963253
1683140188902719700,7.2237197265625,9.754341125488281,0.36251261830329895,-0.019142581149935722
1683140188920566800,7.24156689453125,9.806983947753906,0.41515472531318665,-0.08075776696205139
1683140188938403300,7.2594033203125,9.735198974609375,0.3433700501918793,0.04785645380616188
1683140188956248300,7.277248291015625,9.864411354064941,0.381655216217041,-0.10887342691421509
1683140188974084600,7.295084716796875,9.81655502319336,0.4342973232269287,-0.0568295381963253
1683140188991930000,7.31293017578125,9.725627899169922,0.3433700501918793,0.04307080805301666
1683140189009763000,7.33076318359375,9.807581901550293,0.4103690981864929,-0.1950150430202484
1683140189027590000,7.34858984375,9.787840843200684,0.4055834412574768,0.03349951654672623
1683140189045441500,7.366441650390625,9.735198974609375,0.33858439326286316,0.07597211748361588
1683140189063280400,7.3842802734375,9.616754531860352,0.3810569941997528,-0.15314064919948578
1683140189081117200,7.4021171875,9.720842361450195,0.3720839321613312,-0.009571290574967861
1683140189098962000,7.4199619140625,9.830911636352539,0.33379876613616943,-0.08015955984592438
1683140189116798500,7.437798583984375,9.68794059753418,0.4534398913383484,-0.07657032459974289
1683140189134637600,7.455637451171875,9.620942115783691,0.3433700501918793,0.08015955984592438
1683140189152476700,7.4734765625,9.750154495239258,0.41515472531318665,-0.08554340898990631
1683140189170316300,7.49131640625,9.79681396484375,0.3481557071208954,0.05742774158716202
1683140189188152000,7.509152099609375,9.78843879699707,0.39601215720176697,-0.1663011759519577
1683140189205997600,7.52699755859375,9.81117057800293,0.3529413342475891,0.019740786403417587
1683140189223833600,7.54483349609375,9.811769485473633,0.38644084334373474,-0.09990034252405167
1683140189241673000,7.5626728515625,9.859625816345215,0.36251261830329895,-0.1136590763926506
1683140189259512300,7.58051220703125,9.79262638092041,0.4007977843284607,0.019142581149935722
1683140189277344500,7.598344482421875,9.821340560913086,0.3194418251514435,-0.1663011759519577
1683140189295185200,7.61618505859375,9.811769485473633,0.4007977843284607,-0.08554340898990631
1683140189313030100,7.634030029296875,9.8207426071167,0.3194418251514435,0.0526420995593071
1683140189330868200,7.6518681640625,9.68375301361084,0.4049852192401886,-0.16689938306808472
1683140189348709400,7.66970947265625,9.81655502319336,0.3577269911766052,-0.11844471842050552
1683140189366547500,7.68754736328125,9.815957069396973,0.3768695592880249,0.04307080805301666
1683140189384386800,7.70538671875,9.707681655883789,0.3858426511287689,-0.20039889216423035
1683140189402207700,7.723207763671875,9.749555587768555,0.381655216217041,0.06699903309345245
1683140189420068000,7.741068115234375,9.811769485473633,0.3290131092071533,-0.08075776696205139
1683140189437901300,7.7589013671875,9.797411918640137,0.41515472531318665,-0.028115665540099144
1683140189455746800,7.776746826171875,9.726225852966309,0.2955136001110077,-0.11425728350877762
1683140189473583000,7.7945830078125,9.787840843200684,0.41994038224220276,-0.06161518394947052
1683140189491422200,7.812422119140625,9.859625816345215,0.4007977843284607,-0.07537391036748886
1683140189509247700,7.830247802734375,9.773484230041504,0.38644084334373474,-0.04247260093688965
1683140189527103500,7.848103515625,9.773484230041504,0.3720839321613312,-0.09032905846834183
1683140189544940300,7.865940185546875,9.882955551147461,0.39601215720176697,-0.07058826833963394
1683140189562779600,7.883779541015625,9.744770050048828,0.3290131092071533,-0.019142581149935722
1683140189580618500,7.901618408203125,9.68794059753418,0.4007977843284607,-0.08614161610603333
1683140189598457900,7.919457763671875,9.750154495239258,0.4055834412574768,-0.08554340898990631
1683140189616297000,7.937296875,9.78245735168457,0.33379876613616943,0.03349951654672623
1683140189634124500,7.95512451171875,9.688538551330566,0.4534398913383484,-0.11964113265275955
1683140189651975400,7.972975341796875,9.67777156829834,0.381655216217041,0.08554340898990631
1683140189669814800,7.990814697265625,9.81655502319336,0.36251261830329895,-0.028115665540099144
1683140189687654000,8.00865380859375,9.707083702087402,0.4055834412574768,-0.062213387340307236
1683140189705492000,8.026491943359375,9.711270332336426,0.3481557071208954,0.0568295381963253
1683140189723334000,8.044333984375,9.864411354064941,0.3481557071208954,-0.17527425289154053
1683140189741171500,8.06217138671875,9.826126098632812,0.44386860728263855,-0.047258246690034866
1683140189759004200,8.080004150390625,9.7064847946167,0.3290131092071533,0.08075776696205139
1683140189776850000,8.097849853515624,9.78843879699707,0.4247260093688965,-0.20937198400497437
1683140189794678300,8.11567822265625,9.76391315460205,0.381655216217041,0.08614161610603333
1683140189812516900,8.133516845703125,9.783055305480957,0.3529413342475891,-0.018544375896453857
1683140189830367700,8.15136767578125,9.735796928405762,0.3332005441188812,-0.22372891008853912
1683140189848207400,8.169207275390624,9.725627899169922,0.381655216217041,0.07118647545576096
1683140189866046200,8.187046142578126,9.81655502319336,0.3194418251514435,-0.13280165195465088
1683140189883885300,8.20488525390625,9.66939640045166,0.4247260093688965,-0.08135596662759781
1683140189901725000,8.222724853515626,9.849455833435059,0.2955136001110077,-0.023330021649599075
1683140189919565000,8.24056494140625,9.81236743927002,0.4295116662979126,-0.15672987699508667
1683140189937401600,8.258401611328125,9.787242889404297,0.3194418251514435,0.11485548317432404
1683140189955245800,8.276245849609374,9.740582466125488,0.41515472531318665,-0.062213387340307236
1683140189973082000,8.29408203125,9.940383911132812,0.31465616822242737,-0.1417747437953949
1683140189990919400,8.31191943359375,9.826126098632812,0.4007977843284607,-0.08075776696205139
1683140190008760300,8.32976025390625,9.840482711791992,0.36729827523231506,-0.06640082597732544
1683140190026599400,8.347599365234375,9.783055305480957,0.381655216217041,-0.09990034252405167
1683140190044438800,8.365438720703125,9.80219841003418,0.3768695592880249,-0.09990034252405167
1683140190062278000,8.38327783203125,9.849455833435059,0.38225340843200684,0.08614161610603333
1683140190080117200,8.4011171875,9.707681655883789,0.31405797600746155,-0.23330020904541016
1683140190097948200,8.4189482421875,9.783055305480957,0.4007977843284607,-0.02392822690308094
1683140190115796000,8.4367958984375,9.835697174072266,0.3529413342475891,-0.0849452018737793
1683140190133635000,8.454635009765624,9.735796928405762,0.4103690981864929,-0.1094716340303421
1683140190151475200,8.47247509765625,9.721440315246582,0.4103690981864929,0
1683140190169313500,8.4903134765625,9.892526626586914,0.3768695592880249,0.0005982056609354913
1683140190187153200,8.508153076171874,9.778867721557617,0.36251261830329895,-0.16151553392410278
1683140190204988400,8.525988525390625,9.7064847946167,0.41096729040145874,0.1663011759519577
1683140190222831600,8.54383154296875,9.811769485473633,0.3290131092071533,-0.18065811693668365
1683140190240668400,8.56166845703125,9.882955551147461,0.39601215720176697,-0.0849452018737793
1683140190258509800,8.579509765625,9.735198974609375,0.39601215720176697,0.06640082597732544
1683140190276337400,8.59733740234375,9.759725570678711,0.3720839321613312,-0.18544375896453857
1683140190294179300,8.615179443359375,9.81655502319336,0.4295116662979126,0.02392822690308094
1683140190312027600,8.633027587890625,9.735198974609375,0.38644084334373474,0.08554340898990631
1683140190329866800,8.65086669921875,9.683155059814453,0.3475574851036072,-0.14297115802764893
1683140190347706400,8.668706298828125,9.854242324829102,0.381655216217041,0.019740786403417587
1683140190365545700,8.686545654296875,9.830911636352539,0.3720839321613312,-0.09451649338006973
1683140190383385000,8.704385009765625,9.68794059753418,0.36729827523231506,-0.009571290574967861
1683140190401221000,8.72222119140625,9.787840843200684,0.4342973232269287,-0.03768695518374443
1683140190419063600,8.7400634765625,9.739984512329102,0.3720839321613312,0.019142581149935722
1683140190436901000,8.757901123046874,9.826126098632812,0.3433700501918793,-0.09930214285850525
1683140190454746000,8.77574609375,9.731011390686035,0.38644084334373474,-0.05742774158716202
1683140190472580900,8.793580810546874,9.8207426071167,0.3481557071208954,0.005383851006627083
1683140190490420000,8.811419921875,9.854840278625488,0.33379876613616943,-0.19920247793197632
1683140190508259300,8.82925927734375,9.730413436889648,0.4055834412574768,0.04247260093688965
1683140190526098700,8.8470986328125,9.754341125488281,0.3529413342475891,-0.09032905846834183
1683140190543938000,8.86493798828125,9.726225852966309,0.43908295035362244,0
1683140190561773600,8.882773681640625,9.758528709411621,0.33858439326286316,0.10468599200248718
1683140190579616500,8.900616455078126,9.77408218383789,0.41515472531318665,-0.15254244208335876
1683140190597455000,8.918455078125,9.863813400268555,0.31465616822242737,0.014955141581594944
1683140190615296000,8.9362958984375,9.726225852966309,0.4247260093688965,-0.1333998590707779
1683140190633134000,8.954134033203125,9.859027862548828,0.36251261830329895,0.0005982056609354913
1683140190650974000,8.971973876953125,9.711869239807129,0.41515472531318665,-0.08614161610603333
1683140190668810500,8.989810546875,9.707083702087402,0.36729827523231506,-0.004785645287483931
1683140190686655000,9.007655029296876,9.878170013427734,0.3720839321613312,0.019740786403417587
1683140190704491000,9.025490966796875,9.830911636352539,0.3577269911766052,-0.19980068504810333
1683140190722331000,9.043330810546875,9.758528709411621,0.38644084334373474,0.11904292553663254
1683140190740170500,9.06117041015625,9.878767967224121,0.3529413342475891,-0.22791635990142822
1683140190758009300,9.07900927734375,9.840482711791992,0.4055834412574768,-0.07118647545576096
1683140190775848200,9.09684814453125,9.81117057800293,0.381655216217041,0.02392822690308094
1683140190793688800,9.114688720703125,9.78843879699707,0.39601215720176697,-0.1423729509115219
1683140190811527200,9.132527099609375,9.768698692321777,0.3768695592880249,0.038285162299871445
1683140190829362000,9.15036181640625,9.849455833435059,0.381655216217041,-0.008973085321485996
1683140190847210000,9.1682099609375,9.70229721069336,0.36251261830329895,-0.09092725813388824
1683140190865045000,9.186044921875,9.863813400268555,0.3481557071208954,-0.018544375896453857
1683140190882881500,9.203881591796875,9.821340560913086,0.4295116662979126,-0.16151553392410278
1683140190900723200,9.22172314453125,9.749555587768555,0.3481557071208954,0.07178468257188797
1683140190918565000,9.239565185546875,9.745368003845215,0.4295116662979126,-0.12382857501506805
1683140190936402000,9.25740185546875,9.797411918640137,0.41994038224220276,0
1683140190954241000,9.275240966796876,9.77826976776123,0.30508488416671753,-0.028115665540099144
1683140190972081200,9.2930810546875,9.783055305480957,0.4055834412574768,-0.10468599200248718
1683140190989919000,9.3109189453125,9.749555587768555,0.3529413342475891,-0.02871387079358101
1683140191007758600,9.328758544921875,9.754940032958984,0.381655216217041,-0.07597211748361588
1683140191025597700,9.34659765625,9.773484230041504,0.4295116662979126,0.06699903309345245
1683140191043437000,9.36443701171875,9.697511672973633,0.3768695592880249,-0.06699903309345245
1683140191061276700,9.382276611328125,9.735198974609375,0.38644084334373474,-0.019142581149935722
1683140191079115800,9.40011572265625,9.768698692321777,0.3768695592880249,0.0526420995593071
1683140191096955400,9.417955322265625,9.79262638092041,0.3768695592880249,-0.12382857501506805
1683140191114794000,9.4357939453125,9.701699256896973,0.3720839321613312,0.11904292553663254
1683140191132633600,9.453633544921875,9.81655502319336,0.381655216217041,-0.13280165195465088
1683140191150473200,9.47147314453125,9.854840278625488,0.36251261830329895,-0.08973085135221481
1683140191168312600,9.4893125,9.768698692321777,0.41515472531318665,0.04785645380616188
1683140191186151700,9.507151611328124,9.659226417541504,0.33858439326286316,-0.07657032459974289
1683140191203989200,9.5249892578125,9.826126098632812,0.38644084334373474,-0.10887342691421509
1683140191221827600,9.54282763671875,9.839884757995605,0.3194418251514435,0.06699903309345245
1683140191239669500,9.56066943359375,9.635896682739258,0.4001995921134949,-0.19621145725250244
1683140191257508900,9.5785087890625,9.840482711791992,0.3481557071208954,-0.09451649338006973
1683140191275347700,9.59634765625,9.815957069396973,0.4007977843284607,0.019142581149935722
1683140191293187000,9.61418701171875,9.68375301361084,0.36191442608833313,-0.14297115802764893
1683140191311026400,9.6320263671875,9.744770050048828,0.4103690981864929,0.02392822690308094
1683140191328865800,9.64986572265625,9.815957069396973,0.3242274820804596,0.014955141581594944
1683140191346705000,9.667704833984375,9.70229721069336,0.38644084334373474,-0.14297115802764893
1683140191364544000,9.6855439453125,9.745368003845215,0.3242274820804596,-0.09990034252405167
1683140191382383400,9.70338330078125,9.76391315460205,0.3720839321613312,-0.004785645287483931
1683140191400223000,9.721222900390625,9.807581901550293,0.36251261830329895,-0.20458634197711945
1683140191418050300,9.73905029296875,9.720842361450195,0.39601215720176697,0.019142581149935722
1683140191435898400,9.7568984375,9.80219841003418,0.3481557071208954,-0.11425728350877762
1683140191453743400,9.774743408203125,9.849455833435059,0.4103690981864929,-0.028115665540099144
1683140191471580000,9.792579833984375,9.77826976776123,0.30508488416671753,-0.1094716340303421
1683140191489418800,9.810418701171875,9.768698692321777,0.4295116662979126,0.014356935396790504
1683140191507258000,9.828258056640625,9.897313117980957,0.3529413342475891,-0.0849452018737793
1683140191525097200,9.84609716796875,9.878767967224121,0.41994038224220276,-0.11844471842050552
1683140191542936800,9.863936767578124,9.783055305480957,0.4055834412574768,0.04785645380616188
1683140191560776000,9.88177587890625,9.79262638092041,0.39122650027275085,-0.0568295381963253
1683140191578615300,9.899615234375,9.773484230041504,0.3577269911766052,-0.052043892443180084
1683140191596443600,9.917443603515625,9.835099220275879,0.381655216217041,-0.028115665540099144
1683140191614294000,9.9352939453125,9.707083702087402,0.38644084334373474,-0.08614161610603333
1683140191632133400,9.95313330078125,9.849455833435059,0.3481557071208954,0.06281159073114395
1683140191649972200,9.97097216796875,9.769296646118164,0.4486542344093323,-0.14297115802764893
1683140191667811600,9.9888115234375,9.763314247131348,0.3529413342475891,0.11904292553663254
1683140191685651000,10.00665087890625,9.740582466125488,0.4247260093688965,-0.11904292553663254
1683140191703490300,10.024490234375,9.730413436889648,0.39122650027275085,0.02392822690308094
1683140191721329200,10.0423291015625,9.79262638092041,0.3433700501918793,-0.004187439568340778
1683140191739169000,10.0601689453125,9.76391315460205,0.4055834412574768,-0.06640082597732544
1683140191757008000,10.0780078125,9.797411918640137,0.3768695592880249,-0.023330021649599075
1683140191774847500,10.095847412109375,9.76391315460205,0.3433700501918793,-0.004785645287483931
1683140191792686600,10.1136865234375,9.845269203186035,0.4055834412574768,-0.13280165195465088
1683140191810525700,10.131525634765625,9.759127616882324,0.381655216217041,0.02392822690308094
1683140191828365300,10.149365234375,9.811769485473633,0.3768695592880249,0.0005982056609354913
1683140191846204200,10.1672041015625,9.716654777526855,0.36729827523231506,-0.10468599200248718
1683140191864043500,10.18504345703125,9.787840843200684,0.3768695592880249,-0.06640082597732544
1683140191881879000,10.202879150390626,9.849455833435059,0.3242274820804596,-0.004187439568340778
1683140191899721700,10.2207216796875,9.664610862731934,0.4049852192401886,-0.16689938306808472
1683140191917562400,10.238562255859375,9.773484230041504,0.3433700501918793,0
1683140191935401000,10.25640087890625,9.811769485473633,0.4055834412574768,0.0005982056609354913
1683140191953239600,10.274239501953126,9.740582466125488,0.36729827523231506,-0.07597211748361588
1683140191971079200,10.2920791015625,9.70229721069336,0.3768695592880249,0.014356935396790504
1683140191988915500,10.30991552734375,9.850054740905762,0.3194418251514435,-0.09930214285850525
1683140192006760400,10.327760498046874,9.80219841003418,0.4103690981864929,-0.047258246690034866
1683140192024596700,10.3455966796875,9.864411354064941,0.3290131092071533,-0.13280165195465088
1683140192042437600,10.363437744140626,9.77826976776123,0.4055834412574768,-0.08554340898990631
1683140192060275500,10.381275390625,9.830911636352539,0.36729827523231506,-0.0849452018737793
1683140192078114600,10.399114501953125,9.806983947753906,0.4055834412574768,-0.06161518394947052
1683140192095954200,10.4169541015625,9.768698692321777,0.33379876613616943,-0.018544375896453857
1683140192113793300,10.434793212890625,9.745368003845215,0.4007977843284607,-0.06640082597732544
1683140192131632600,10.452632568359375,9.769296646118164,0.33858439326286316,-0.18065811693668365
1683140192149472000,10.470471923828125,9.825528144836426,0.3768695592880249,0.05742774158716202
1683140192167310600,10.488310546875,9.712467193603516,0.41934216022491455,-0.22432711720466614
1683140192185151000,10.50615087890625,9.76391315460205,0.381655216217041,0.05742774158716202
1683140192202989800,10.52398974609375,9.797411918640137,0.381655216217041,-0.028115665540099144
1683140192220829200,10.5418291015625,9.811769485473633,0.41994038224220276,-0.09032905846834183
1683140192238668300,10.559668212890625,9.716055870056152,0.3290131092071533,0.02392822690308094
1683140192256507100,10.577507080078124,9.845269203186035,0.39122650027275085,-0.052043892443180084
1683140192274346500,10.595346435546874,9.840482711791992,0.39601215720176697,-0.10408778488636017
1683140192292186000,10.61318603515625,9.768698692321777,0.3529413342475891,0.0526420995593071
1683140192310025200,10.631025146484374,9.78843879699707,0.4055834412574768,-0.17108681797981262
1683140192327863000,10.648863037109376,9.797411918640137,0.4055834412574768,0.02392822690308094
1683140192345710300,10.66671044921875,9.79681396484375,0.3577269911766052,0.038285162299871445
1683140192363542800,10.684542724609376,9.688538551330566,0.4007977843284607,-0.1333998590707779
1683140192381382100,10.702382080078126,9.773484230041504,0.3481557071208954,-0.047258246690034866
1683140192399221200,10.72022119140625,9.81117057800293,0.33858439326286316,-0.008973085321485996
1683140192417060600,10.738060546875,9.688538551330566,0.4342973232269287,-0.12921242415905
1683140192434900000,10.75589990234375,9.67777156829834,0.36729827523231506,0.09032905846834183
1683140192452739600,10.773739501953125,9.850054740905762,0.4103690981864929,-0.06161518394947052
1683140192470578700,10.79157861328125,9.735198974609375,0.381655216217041,-0.02871387079358101
1683140192488417800,10.809417724609375,9.749555587768555,0.33379876613616943,-0.06161518394947052
1683140192506257000,10.8272568359375,9.811769485473633,0.3290131092071533,-0.11844471842050552
1683140192524096300,10.84509619140625,9.735796928405762,0.4007977843284607,-0.06699903309345245
1683140192541932500,10.8629326171875,9.759127616882324,0.33379876613616943,-0.06640082597732544
1683140192559774700,10.880774658203125,9.735198974609375,0.4295116662979126,0.004785645287483931
1683140192577613000,10.898613037109374,9.749555587768555,0.3481557071208954,-0.02392822690308094
1683140192595454500,10.916454345703125,9.707083702087402,0.39122650027275085,-0.04307080805301666
1683140192613292800,10.934292724609374,9.806385040283203,0.3290131092071533,0.010169495828449726
1683140192631132200,10.952132080078124,9.806983947753906,0.4103690981864929,-0.1094716340303421
1683140192648971500,10.969971435546874,9.839884757995605,0.30508488416671753,-0.07058826833963394
1683140192666810600,10.987810546875,9.683155059814453,0.4103690981864929,-0.08135596662759781
1683140192684650000,11.00564990234375,9.873384475708008,0.36729827523231506,-0.06580262631177902
1683140192702488800,11.02348876953125,9.806983947753906,0.39122650027275085,-0.07118647545576096
1683140192720328400,11.041328369140626,9.759127616882324,0.3529413342475891,-0.02871387079358101
1683140192738167800,11.059167724609376,9.80219841003418,0.381655216217041,-0.07597211748361588
1683140192756006700,11.077006591796875,9.783653259277344,0.3242274820804596,-0.18544375896453857
1683140192773846000,11.094845947265625,9.792028427124023,0.36729827523231506,0.08614161610603333
1683140192791685400,11.112685302734375,9.741181373596191,0.4001995921134949,-0.28115665912628174
1683140192809524500,11.1305244140625,9.783055305480957,0.381655216217041,0.0526420995593071
1683140192827363000,11.148363037109375,9.835099220275879,0.39122650027275085,-0.008973085321485996
1683140192845204000,11.166203857421875,9.806983947753906,0.4247260093688965,-0.11904292553663254
1683140192863042300,11.184042236328125,9.716055870056152,0.3242274820804596,0.009571290574967861
1683140192880881700,11.201881591796875,9.81655502319336,0.39601215720176697,-0.023330021649599075
1683140192898721300,11.21972119140625,9.773484230041504,0.4007977843284607,-0.07597211748361588
1683140192916560400,11.237560302734375,9.825528144836426,0.3529413342475891,0.024526432156562805
1683140192934397000,11.25539697265625,9.77408218383789,0.4342973232269287,-0.17168502509593964
1683140192952241200,11.2732412109375,9.753743171691895,0.3678964674472809,0.14297115802764893
1683140192970078500,11.291078369140624,9.731011390686035,0.4103690981864929,-0.09990034252405167
1683140192987917000,11.3089169921875,9.696913719177246,0.4103690981864929,0.052043892443180084
1683140193005750800,11.326750732421875,9.721440315246582,0.30508488416671753,-0.08554340898990631
1683140193023595500,11.344595458984376,9.711869239807129,0.41994038224220276,-0.04307080805301666
1683140193041421800,11.362421875,9.792028427124023,0.3720839321613312,0.04307080805301666
1683140193059270700,11.380270751953125,9.769296646118164,0.381655216217041,-0.1663011759519577
1683140193077098500,11.398098388671874,9.783055305480957,0.4301098585128784,0.09092725813388824
1683140193094953000,11.415952880859376,9.678369522094727,0.381655216217041,-0.02392822690308094
1683140193112792000,11.4337919921875,9.759127616882324,0.381655216217041,-0.04307080805301666
1683140193130631400,11.45163134765625,9.730413436889648,0.33858439326286316,-0.014356935396790504
1683140193148470500,11.469470458984375,9.716654777526855,0.4055834412574768,-0.09092725813388824
1683140193166310100,11.48731005859375,9.79681396484375,0.3242274820804596,0.02871387079358101
1683140193184149500,11.5051494140625,9.66939640045166,0.43908295035362244,-0.13878370821475983
1683140193201988400,11.52298828125,9.730413436889648,0.3481557071208954,0.0526420995593071
1683140193219827500,11.540827392578125,9.811769485473633,0.381655216217041,-0.0568295381963253
1683140193237664000,11.5586640625,9.749555587768555,0.3529413342475891,-0.052043892443180084
1683140193255509200,11.57650927734375,9.68794059753418,0.39601215720176697,0.052043892443180084
1683140193273342500,11.594342529296876,9.902098655700684,0.30987054109573364,-0.1944168359041214
1683140193291187700,11.612187744140625,9.797411918640137,0.4247260093688965,-0.047258246690034866
1683140193309012700,11.6300126953125,9.839884757995605,0.3481557071208954,-0.0568295381963253
1683140193326863000,11.647863037109374,9.745368003845215,0.4007977843284607,-0.09511470049619675
1683140193344690700,11.665690673828125,9.839884757995605,0.3481557071208954,-0.052043892443180084
1683140193362541600,11.68354150390625,9.845269203186035,0.39601215720176697,-0.09451649338006973
1683140193380381000,11.701380859375,9.739984512329102,0.31465616822242737,-0.014356935396790504
1683140193398220500,11.719220458984376,9.759725570678711,0.39122650027275085,-0.12382857501506805
1683140193416060200,11.73706005859375,9.81236743927002,0.3720839321613312,-0.18544375896453857
1683140193433898500,11.7548984375,9.792028427124023,0.3529413342475891,0.07657032459974289
1683140193451741000,11.772740966796874,9.735796928405762,0.41994038224220276,-0.1908276081085205
1683140193469563000,11.79056298828125,9.768698692321777,0.38644084334373474,0.06699903309345245
1683140193487418600,11.808418701171876,9.797411918640137,0.3433700501918793,-0.047258246690034866
1683140193505256700,11.826256591796875,9.830911636352539,0.41994038224220276,-0.07597211748361588
1683140193523083500,11.84408349609375,9.696913719177246,0.3433700501918793,0.052043892443180084
1683140193540925400,11.861925537109375,9.873982429504395,0.381655216217041,-0.12323036789894104
1683140193558774000,11.87977392578125,9.864411354064941,0.4486542344093323,-0.06640082597732544
1683140193576612900,11.89761279296875,9.730413436889648,0.36251261830329895,0.08554340898990631
1683140193594440200,11.915440185546874,9.80219841003418,0.4342973232269287,-0.08075776696205139
1683140193612282400,11.933282470703125,9.797411918640137,0.41515472531318665,0
1683140193630131000,11.951130859375,9.739984512329102,0.3290131092071533,0
1683140193647970000,11.968969970703125,9.797411918640137,0.39601215720176697,-0.09511470049619675
1683140193665809000,11.986808837890624,9.811769485473633,0.381655216217041,-0.0568295381963253
1683140193683648800,12.004648681640624,9.77826976776123,0.3433700501918793,-0.004785645287483931
1683140193701487900,12.02248779296875,9.692726135253906,0.43908295035362244,-0.08614161610603333
1683140193719327200,12.0403271484375,9.749555587768555,0.33858439326286316,0.02392822690308094
1683140193737166000,12.058166015625,9.859625816345215,0.38644084334373474,-0.18963119387626648
1683140193755005200,12.076005126953126,9.725627899169922,0.36251261830329895,0.06161518394947052
1683140193772844800,12.0938447265625,9.697511672973633,0.36729827523231506,-0.09571290761232376
1683140193790684000,12.111683837890626,9.77826976776123,0.3529413342475891,-0.09990034252405167
1683140193808523300,12.129523193359375,9.744770050048828,0.3768695592880249,0.02871387079358101
1683140193826362400,12.1473623046875,9.759725570678711,0.3433700501918793,-0.17108681797981262
1683140193844201500,12.165201416015625,9.739984512329102,0.4295116662979126,0.009571290574967861
1683140193862036200,12.1830361328125,9.777671813964844,0.3433700501918793,0.07657032459974289
1683140193879880200,12.200880126953125,9.769296646118164,0.4103690981864929,-0.15732808411121368
1683140193897707800,12.218707763671874,9.783055305480957,0.30987054109573364,0.009571290574967861
1683140193915558700,12.23655859375,9.77408218383789,0.38644084334373474,-0.12382857501506805
1683140193933398300,12.254398193359375,9.878767967224121,0.36729827523231506,-0.12801600992679596
1683140193951237400,12.2722373046875,9.730413436889648,0.38644084334373474,-0.014356935396790504
1683140193969076500,12.290076416015625,9.76391315460205,0.3768695592880249,-0.06161518394947052
1683140193986915800,12.307915771484375,9.825528144836426,0.4007977843284607,-0.004187439568340778
1683140194004743200,12.3257431640625,9.744770050048828,0.3194418251514435,-0.052043892443180084
1683140194022594600,12.343594482421874,9.806983947753906,0.3768695592880249,-0.1094716340303421
1683140194040419300,12.36141943359375,9.850054740905762,0.33858439326286316,-0.14715859293937683
1683140194058275800,12.37927587890625,9.806983947753906,0.39122650027275085,-0.052043892443180084
1683140194076111600,12.397111572265626,9.769296646118164,0.4103690981864929,-0.08554340898990631
1683140194093951500,12.414951416015626,9.797411918640137,0.3720839321613312,-0.04247260093688965
1683140194111786800,12.432786865234375,9.759127616882324,0.39122650027275085,-0.052043892443180084
1683140194129629700,12.450629638671876,9.892526626586914,0.3774677813053131,0.04366901144385338
1683140194147469300,12.46846923828125,9.79801082611084,0.3433700501918793,-0.21415762603282928
1683140194165308200,12.48630810546875,9.777671813964844,0.4061816334724426,0.1381855010986328
1683140194183147800,12.504147705078125,9.806983947753906,0.3720839321613312,-0.15672987699508667
1683140194200986600,12.521986572265625,9.850054740905762,0.39122650027275085,-0.08973085135221481
1683140194218826200,12.539826171875,9.81117057800293,0.41096729040145874,0.08614161610603333
1683140194236665300,12.557665283203125,9.726225852966309,0.381655216217041,-0.14297115802764893
1683140194254504700,12.575504638671875,9.773484230041504,0.3768695592880249,-0.014356935396790504
1683140194272342500,12.593342529296875,9.81117057800293,0.3768695592880249,0.08135596662759781
1683140194290181000,12.61118115234375,9.66939640045166,0.36191442608833313,-0.17168502509593964
1683140194308025000,12.629025146484375,9.806983947753906,0.3577269911766052,-0.004187439568340778
1683140194325861400,12.646861328125,9.835697174072266,0.4247260093688965,-0.06161518394947052
1683140194343700700,12.66470068359375,9.711270332336426,0.36729827523231506,0
1683140194361539800,12.682539794921874,9.759127616882324,0.39601215720176697,-0.0568295381963253
1683140194379379500,12.70037939453125,9.720842361450195,0.381655216217041,0
1683140194397218800,12.71821875,9.79262638092041,0.36251261830329895,-0.11425728350877762
1683140194415057700,12.7360576171875,9.749555587768555,0.3529413342475891,0.019142581149935722
1683140194432897300,12.753897216796876,9.640682220458984,0.3762713670730591,-0.1339980661869049
1683140194450736400,12.771736328125,9.721440315246582,0.3577269911766052,-0.02871387079358101
1683140194468575700,12.78957568359375,9.787840843200684,0.41515472531318665,0.03349951654672623
1683140194486414600,12.80741455078125,9.678369522094727,0.36729827523231506,-0.062213387340307236
1683140194504252200,12.825252197265625,9.70229721069336,0.38644084334373474,0.004785645287483931
1683140194522093600,12.843093505859375,9.835099220275879,0.3194418251514435,-0.06161518394947052
1683140194539932400,12.860932373046875,9.797411918640137,0.41515472531318665,-0.07118647545576096
1683140194557771500,12.878771484375,9.81655502319336,0.30987054109573364,-0.10887342691421509
1683140194575617000,12.896616943359374,9.683155059814453,0.4342973232269287,-0.014955141581594944
1683140194593438700,12.914438720703124,9.93978500366211,0.3481557071208954,-0.05623133108019829
1683140194611289600,12.93228955078125,9.830911636352539,0.41515472531318665,-0.12323036789894104
1683140194629128700,12.950128662109375,9.759127616882324,0.33379876613616943,0.02392822690308094
1683140194646968000,12.967968017578125,9.81655502319336,0.381655216217041,-0.1136590763926506
1683140194664807400,12.985807373046875,9.840482711791992,0.33858439326286316,-0.18544375896453857
1683140194682646800,13.003646728515625,9.768099784851074,0.381655216217041,0.09511470049619675
1683140194700485600,13.021485595703124,9.736394882202148,0.4097708761692047,-0.26201409101486206
1683140194718326500,13.039326416015625,9.754341125488281,0.38644084334373474,0.038285162299871445
1683140194736161300,13.057161376953125,9.835099220275879,0.381655216217041,0.0005982056609354913
1683140194754005500,13.075005615234375,9.826126098632812,0.4247260093688965,-0.11844471842050552
1683140194771839000,13.0928388671875,9.687342643737793,0.33858439326286316,0.03290131315588951
1683140194789676300,13.11067626953125,9.859027862548828,0.38644084334373474,-0.03768695518374443
1683140194807521300,13.128521240234376,9.826126098632812,0.39122650027275085,-0.18065811693668365
1683140194825360400,13.1463603515625,9.76391315460205,0.3481557071208954,0.07178468257188797
1683140194843199700,13.16419970703125,9.750154495239258,0.4534398913383484,-0.14775680005550385
1683140194861038800,13.182038818359375,9.783055305480957,0.381655216217041,0.038285162299871445
1683140194878878200,13.199878173828125,9.721440315246582,0.39122650027275085,-0.019142581149935722
1683140194896717800,13.2177177734375,9.81655502319336,0.4055834412574768,-0.023330021649599075
1683140194914556700,13.235556640625,9.826126098632812,0.3290131092071533,-0.10408778488636017
1683140194932396300,13.253396240234375,9.773484230041504,0.4007977843284607,0.06699903309345245
1683140194950235400,13.2712353515625,9.821340560913086,0.381655216217041,-0.09511470049619675
1683140194968074800,13.28907470703125,9.826126098632812,0.381655216217041,-0.09032905846834183
1683140194985913600,13.30691357421875,9.81117057800293,0.4103690981864929,0.07178468257188797
1683140195003749600,13.32474951171875,9.711869239807129,0.3720839321613312,-0.1094716340303421
1683140195021592300,13.34259228515625,9.854840278625488,0.3768695592880249,-0.1136590763926506
1683140195039423700,13.360423828125,9.81117057800293,0.3529413342475891,0.07657032459974289
1683140195057270500,13.3782705078125,9.645467758178711,0.3762713670730591,-0.18125630915164948
1683140195075109600,13.396109619140624,9.768698692321777,0.3433700501918793,-0.0568295381963253
1683140195092949200,13.41394921875,9.80219841003418,0.4103690981864929,0.038285162299871445
1683140195110788600,13.43178857421875,9.673583984375,0.36191442608833313,-0.11006984114646912
1683140195128627500,13.44962744140625,9.697511672973633,0.4055834412574768,0.03290131315588951
1683140195146467000,13.467467041015626,9.787242889404297,0.3529413342475891,0.038285162299871445
1683140195164306200,13.48530615234375,9.769296646118164,0.41994038224220276,-0.11904292553663254
1683140195182145300,13.503145263671875,9.830313682556152,0.2955136001110077,-0.03290131315588951
1683140195199983600,13.520983642578125,9.707083702087402,0.41515472531318665,-0.05742774158716202
1683140195217821000,13.538821044921875,9.90688419342041,0.3433700501918793,-0.09451649338006973
1683140195235663000,13.5566630859375,9.79262638092041,0.4055834412574768,-0.09511470049619675
1683140195253499000,13.574498779296874,9.768698692321777,0.3481557071208954,0.014356935396790504
1683140195271342600,13.592342529296875,9.797411918640137,0.381655216217041,-0.1094716340303421
1683140195289183500,13.61018359375,9.81655502319336,0.3290131092071533,-0.15194423496723175
1683140195307020000,13.62802001953125,9.78245735168457,0.36729827523231506,0.08614161610603333
1683140195324859100,13.645859130859375,9.750752449035645,0.3762713670730591,-0.28115665912628174
1683140195342698500,13.663698486328125,9.773484230041504,0.38644084334373474,0.019142581149935722
1683140195360537600,13.68153759765625,9.868598937988281,0.381655216217041,-0.018544375896453857
1683140195378377000,13.699376953125,9.80219841003418,0.4007977843284607,-0.11904292553663254
1683140195396216600,13.717216552734374,9.678369522094727,0.36729827523231506,0.0568295381963253
1683140195414055700,13.7350556640625,9.897313117980957,0.39601215720176697,-0.017946170642971992
1683140195431890400,13.752890380859375,9.821340560913086,0.3768695592880249,-0.17108681797981262
1683140195449734400,13.770734375,9.763314247131348,0.372682124376297,0.14297115802764893
1683140195467570200,13.788570068359375,9.840482711791992,0.4103690981864929,-0.19980068504810333
1683140195485416000,13.806416015625,9.859027862548828,0.39601215720176697,-0.004187439568340778
1683140195503240000,13.824239990234375,9.783055305480957,0.4055834412574768,0.07657032459974289
1683140195521080000,13.842080078125,9.754940032958984,0.39601215720176697,-0.15732808411121368
1683140195538930400,13.859930419921875,9.806983947753906,0.3290131092071533,-0.047258246690034866
1683140195556769300,13.877769287109375,9.835099220275879,0.3720839321613312,0.04307080805301666
1683140195574609000,13.89560888671875,9.659825325012207,0.4001995921134949,-0.1339980661869049
1683140195592453400,13.913453369140624,9.76391315460205,0.3529413342475891,0.004785645287483931
1683140195610286600,13.93128662109375,9.845269203186035,0.4534398913383484,-0.04247260093688965
1683140195628126200,13.949126220703125,9.725627899169922,0.36251261830329895,0.06161518394947052
1683140195645965600,13.966965576171875,9.764511108398438,0.38644084334373474,-0.12382857501506805
1683140195663805000,13.984804931640625,9.754341125488281,0.39122650027275085,0.09032905846834183
1683140195681644500,14.00264453125,9.81655502319336,0.3481557071208954,-0.047258246690034866
1683140195699483100,14.020483154296874,9.783055305480957,0.3720839321613312,-0.12861421704292297
1683140195717322000,14.038322021484374,9.783055305480957,0.4103690981864929,0.07657032459974289
1683140195735160000,14.05616015625,9.806983947753906,0.3290131092071533,-0.137587308883667
1683140195753004300,14.07400439453125,9.81655502319336,0.4534398913383484,-0.08554340898990631
1683140195770839800,14.09183984375,9.739386558532715,0.3242274820804596,0.16689938306808472
1683140195788681000,14.109680908203124,9.717252731323242,0.3810569941997528,-0.23330020904541016
1683140195806517200,14.127517333984375,9.835697174072266,0.3433700501918793,-0.07118647545576096
1683140195824357600,14.145357666015625,9.787242889404297,0.3529413342475891,0.04785645380616188
1683140195842197000,14.163197021484375,9.769296646118164,0.3523431420326233,-0.2715853750705719
1683140195860036400,14.181036376953125,9.735198974609375,0.4055834412574768,0.03349951654672623
1683140195877875500,14.19887548828125,9.806385040283203,0.3433700501918793,0.005383851006627083
1683140195895715000,14.216715087890625,9.769296646118164,0.41515472531318665,-0.11425728350877762
1683140195913554000,14.234553955078125,9.77826976776123,0.30987054109573364,0.019142581149935722
1683140195931393500,14.2523935546875,9.79262638092041,0.381655216217041,-0.08554340898990631
1683140195949231900,14.27023193359375,9.826126098632812,0.3481557071208954,-0.13280165195465088
1683140195967073300,14.2880732421875,9.759127616882324,0.3768695592880249,-0.04307080805301666
1683140195984910800,14.305910888671875,9.81655502319336,0.381655216217041,-0.1136590763926506
1683140196002750500,14.32375048828125,9.821340560913086,0.39601215720176697,-0.04247260093688965
1683140196020581400,14.341581298828125,9.70229721069336,0.3720839321613312,-0.004785645287483931
1683140196038428700,14.3594287109375,9.892526626586914,0.381655216217041,0.005383851006627083
1683140196056268300,14.377268310546874,9.854840278625488,0.33858439326286316,-0.19920247793197632
1683140196074107100,14.395107177734374,9.78245735168457,0.4013960063457489,0.1381855010986328
1683140196091946800,14.41294677734375,9.878767967224121,0.3720839321613312,-0.2231307178735733
1683140196109785600,14.43078564453125,9.887741088867188,0.41994038224220276,-0.037088751792907715
1683140196127624700,14.448624755859376,9.768698692321777,0.38644084334373474,0.05742774158716202
1683140196145464300,14.46646435546875,9.79801082611084,0.38644084334373474,-0.15672987699508667
1683140196163294000,14.4842939453125,9.826126098632812,0.3577269911766052,-0.0568295381963253
1683140196181143000,14.50214306640625,9.839884757995605,0.38703906536102295,0.08135596662759781
1683140196198978300,14.519978271484375,9.66939640045166,0.37148571014404297,-0.19561325013637543
1683140196216824300,14.53782421875,9.725627899169922,0.36729827523231506,0.009571290574967861
1683140196234659800,14.555659912109375,9.821340560913086,0.41515472531318665,0.010169495828449726
1683140196252496600,14.57349658203125,9.707083702087402,0.39122650027275085,-0.08135596662759781
1683140196270341600,14.591341552734375,9.735198974609375,0.3768695592880249,-0.004785645287483931
1683140196288173600,14.609173583984376,9.768698692321777,0.38644084334373474,-0.004785645287483931
1683140196306021600,14.627021728515626,9.768698692321777,0.3529413342475891,-0.10468599200248718
1683140196323860700,14.64486083984375,9.740582466125488,0.36729827523231506,-0.08554340898990631
1683140196341695500,14.662695556640625,9.768698692321777,0.4007977843284607,0.02392822690308094
1683140196359534600,14.68053466796875,9.68794059753418,0.34277185797691345,-0.14775680005550385
1683140196377373000,14.698373046875,9.692726135253906,0.4534398913383484,0.023330021649599075
1683140196395214300,14.71621435546875,9.748957633972168,0.3481557071208954,0.11904292553663254
1683140196413052200,14.73405224609375,9.802796363830566,0.41515472531318665,-0.20937198400497437
1683140196430891800,14.751891845703126,9.758528709411621,0.3529413342475891,0.09032905846834183
1683140196448731000,14.76973095703125,9.783055305480957,0.3768695592880249,-0.09511470049619675
1683140196466570500,14.787570556640626,9.897911071777344,0.3481557071208954,-0.1657029688358307
1683140196484409000,14.8054091796875,9.735198974609375,0.38644084334373474,0.038285162299871445
1683140196502248400,14.82324853515625,9.721440315246582,0.3332005441188812,-0.1621137410402298
1683140196520087800,14.841087890625,9.783055305480957,0.4055834412574768,0.014356935396790504
1683140196537930800,14.8589306640625,9.811769485473633,0.30508488416671753,-0.04247260093688965
1683140196555766300,14.876766357421875,9.726225852966309,0.41515472531318665,-0.09571290761232376
1683140196573602800,14.894602783203124,9.882955551147461,0.30508488416671753,-0.008973085321485996
1683140196591447800,14.91244775390625,9.769296646118164,0.4247260093688965,-0.07597211748361588
1683140196609284400,14.930284423828125,9.92124080657959,0.33379876613616943,-0.10827522724866867
1683140196627123000,14.948123046875,9.873982429504395,0.39601215720176697,-0.11844471842050552
1683140196644963000,14.965963134765625,9.811769485473633,0.36729827523231506,-0.004187439568340778
1683140196662789000,14.9837890625,9.797411918640137,0.381655216217041,-0.06161518394947052
1683140196680644000,15.00164404296875,9.778867721557617,0.34277185797691345,-0.18065811693668365
1683140196698480000,15.019480224609374,9.830313682556152,0.3678964674472809,0.11964113265275955
1683140196716316200,15.037316162109375,9.717252731323242,0.36670008301734924,-0.26201409101486206
1683140196734161700,15.05516162109375,9.749555587768555,0.39601215720176697,0.06640082597732544
1683140196751998000,15.072998046875,9.80219841003418,0.4007977843284607,-0.06161518394947052
1683140196769836800,15.0908369140625,9.873982429504395,0.381655216217041,-0.137587308883667
1683140196787677700,15.108677734375,9.783055305480957,0.3577269911766052,-0.03768695518374443
1683140196805513700,15.126513671875,9.844670295715332,0.39601215720176697,0.03888336941599846
1683140196823354600,15.144354736328125,9.740582466125488,0.3284149169921875,-0.1950150430202484
1683140196841193700,15.16219384765625,9.768698692321777,0.3720839321613312,-0.0568295381963253
1683140196859033000,15.180033203125,9.797411918640137,0.39601215720176697,0.02392822690308094
1683140196876872200,15.1978720703125,9.735796928405762,0.39122650027275085,-0.11904292553663254
1683140196894699500,15.215699462890624,9.70229721069336,0.41994038224220276,0.03768695518374443
1683140196912550400,15.23355029296875,9.759127616882324,0.381655216217041,0.03349951654672623
1683140196930390300,15.251390380859375,9.80219841003418,0.4007977843284607,-0.1094716340303421
1683140196948229000,15.26922900390625,9.672985076904297,0.381655216217041,0.12323036789894104
1683140196966068700,15.28706884765625,9.811769485473633,0.3577269911766052,-0.12323036789894104
1683140196983907600,15.304907470703125,9.854840278625488,0.36729827523231506,-0.10408778488636017
1683140197001745000,15.322744873046876,9.76391315460205,0.4103690981864929,0.07178468257188797
1683140197019586000,15.3405859375,9.726225852966309,0.33858439326286316,-0.10468599200248718
1683140197037424600,15.358424560546876,9.850054740905762,0.4295116662979126,-0.07118647545576096
1683140197055265300,15.376265380859374,9.81117057800293,0.3481557071208954,0.09571290761232376
1683140197073103600,15.394103515625,9.735796928405762,0.3858426511287689,-0.20518454909324646
1683140197090943200,15.411943115234376,9.826126098632812,0.3433700501918793,-0.07118647545576096
1683140197108782300,15.4297822265625,9.811769485473633,0.39122650027275085,0.014356935396790504
1683140197126621700,15.44762158203125,9.721440315246582,0.3523431420326233,-0.17647066712379456
1683140197144460500,15.46546044921875,9.730413436889648,0.4103690981864929,0.019142581149935722
1683140197162299600,15.483299560546875,9.835099220275879,0.33858439326286316,0.014955141581594944
1683140197180139000,15.501138916015625,9.77408218383789,0.38644084334373474,-0.1094716340303421
1683140197197978400,15.518978271484375,9.754341125488281,0.3242274820804596,-0.038285162299871445
1683140197215814100,15.536814208984374,9.692726135253906,0.41515472531318665,0.06161518394947052
1683140197233659600,15.55465966796875,9.969097137451172,0.31465616822242737,-0.21296121180057526
1683140197251495200,15.5724951171875,9.835697174072266,0.4247260093688965,-0.09990034252405167
1683140197269336000,15.590336181640625,9.815957069396973,0.3433700501918793,0.010169495828449726
1683140197287174100,15.608174072265625,9.854840278625488,0.3768695592880249,-0.16151553392410278
1683140197305001700,15.626001708984376,9.854840278625488,0.3577269911766052,-0.1136590763926506
1683140197322852600,15.6438525390625,9.868598937988281,0.372682124376297,0.08614161610603333
1683140197340691700,15.661691650390624,9.760323524475098,0.34277185797691345,-0.31405797600746155
1683140197358530800,15.67953076171875,9.8207426071167,0.39601215720176697,0.005383851006627083
1683140197376370200,15.6973701171875,9.840482711791992,0.39122650027275085,-0.047258246690034866
1683140197394209500,15.71520947265625,9.750154495239258,0.4055834412574768,-0.09990034252405167
1683140197412046000,15.733046142578125,9.716055870056152,0.38644084334373474,0.028115665540099144
1683140197429890800,15.750890869140624,9.90688419342041,0.4007977843284607,-0.008973085321485996
1683140197447725800,15.768725830078125,9.793225288391113,0.3481557071208954,-0.18065811693668365
1683140197465567700,15.786567626953126,9.730413436889648,0.4061816334724426,0.15732808411121368
1683140197483405800,15.80440576171875,9.840482711791992,0.36251261830329895,-0.1663011759519577
1683140197501245000,15.822244873046875,9.868598937988281,0.381655216217041,-0.06580262631177902
1683140197519083800,15.840083740234375,9.749555587768555,0.4007977843284607,0.07597211748361588
1683140197536923400,15.85792333984375,9.750154495239258,0.36670008301734924,-0.17168502509593964
1683140197554762200,15.87576220703125,9.849455833435059,0.38644084334373474,-0.018544375896453857
1683140197572601900,15.893601806640625,9.730413436889648,0.38644084334373474,0.09032905846834183
1683140197590440700,15.911440673828125,9.68375301361084,0.3475574851036072,-0.2147558331489563
1683140197608280300,15.9292802734375,9.79262638092041,0.36729827523231506,-0.04247260093688965
1683140197626119200,15.947119140625,9.787840843200684,0.4007977843284607,0.0526420995593071
1683140197643958800,15.964958740234374,9.626325607299805,0.37148571014404297,-0.10049854964017868
1683140197661793800,15.982793701171875,9.716055870056152,0.41994038224220276,0.023330021649599075
1683140197679625200,16.000625244140625,9.792028427124023,0.36251261830329895,0.0526420995593071
1683140197697474800,16.018474853515624,9.77408218383789,0.4007977843284607,-0.15254244208335876
1683140197715316500,16.03631640625,9.749555587768555,0.3290131092071533,-0.038285162299871445
1683140197733154300,16.054154296875,9.726225852966309,0.39601215720176697,-0.062213387340307236
1683140197750993700,16.07199365234375,9.745368003845215,0.33379876613616943,-0.09032905846834183
1683140197768833000,16.0898330078125,9.664012908935547,0.4295116662979126,-0.024526432156562805
1683140197786672000,16.107672119140624,9.801599502563477,0.33379876613616943,0.04307080805301666
1683140197804511000,16.125510986328123,9.783653259277344,0.4103690981864929,-0.15732808411121368
1683140197822350600,16.1433505859375,9.720842361450195,0.33858439326286316,0.06640082597732544
1683140197840189700,16.161189697265623,9.797411918640137,0.381655216217041,-0.047258246690034866
1683140197858017300,16.179017333984376,9.945169448852539,0.33858439326286316,-0.21774685382843018
1683140197875868000,16.196867919921875,9.744770050048828,0.3768695592880249,0.08075776696205139
1683140197893695500,16.214695556640624,9.859625816345215,0.3481557071208954,-0.23270200192928314
1683140197911546600,16.232546630859375,9.859027862548828,0.41994038224220276,-0.03768695518374443
1683140197929386000,16.250385986328126,9.8207426071167,0.33858439326286316,0.024526432156562805
1683140197947225600,16.2682255859375,9.769296646118164,0.41515472531318665,-0.1333998590707779
1683140197965064000,16.28606396484375,9.81655502319336,0.3194418251514435,-0.1136590763926506
1683140197982903300,16.3039033203125,9.825528144836426,0.3768695592880249,0.0526420995593071
1683140198000742700,16.32174267578125,9.731609344482422,0.39062830805778503,-0.2763710021972656
1683140198018581800,16.339581787109374,9.787242889404297,0.38644084334373474,0.06699903309345245
1683140198036420900,16.3574208984375,9.830911636352539,0.39601215720176697,-0.04247260093688965
1683140198054260500,16.375260498046874,9.79262638092041,0.4055834412574768,-0.09511470049619675
1683140198072099600,16.393099609375,9.716055870056152,0.3433700501918793,0.009571290574967861
1683140198089938200,16.410938232421874,9.878170013427734,0.4007977843284607,-0.023330021649599075
1683140198107777800,16.42877783203125,9.811769485473633,0.3720839321613312,-0.15194423496723175
1683140198125612800,16.44661279296875,9.768698692321777,0.3720839321613312,0.08135596662759781
1683140198143456000,16.4644560546875,9.811769485473633,0.4103690981864929,-0.14715859293937683
1683140198161295400,16.48229541015625,9.849455833435059,0.39601215720176697,-0.01375873014330864
1683140198179134700,16.500134765625,9.815957069396973,0.39122650027275085,0.062213387340307236
1683140198196973600,16.5179736328125,9.726225852966309,0.4055834412574768,-0.11425728350877762
1683140198214812700,16.535812744140625,9.79262638092041,0.33858439326286316,-0.06640082597732544
1683140198232652300,16.55365234375,9.806983947753906,0.3529413342475891,0.0005982056609354913
1683140198250491600,16.57149169921875,9.674181938171387,0.4001995921134949,-0.1339980661869049
1683140198268330200,16.589330322265624,9.711270332336426,0.36729827523231506,0.014356935396790504
1683140198286169900,16.607169921875,9.80219841003418,0.43908295035362244,0.019142581149935722
1683140198304008700,16.6250087890625,9.673583984375,0.39122650027275085,-0.038285162299871445
1683140198321844700,16.6428447265625,9.725627899169922,0.3577269911766052,-0.009571290574967861
1683140198339687200,16.660687255859376,9.744770050048828,0.36251261830329895,-0.02871387079358101
1683140198357526300,16.6785263671875,9.830911636352539,0.3720839321613312,-0.052043892443180084
1683140198375368400,16.696368408203124,9.835697174072266,0.3242274820804596,-0.09451649338006973
1683140198393193200,16.714193115234377,9.740582466125488,0.41994038224220276,-0.019142581149935722
1683140198411043800,16.7320439453125,9.887741088867188,0.3290131092071533,-0.08015955984592438
1683140198428883500,16.749883544921875,9.81655502319336,0.44386860728263855,-0.12382857501506805
1683140198446722600,16.76772265625,9.748957633972168,0.33858439326286316,0.1621137410402298
1683140198464562000,16.78556201171875,9.735796928405762,0.3858426511287689,-0.1860419660806656
1683140198482400800,16.80340087890625,9.845269203186035,0.33379876613616943,-0.137587308883667
1683140198500240000,16.821239990234375,9.772886276245117,0.3577269911766052,0.09092725813388824
1683140198518079500,16.83907958984375,9.765109062194824,0.3762713670730591,-0.28594231605529785
1683140198535918800,16.8569189453125,9.711270332336426,0.4055834412574768,0.052043892443180084
1683140198553757400,16.87475732421875,9.835099220275879,0.33858439326286316,0.024526432156562805
1683140198571597300,16.892597412109374,9.81236743927002,0.4103690981864929,-0.15672987699508667
1683140198589433300,16.910433349609374,9.730413436889648,0.3242274820804596,0.038285162299871445
1683140198607278600,16.928278564453127,9.840482711791992,0.3720839321613312,-0.07118647545576096
1683140198625113900,16.94611376953125,9.90269660949707,0.381655216217041,-0.2183450609445572
1683140198642953200,16.963953125,9.739984512329102,0.3720839321613312,0.1094716340303421
1683140198660792800,16.981792724609374,9.850054740905762,0.381655216217041,-0.23748764395713806
1683140198678632000,16.9996318359375,9.902098655700684,0.39601215720176697,-0.01375873014330864
1683140198696471600,17.017471435546874,9.744770050048828,0.3290131092071533,0.014356935396790504
1683140198714312700,17.035312744140626,9.759725570678711,0.39601215720176697,-0.11425728350877762
1683140198732145000,17.053144775390624,9.80219841003418,0.33858439326286316,-0.09511470049619675
1683140198749989000,17.070989013671873,9.830313682556152,0.36251261830329895,0.04785645380616188
1683140198767828000,17.088827880859377,9.702896118164062,0.4145565330982208,-0.20039889216423035
1683140198785667300,17.106667236328125,9.725627899169922,0.3768695592880249,0.06161518394947052
1683140198803506200,17.124506103515625,9.797411918640137,0.4247260093688965,0.014356935396790504
1683140198821345500,17.142345458984376,9.726225852966309,0.4103690981864929,-0.05742774158716202
1683140198839184600,17.1601845703125,9.701699256896973,0.3242274820804596,0.009571290574967861
1683140198857024000,17.17802392578125,9.882955551147461,0.39601215720176697,-0.10408778488636017
1683140198874863000,17.195863037109376,9.806983947753906,0.39601215720176697,-0.06161518394947052
1683140198892685600,17.213685546875,9.730413436889648,0.3529413342475891,0.019142581149935722
1683140198910541300,17.231541259765624,9.850054740905762,0.41994038224220276,-0.15672987699508667
1683140198928381000,17.249380859375,9.787840843200684,0.381655216217041,0.019142581149935722
1683140198946220000,17.267219970703124,9.749555587768555,0.36729827523231506,0.014356935396790504
1683140198964059100,17.28505908203125,9.711869239807129,0.3762713670730591,-0.12382857501506805
1683140198981894700,17.302894775390627,9.80219841003418,0.36729827523231506,-0.03290131315588951
1683140198999737600,17.320737548828124,9.80219841003418,0.3481557071208954,0.009571290574967861
1683140199017577000,17.338576904296875,9.674181938171387,0.4097708761692047,-0.1579262912273407
1683140199035415800,17.356415771484375,9.730413436889648,0.3481557071208954,0.02871387079358101
1683140199053252000,17.374252197265626,9.835697174072266,0.4247260093688965,-0.01375873014330864
1683140199071097000,17.39209716796875,9.664012908935547,0.381655216217041,-0.010169495828449726
1683140199088930800,17.409930908203126,9.725627899169922,0.36729827523231506,-0.014356935396790504
1683140199106775300,17.427775390625,9.892526626586914,0.3194418251514435,-0.1417747437953949
1683140199124611600,17.445611572265626,9.754341125488281,0.39601215720176697,-0.009571290574967861
1683140199142450700,17.46345068359375,9.783055305480957,0.3242274820804596,-0.12861421704292297
1683140199160289800,17.481289794921874,9.750154495239258,0.44386860728263855,-0.10468599200248718
1683140199178129400,17.49912939453125,9.835099220275879,0.3290131092071533,0.08614161610603333
1683140199195968500,17.516968505859374,9.769296646118164,0.4103690981864929,-0.17168502509593964
1683140199213807900,17.534807861328126,9.792028427124023,0.33379876613616943,0.03349951654672623
1683140199231647000,17.55264697265625,9.77826976776123,0.3720839321613312,-0.08554340898990631
1683140199249486000,17.570486083984374,9.79262638092041,0.3720839321613312,-0.09032905846834183
1683140199267324200,17.58832421875,9.801599502563477,0.3577269911766052,0.04307080805301666
1683140199285165300,17.606165283203126,9.90269660949707,0.39062830805778503,-0.2799602448940277
1683140199303000800,17.624000732421877,9.854242324829102,0.3720839321613312,0.053240302950143814
1683140199320836400,17.64183642578125,9.731011390686035,0.381655216217041,-0.07657032459974289
1683140199338687200,17.659687255859374,9.81655502319336,0.4103690981864929,-0.01375873014330864
1683140199356503800,17.67750390625,9.826126098632812,0.2955136001110077,-0.14715859293937683
1683140199374360300,17.6953603515625,9.80219841003418,0.3768695592880249,-0.01375873014330864
1683140199392199200,17.71319921875,9.750154495239258,0.3810569941997528,-0.1860419660806656
1683140199410038300,17.731038330078125,9.759127616882324,0.4247260093688965,0.03349951654672623
1683140199427876600,17.748876708984376,9.735198974609375,0.41994038224220276,0.02871387079358101
1683140199445718500,17.766718505859377,9.750154495239258,0.4055834412574768,-0.07597211748361588
1683140199463556600,17.784556640625,9.735198974609375,0.36251261830329895,-0.009571290574967861
1683140199481395000,17.80239501953125,9.887741088867188,0.38644084334373474,-0.028115665540099144
1683140199499234800,17.82023486328125,9.81655502319336,0.36729827523231506,-0.15672987699508667
1683140199517073700,17.83807373046875,9.716055870056152,0.3720839321613312,0.11425728350877762
1683140199534912800,17.855912841796876,9.811769485473633,0.4055834412574768,-0.15194423496723175
1683140199552750600,17.87375048828125,9.830911636352539,0.381655216217041,-0.028115665540099144
1683140199570592800,17.8915927734375,9.768698692321777,0.3720839321613312,0.05742774158716202
1683140199588427500,17.909427490234375,9.693324089050293,0.3858426511287689,-0.14297115802764893
1683140199606272800,17.927272705078124,9.787840843200684,0.3720839321613312,0.004785645287483931
1683140199624108500,17.945108642578123,9.797411918640137,0.3577269911766052,0.004785645287483931
1683140199641948000,17.962947998046875,9.70229721069336,0.39062830805778503,-0.1381855010986328
1683140199659787000,17.980787109375,9.70229721069336,0.3433700501918793,-0.03349951654672623
1683140199677626000,17.998626220703127,9.749555587768555,0.4486542344093323,0.004785645287483931
1683140199695465500,18.016465576171875,9.711270332336426,0.36729827523231506,0.09990034252405167
1683140199713304600,18.0343046875,9.78843879699707,0.41515472531318665,-0.17587246000766754
1683140199731144000,18.05214404296875,9.754341125488281,0.36729827523231506,0.08075776696205139
1683140199748983300,18.0699833984375,9.79262638092041,0.36729827523231506,-0.06640082597732544
1683140199766822000,18.08782177734375,9.854840278625488,0.3529413342475891,-0.1663011759519577
1683140199784661500,18.10566162109375,9.754341125488281,0.39122650027275085,0.07597211748361588
1683140199802506200,18.12350634765625,9.840482711791992,0.31405797600746155,-0.1950150430202484
1683140199820322600,18.141322509765626,9.830911636352539,0.43908295035362244,-0.07597211748361588
1683140199838165200,18.159165283203127,9.830313682556152,0.3194418251514435,0.08135596662759781
1683140199856020000,18.17702001953125,9.745368003845215,0.3810569941997528,-0.20458634197711945
1683140199873845500,18.194845458984375,9.835697174072266,0.3290131092071533,-0.09930214285850525
1683140199891698200,18.2126982421875,9.759127616882324,0.36729827523231506,0.07178468257188797
1683140199909535200,18.23053515625,9.78843879699707,0.36191442608833313,-0.28534409403800964
1683140199927374000,18.2483740234375,9.739984512329102,0.38644084334373474,0.038285162299871445
1683140199945215000,18.266215087890625,9.8207426071167,0.3577269911766052,-0.004187439568340778
1683140199963053300,18.28405322265625,9.769296646118164,0.4247260093688965,-0.1094716340303421
1683140199980892200,18.30189208984375,9.735198974609375,0.3242274820804596,-0.009571290574967861
1683140199998731500,18.3197314453125,9.835697174072266,0.39601215720176697,-0.047258246690034866
1683140200016570600,18.337570556640625,9.859625816345215,0.357128769159317,-0.20877377688884735
1683140200034405600,18.355405517578124,9.76391315460205,0.381655216217041,0.07178468257188797
1683140200052249900,18.373249755859376,9.750752449035645,0.42412781715393066,-0.2189432680606842
1683140200070091300,18.39109130859375,9.792028427124023,0.381655216217041,0.1094716340303421
1683140200087923500,18.40892333984375,9.754940032958984,0.3523431420326233,-0.15254244208335876
1683140200105770500,18.4267705078125,9.77826976776123,0.4103690981864929,0.02871387079358101
1683140200123605800,18.444605712890624,9.707083702087402,0.3044866919517517,-0.11904292553663254
1683140200141444600,18.462444580078124,9.716654777526855,0.41994038224220276,0
1683140200159283700,18.48028369140625,9.80219841003418,0.36729827523231506,0
1683140200177122800,18.498122802734375,9.811769485473633,0.39122650027275085,-0.09990034252405167
1683140200194962400,18.51596240234375,9.81655502319336,0.4007977843284607,-0.004187439568340778
1683140200212801500,18.533801513671875,9.740582466125488,0.39601215720176697,-0.04307080805301666
1683140200230641000,18.551640869140623,9.8207426071167,0.3720839321613312,0.010169495828449726
1683140200248480000,18.56947998046875,9.783055305480957,0.39122650027275085,-0.07118647545576096
1683140200266318800,18.58731884765625,9.76391315460205,0.3768695592880249,0.038285162299871445
1683140200284158200,18.605158203125,9.882955551147461,0.33379876613616943,-0.13280165195465088
1683140200301997600,18.62299755859375,9.806983947753906,0.4582255482673645,-0.052043892443180084
1683140200319836200,18.640836181640626,9.749555587768555,0.33858439326286316,0.08075776696205139
1683140200337662500,18.658662353515624,9.802796363830566,0.41934216022491455,-0.20937198400497437
1683140200355499500,18.67649951171875,9.768698692321777,0.39122650027275085,0.02392822690308094
1683140200373351000,18.694350830078125,9.783055305480957,0.3290131092071533,0.02392822690308094
1683140200391196700,18.71219677734375,9.722038269042969,0.33798620104789734,-0.23330020904541016
1683140200409032000,18.730031982421874,9.744770050048828,0.39122650027275085,0.004785645287483931
1683140200426871600,18.74787158203125,9.863813400268555,0.30508488416671753,-0.07058826833963394
1683140200444711000,18.7657109375,9.688538551330566,0.43908295035362244,-0.1052841991186142
1683140200462550300,18.78355029296875,9.711270332336426,0.3481557071208954,0.09032905846834183
1683140200480388600,18.801388671875,9.773484230041504,0.39601215720176697,-0.052043892443180084
1683140200498225400,18.819225341796876,9.844670295715332,0.31465616822242737,-0.008973085321485996
1683140200516067300,18.8370673828125,9.773484230041504,0.4055834412574768,-0.07118647545576096
1683140200533909500,18.854909423828126,9.873384475708008,0.3290131092071533,-0.04187439754605293
1683140200551744800,18.872744873046877,9.826126098632812,0.39122650027275085,-0.1094716340303421
1683140200569586200,18.890586181640625,9.882955551147461,0.39601215720176697,-0.10408778488636017
1683140200587419400,18.90841943359375,9.859027862548828,0.38644084334373474,0.029312077909708023
1683140200605267500,18.926267333984374,9.77408218383789,0.33798620104789734,-0.1902294009923935
1683140200623102200,18.944102294921876,9.854242324829102,0.39601215720176697,-0.03290131315588951
1683140200640941300,18.96194140625,9.849455833435059,0.2955136001110077,-0.0849452018737793
1683140200658780400,18.979780517578124,9.769296646118164,0.41515472531318665,-0.14297115802764893
1683140200676619500,18.99761962890625,9.77826976776123,0.39122650027275085,-0.08554340898990631
1683140200694447000,19.015447021484373,9.854242324829102,0.3529413342475891,0.03888336941599846
1683140200712293000,19.033293212890626,9.764511108398438,0.4145565330982208,-0.16689938306808472
1683140200730137300,19.051137451171876,9.754341125488281,0.39122650027275085,0.09990034252405167
1683140200747976400,19.0689765625,9.773484230041504,0.3290131092071533,-0.10468599200248718
1683140200765816000,19.086816162109375,9.850054740905762,0.41515472531318665,-0.052043892443180084
1683140200783654400,19.104654296875,9.678369522094727,0.3768695592880249,0.06640082597732544
1683140200801482200,19.122482177734376,9.826126098632812,0.36729827523231506,-0.15672987699508667
1683140200819332900,19.140332763671875,9.854242324829102,0.4486542344093323,-0.018544375896453857
1683140200837172200,19.158172119140627,9.720842361450195,0.3529413342475891,0.06640082597732544
1683140200855011000,19.176010986328127,9.797411918640137,0.39601215720176697,-0.08554340898990631
1683140200872850200,19.19385009765625,9.849455833435059,0.4103690981864929,-0.03290131315588951
1683140200890689800,19.211689697265626,9.787840843200684,0.3242274820804596,0.004785645287483931
1683140200908528600,19.229528564453126,9.835697174072266,0.3768695592880249,-0.15194423496723175
1683140200926368300,19.2473681640625,9.821340560913086,0.4342973232269287,-0.008973085321485996
1683140200944206800,19.265206787109374,9.783055305480957,0.3290131092071533,0.014356935396790504
1683140200962046200,19.283046142578126,9.81236743927002,0.4247260093688965,-0.17587246000766754
1683140200979885600,19.300885498046874,9.754341125488281,0.39122650027275085,0.07118647545576096
1683140200997725000,19.318724853515626,9.77826976776123,0.33379876613616943,0
1683140201015560400,19.336560546875,9.688538551330566,0.37148571014404297,-0.14297115802764893
1683140201033406200,19.35440625,9.754341125488281,0.381655216217041,-0.02871387079358101
1683140201051238100,19.372238037109376,9.849455833435059,0.3194418251514435,-0.01375873014330864
1683140201069085400,19.39008544921875,9.678967475891113,0.42412781715393066,-0.14835500717163086
1683140201086918100,19.407918212890625,9.744770050048828,0.3433700501918793,0.062213387340307236
1683140201104761300,19.42576123046875,9.826126098632812,0.38644084334373474,-0.06640082597732544
1683140201122598400,19.443598388671877,9.726225852966309,0.3529413342475891,-0.03349951654672623
1683140201140437500,19.4614375,9.7064847946167,0.38644084334373474,0.06161518394947052
1683140201158276600,19.479276611328125,9.916455268859863,0.31465616822242737,-0.18005990982055664
1683140201176116000,19.497115966796876,9.821340560913086,0.4342973232269287,-0.052043892443180084
1683140201193955300,19.514955322265624,9.849455833435059,0.3529413342475891,-0.004187439568340778
1683140201211790600,19.53279052734375,9.817152976989746,0.4097708761692047,-0.1902294009923935
1683140201229633300,19.55063330078125,9.849455833435059,0.36251261830329895,0.005383851006627083
1683140201247472600,19.56847265625,9.854242324829102,0.39122650027275085,0.03888336941599846
1683140201265312000,19.58631201171875,9.769296646118164,0.3284149169921875,-0.21415762603282928
1683140201283151400,19.6041513671875,9.787840843200684,0.4007977843284607,0.014356935396790504
1683140201300990500,19.621990478515624,9.878170013427734,0.3529413342475891,-0.10887342691421509
1683140201318829000,19.6398291015625,9.745368003845215,0.39122650027275085,-0.11425728350877762
1683140201336668400,19.65766845703125,9.783055305480957,0.39122650027275085,-0.014356935396790504
1683140201354507500,19.675507568359375,9.878170013427734,0.3720839321613312,-0.04666004329919815
1683140201372347000,19.693346923828123,9.740582466125488,0.357128769159317,-0.09990034252405167
1683140201390183000,19.711182861328126,9.80219841003418,0.381655216217041,0
1683140201408027100,19.729027099609375,9.769296646118164,0.3475574851036072,-0.1333998590707779
1683140201425865500,19.746865478515623,9.783055305480957,0.3768695592880249,-0.052043892443180084
1683140201443703600,19.76470361328125,9.735796928405762,0.4486542344093323,-0.0526420995593071
1683140201461542100,19.782542236328126,9.76391315460205,0.3768695592880249,0.07178468257188797
1683140201479382000,19.800382080078126,9.740582466125488,0.4247260093688965,-0.07178468257188797
1683140201497220900,19.818220947265626,9.735198974609375,0.39601215720176697,0.0568295381963253
1683140201515059700,19.836059814453126,9.759127616882324,0.3194418251514435,-0.06161518394947052
1683140201532899000,19.853899169921874,9.840482711791992,0.41515472531318665,-0.12323036789894104
1683140201550738000,19.871738037109374,9.730413436889648,0.38644084334373474,0.12861421704292297
1683140201568577300,19.889577392578126,9.78843879699707,0.3475574851036072,-0.17108681797981262
1683140201586413800,19.907413818359377,9.863813400268555,0.47258245944976807,-0.01375873014330864
1683140201604258600,19.925258544921874,9.749555587768555,0.3481557071208954,0.10468599200248718
1683140201622094800,19.9430947265625,9.778867721557617,0.3762713670730591,-0.24287149310112
1683140201639933700,19.96093359375,9.783055305480957,0.38644084334373474,0.019142581149935722
1683140201657773300,19.978773193359373,9.783055305480957,0.33858439326286316,0.02392822690308094
1683140201675612400,19.9966123046875,9.717252731323242,0.3523431420326233,-0.20997019112110138
1683140201693435600,20.014435546875,9.739984512329102,0.4055834412574768,0
1683140201711294700,20.032294677734374,9.844670295715332,0.3290131092071533,-0.01375873014330864
1683140201729130000,20.0501298828125,9.731011390686035,0.44805604219436646,-0.16689938306808472
1683140201746969000,20.067968994140625,9.658628463745117,0.3481557071208954,0.15194423496723175
1683140201764808000,20.085807861328124,9.806983947753906,0.3768695592880249,-0.09990034252405167
1683140201782647600,20.1036474609375,9.859625816345215,0.3481557071208954,-0.12323036789894104
1683140201800486700,20.121486572265624,9.682557106018066,0.381655216217041,0.09032905846834183
1683140201818325500,20.139325439453124,9.897911071777344,0.3523431420326233,-0.2231307178735733
1683140201836164400,20.157164306640624,9.81655502319336,0.4295116662979126,-0.03768695518374443
1683140201854004000,20.17500390625,9.773484230041504,0.3481557071208954,0.03349951654672623
1683140201871839500,20.192839599609375,9.79262638092041,0.4103690981864929,-0.07597211748361588
1683140201889682200,20.21068212890625,9.844670295715332,0.33379876613616943,-0.07118647545576096
1683140201907521000,20.22852099609375,9.77826976776123,0.39601215720176697,0.04785645380616188
1683140201925360000,20.246360107421875,9.88833999633789,0.33798620104789734,-0.1944168359041214
1683140201943199500,20.264199462890623,9.849455833435059,0.4055834412574768,-0.03290131315588951
1683140201961038300,20.282038330078127,9.849455833435059,0.381655216217041,-0.028115665540099144
1683140201978877700,20.299877685546875,9.850054740905762,0.36729827523231506,-0.15672987699508667
1683140201996717000,20.317717041015626,9.79262638092041,0.381655216217041,-0.03768695518374443
1683140202014556200,20.33555615234375,9.830313682556152,0.3768695592880249,0.10049854964017868
1683140202032395300,20.353395263671874,9.698110580444336,0.3332005441188812,-0.2386840581893921
1683140202050233900,20.37123388671875,9.79262638092041,0.39122650027275085,0.019142581149935722
1683140202068073500,20.389073486328126,9.811769485473633,0.39122650027275085,-0.023330021649599075
1683140202085912800,20.406912841796874,9.726225852966309,0.4049852192401886,-0.11904292553663254
1683140202103751400,20.42475146484375,9.725627899169922,0.41994038224220276,0.06161518394947052
1683140202121590500,20.442590576171874,9.811769485473633,0.3768695592880249,-0.023330021649599075
1683140202139429600,20.4604296875,9.764511108398438,0.3523431420326233,-0.1094716340303421
1683140202157269200,20.478269287109374,9.8207426071167,0.381655216217041,0.02871387079358101
1683140202175107800,20.49610791015625,9.764511108398438,0.381655216217041,-0.11425728350877762
1683140202192947500,20.513947509765625,9.835099220275879,0.36251261830329895,-0.008973085321485996
1683140202210786600,20.53178662109375,9.797411918640137,0.4534398913383484,-0.07597211748361588
1683140202228625700,20.549625732421877,9.735198974609375,0.36729827523231506,0.06161518394947052
1683140202246465300,20.56746533203125,9.750154495239258,0.4055834412574768,-0.1094716340303421
1683140202264303600,20.5853037109375,9.69212818145752,0.4055834412574768,0.09511470049619675
1683140202282143200,20.603143310546876,9.783055305480957,0.33379876613616943,-0.023330021649599075
1683140202299982300,20.620982421875,9.77408218383789,0.38644084334373474,-0.1094716340303421
1683140202317821400,20.638821533203124,9.735198974609375,0.39601215720176697,0.10468599200248718
1683140202335660500,20.65666064453125,9.821340560913086,0.3284149169921875,-0.18065811693668365
1683140202353499600,20.674499755859376,9.850054740905762,0.4534398913383484,-0.06640082597732544
1683140202371338800,20.6923388671875,9.729815483093262,0.33379876613616943,0.1621137410402298
1683140202389178400,20.710178466796876,9.769296646118164,0.39062830805778503,-0.25244277715682983
1683140202407016700,20.7280166015625,9.830911636352539,0.3529413342475891,-0.04247260093688965
1683140202424856300,20.745856201171875,9.792028427124023,0.3529413342475891,0.04785645380616188
1683140202442695700,20.76369580078125,9.783653259277344,0.33798620104789734,-0.2949153780937195
1683140202460534500,20.781534423828123,9.735198974609375,0.4055834412574768,0.02871387079358101
1683140202478373000,20.799373046875,9.830313682556152,0.33858439326286316,0.0005982056609354913
1683140202496213000,20.817212890625,9.754940032958984,0.43908295035362244,-0.14297115802764893
1683140202514051600,20.835051513671875,9.711270332336426,0.3242274820804596,0.08554340898990631
1683140202531883500,20.852883544921873,9.783055305480957,0.3768695592880249,-0.09511470049619675
1683140202549733600,20.870733642578124,9.873982429504395,0.3433700501918793,-0.1423729509115219
1683140202567568100,20.888568115234374,9.759127616882324,0.3720839321613312,-0.038285162299871445
1683140202585409800,20.906409912109375,9.826126098632812,0.36670008301734924,-0.1663011759519577
1683140202603247900,20.924247802734374,9.80219841003418,0.39601215720176697,-0.052043892443180084
1683140202621086500,20.94208642578125,9.721440315246582,0.36251261830329895,-0.019142581149935722
1683140202638925600,20.959925537109374,9.81655502319336,0.3720839321613312,-0.06161518394947052
1683140202656764400,20.977764404296874,9.787840843200684,0.3577269911766052,-0.09032905846834183
1683140202674601700,20.995601806640625,9.878170013427734,0.36729827523231506,0.05802594870328903
1683140202692440600,21.013440673828125,9.8267240524292,0.39062830805778503,-0.2566302418708801
1683140202710282200,21.0312822265625,9.801599502563477,0.381655216217041,0.1052841991186142
1683140202728121600,21.04912158203125,9.840482711791992,0.4342973232269287,-0.137587308883667
1683140202745960700,21.066960693359373,9.826126098632812,0.4055834412574768,-0.03768695518374443
1683140202763799800,21.0847998046875,9.768698692321777,0.33858439326286316,0.014356935396790504
1683140202781638400,21.102638427734377,9.79262638092041,0.41994038224220276,-0.06640082597732544
1683140202799478000,21.12047802734375,9.731011390686035,0.3236292600631714,-0.062213387340307236
1683140202817316400,21.13831640625,9.769296646118164,0.4007977843284607,-0.09990034252405167
1683140202835157000,21.156156982421876,9.744770050048828,0.41994038224220276,0.06161518394947052
1683140202852995000,21.1739951171875,9.678369522094727,0.3762713670730591,-0.09571290761232376
1683140202870834400,21.19183447265625,9.697511672973633,0.4342973232269287,0.004187439568340778
1683140202888673500,21.209673583984376,9.754341125488281,0.36729827523231506,0.09511470049619675
1683140202906513000,21.227512939453124,9.778867721557617,0.39062830805778503,-0.14775680005550385
1683140202924351700,21.245351806640624,9.682557106018066,0.381655216217041,0.11844471842050552
1683140202942188500,21.2631884765625,9.797411918640137,0.3529413342475891,-0.12382857501506805
1683140202960030200,21.2810302734375,9.873982429504395,0.36729827523231506,-0.12801600992679596
1683140202977858300,21.2988583984375,9.773484230041504,0.41994038224220276,0.062213387340307236
1683140202995708400,21.31670849609375,9.697511672973633,0.34277185797691345,-0.08614161610603333
1683140203013552400,21.334552490234376,9.830911636352539,0.41515472531318665,-0.07597211748361588
1683140203031372500,21.35237255859375,9.777671813964844,0.33858439326286316,0.1381855010986328
1683140203049228800,21.370228759765624,9.68375301361084,0.3858426511287689,-0.19561325013637543
1683140203067064600,21.388064697265627,9.830911636352539,0.3433700501918793,-0.09032905846834183
1683140203084903700,21.405903564453126,9.773484230041504,0.3768695592880249,0.038285162299871445
1683140203102743300,21.423743408203126,9.712467193603516,0.3475574851036072,-0.20997019112110138
1683140203120582000,21.441581787109374,9.749555587768555,0.4103690981864929,0.019142581149935722
1683140203138421500,21.45942138671875,9.839884757995605,0.3290131092071533,0.03888336941599846
1683140203156260400,21.47726025390625,9.759725570678711,0.4001995921134949,-0.15732808411121368
1683140203174099500,21.495099365234374,9.773484230041504,0.3194418251514435,0.009571290574967861
1683140203191938300,21.512938232421874,9.806983947753906,0.39122650027275085,-0.09032905846834183
1683140203209765400,21.530765380859375,9.926026344299316,0.3720839321613312,-0.18005990982055664
1683140203227617300,21.5486171875,9.79262638092041,0.38644084334373474,0.009571290574967861
1683140203245456100,21.5664560546875,9.721440315246582,0.39541393518447876,-0.15254244208335876
1683140203263295200,21.584295166015625,9.844670295715332,0.381655216217041,0.07657032459974289
1683140203281134600,21.602134521484373,9.754940032958984,0.3332005441188812,-0.1381855010986328
1683140203298973400,21.619973388671873,9.768698692321777,0.4103690981864929,0.062213387340307236
1683140203316812300,21.637812255859377,9.830911636352539,0.3236292600631714,-0.1423729509115219
1683140203334652000,21.65565185546875,9.850054740905762,0.4295116662979126,-0.1136590763926506
1683140203352491000,21.673490966796876,9.79262638092041,0.4103690981864929,0.04307080805301666
1683140203370329900,21.691329833984376,9.726225852966309,0.4007977843284607,-0.08614161610603333
1683140203388169200,21.709169189453124,9.773484230041504,0.4055834412574768,0.04307080805301666
1683140203406008300,21.72700830078125,9.844670295715332,0.4007977843284607,-0.028115665540099144
1683140203423847400,21.744847412109376,9.730413436889648,0.3481557071208954,-0.03349951654672623
1683140203441686000,21.76268603515625,9.887741088867188,0.36729827523231506,-0.03768695518374443
1683140203459518700,21.780518798828126,9.845269203186035,0.41515472531318665,-0.18544375896453857
1683140203477363500,21.798363525390624,9.772886276245117,0.33379876613616943,0.062213387340307236
1683140203495204900,21.816204833984376,9.678967475891113,0.44327038526535034,-0.11964113265275955
1683140203513042700,21.834042724609375,9.730413436889648,0.381655216217041,0.08075776696205139
1683140203530881800,21.8518818359375,9.768698692321777,0.3481557071208954,-0.02871387079358101
1683140203548721200,21.86972119140625,9.673583984375,0.39062830805778503,-0.08614161610603333
1683140203566557400,21.887557373046874,9.754341125488281,0.33858439326286316,-0.07597211748361588
1683140203584402200,21.905402099609375,9.768698692321777,0.3529413342475891,-0.004785645287483931
1683140203602238200,21.92323828125,9.692726135253906,0.4289134442806244,-0.1052841991186142
1683140203620077600,21.94107763671875,9.673583984375,0.3481557071208954,0.047258246690034866
1683140203637916200,21.958916259765626,9.811769485473633,0.4007977843284607,-0.04247260093688965
1683140203655755500,21.976755615234374,9.731011390686035,0.381655216217041,-0.038285162299871445
1683140203673585000,21.9945849609375,9.720842361450195,0.3720839321613312,0
1683140203691434000,22.01243408203125,9.873384475708008,0.33379876613616943,-0.1136590763926506
1683140203709261600,22.030261474609375,9.81655502319336,0.41515472531318665,-0.06640082597732544
1683140203727115300,22.048115234375,9.801599502563477,0.3194418251514435,0.02871387079358101
1683140203744951300,22.065951416015626,9.817152976989746,0.4145565330982208,-0.1902294009923935
1683140203762790400,22.083790283203125,9.859027862548828,0.3529413342475891,0.005383851006627083
1683140203780629800,22.101629638671874,9.79262638092041,0.3720839321613312,0
1683140203798468900,22.11946875,9.731011390686035,0.33798620104789734,-0.1381855010986328
1683140203816307500,22.137307373046873,9.754341125488281,0.39122650027275085,-0.004785645287483931
1683140203834137600,22.1551376953125,9.868598937988281,0.3194418251514435,-0.09451649338006973
1683140203851981600,22.172981689453124,9.70229721069336,0.4097708761692047,-0.1339980661869049
1683140203869825300,22.1908251953125,9.77826976776123,0.3720839321613312,-0.02392822690308094
1683140203887664000,22.2086640625,9.859027862548828,0.381655216217041,0.0005982056609354913
1683140203905503200,22.226503173828124,9.750154495239258,0.3762713670730591,-0.12382857501506805
1683140203923342300,22.24434228515625,9.768698692321777,0.39601215720176697,0.09032905846834183
1683140203941181700,22.262181640625,9.859625816345215,0.3236292600631714,-0.1944168359041214
1683140203959020500,22.2800205078125,9.882955551147461,0.4103690981864929,-0.0568295381963253
1683140203976859600,22.297859619140624,9.744770050048828,0.39601215720176697,0.019142581149935722
1683140203994699000,22.315698974609376,9.835697174072266,0.381655216217041,-0.14715859293937683
1683140204012537900,22.333537841796876,9.850054740905762,0.4247260093688965,-0.03290131315588951
1683140204030377500,22.35137744140625,9.825528144836426,0.36729827523231506,0.05742774158716202
1683140204048216000,22.369216064453123,9.712467193603516,0.3332005441188812,-0.22911277413368225
1683140204066055700,22.3870556640625,9.8207426071167,0.4007977843284607,0.0526420995593071
1683140204083894500,22.40489453125,9.80219841003418,0.3481557071208954,-0.03768695518374443
1683140204101734700,22.422734619140623,9.731011390686035,0.3810569941997528,-0.1621137410402298
1683140204119572500,22.440572509765627,9.749555587768555,0.41515472531318665,0.038285162299871445
1683140204137395500,22.4583955078125,9.79262638092041,0.38644084334373474,-0.047258246690034866
1683140204155251500,22.47625146484375,9.768698692321777,0.41515472531318665,-0.038285162299871445
1683140204173090000,22.494090087890626,9.678369522094727,0.3768695592880249,0.023330021649599075
1683140204190929200,22.51192919921875,9.754341125488281,0.3284149169921875,-0.07597211748361588
1683140204208749800,22.529749755859374,9.754940032958984,0.36191442608833313,-0.11425728350877762
1683140204226607400,22.547607421875,9.735796928405762,0.41994038224220276,-0.05742774158716202
1683140204244446700,22.56544677734375,9.730413436889648,0.3481557071208954,0.06161518394947052
1683140204262285300,22.583285400390626,9.711869239807129,0.4630111753940582,-0.09571290761232376
1683140204280124700,22.601124755859374,9.663414001464844,0.3720839321613312,0.11844471842050552
