time,seconds_elapsed,z,y,x
1683135811580798700,0.091798828125,9.455238342285156,-1.2436695098876953,0.2386840581893921
1683135811598494000,0.109493896484375,10.029516220092773,-0.4624129831790924,-0.3122633695602417
1683135811616343800,0.12734375,9.656235694885254,-1.2675977945327759,-0.06520441919565201
1683135811634184400,0.145184326171875,9.628120422363281,-0.8841479420661926,0.06281159073114395
1683135811652023000,0.16302294921875,9.662816047668457,-0.875174880027771,-0.4372883439064026
1683135811669861400,0.180861328125,9.984052658081055,-1.0462616682052612,0.23629122972488403
1683135811687700200,0.1987001953125,9.644271850585938,-0.7124629616737366,-0.5282155871391296
1683135811705538800,0.216538818359375,9.607182502746582,-1.2957134246826172,0.2919243574142456
1683135811723377400,0.23437744140625,9.920642852783203,-0.5491527915000916,-0.37926238775253296
1683135811741215000,0.252215087890625,9.641879081726074,-1.296311616897583,0.005982056725770235
1683135811759056000,0.270055908203125,9.7669038772583,-0.7405785918235779,-0.050847481936216354
1683135811776893700,0.287893798828125,9.591031074523926,-0.9708877801895142,-0.2949153780937195
1683135811794732800,0.30573291015625,9.89850902557373,-1.1084750890731812,0.21714866161346436
1683135811812570400,0.3235703125,9.582656860351562,-0.6885347366333008,-0.47617170214653015
1683135811830409500,0.341409423828125,9.750154495239258,-1.1324033737182617,0.3116651475429535
1683135811848253000,0.3592529296875,9.835099220275879,-0.6406782865524292,-0.47976094484329224
1683135811866088000,0.377087890625,9.631709098815918,-1.3728820085525513,0.14895321428775787
1683135811883923000,0.3949228515625,9.838688850402832,-0.6161518096923828,-0.17946170270442963
1683135811901765600,0.412765625,9.618548393249512,-1.1527422666549683,-0.18963119387626648
1683135811919602700,0.430602783203125,9.860821723937988,-0.97926265001297,0.1543370634317398
1683135811937439000,0.44843896484375,9.539586067199707,-0.7794619798660278,-0.4426721930503845
1683135811955280000,0.46627978515625,9.936196327209473,-1.1515458822250366,0.2883351147174835
1683135811973103400,0.484103271484375,9.79681396484375,-0.7316055297851562,-0.47976094484329224
1683135811990954500,0.50195458984375,9.57906723022461,-1.3435698747634888,0.23449662327766418
1683135812008796700,0.519796630859375,9.848857879638672,-0.5443671345710754,-0.24646073579788208
1683135812026637300,0.53763720703125,9.6466646194458,-1.2388839721679688,-0.10827522724866867
1683135812044473600,0.5554736328125,9.923035621643066,-0.8739784955978394,0.02153540402650833
1683135812062299600,0.573299560546875,9.538987159729004,-0.9469595551490784,-0.3044866919517517
1683135812080152000,0.591152099609375,9.908080101013184,-1.0223335027694702,0.259621262550354
1683135812097989000,0.608989013671875,9.701699256896973,-0.7794619798660278,-0.4989035129547119
1683135812115825200,0.6268251953125,9.659825325012207,-1.3052847385406494,0.3158525824546814
1683135812133665300,0.644665283203125,9.853643417358398,-0.5491527915000916,-0.32243284583091736
1683135812151505700,0.662505615234375,9.589237213134766,-1.4063814878463745,-0.02751746028661728
1683135812169344000,0.680343994140625,9.909276962280273,-0.7782655358314514,-0.05024927482008934
1683135812187182300,0.698182373046875,9.543174743652344,-0.9900303483009338,-0.21415762603282928
1683135812205021400,0.716021484375,9.960722923278809,-0.9361918568611145,0.1740778535604477
1683135812222860500,0.733860595703125,9.67238712310791,-0.8464609980583191,-0.40378883481025696
1683135812240698400,0.751698486328125,9.764511108398438,-1.2430713176727295,0.32123643159866333
1683135812258537500,0.769537353515625,9.8207426071167,-0.6017948985099792,-0.45104706287384033
1683135812276375800,0.787375732421875,9.622138023376465,-1.44945228099823,0.13040883839130402
1683135812294215000,0.80521484375,9.919445991516113,-0.6634100675582886,-0.14057832956314087
1683135812312053000,0.823052978515625,9.5802640914917,-1.1670992374420166,-0.07058826833963394
1683135812329888300,0.84088818359375,9.923035621643066,-0.8356932997703552,0.040677983313798904
1683135812347734300,0.858734375,9.64367389678955,-0.9326026439666748,-0.3086741268634796
1683135812365571000,0.876571044921875,9.817152976989746,-1.103689432144165,0.3164508044719696
1683135812383401200,0.894401123046875,9.744172096252441,-0.6215356588363647,-0.4181457459926605
1683135812401246500,0.91224658203125,9.707083702087402,-1.415354609489441,0.24466611444950104
1683135812419084800,0.930084716796875,9.896116256713867,-0.5874379873275757,-0.3080759048461914
1683135812436924000,0.947923828125,9.584450721740723,-1.1958130598068237,0.03888336941599846
1683135812454757600,0.965757568359375,9.990034103393555,-0.8309076428413391,-0.09272187948226929
1683135812472601000,0.98360107421875,9.642477035522461,-1.028315544128418,-0.14656038582324982
1683135812490440000,1.00143994140625,9.784850120544434,-0.893121063709259,0.1495514214038849
1683135812508277500,1.019277587890625,9.701101303100586,-0.7603194117546082,-0.42771705985069275
1683135812526117400,1.037117431640625,9.759725570678711,-1.32921302318573,0.2829512655735016
1683135812543956700,1.054956787109375,9.829715728759766,-0.5635097622871399,-0.3798605799674988
1683135812561794600,1.072794677734375,9.622138023376465,-1.2765709161758423,0.14416755735874176
1683135812579633700,1.090633544921875,9.93380355834961,-0.6927221417427063,-0.18843477964401245
1683135812597471500,1.108471435546875,9.499505996704102,-1.0761719942092896,-0.018544375896453857
1683135812615310600,1.126310546875,9.795019149780273,-0.735194742679596,0.03469592705368996
1683135812633138700,1.144138671875,9.738788604736328,-0.908674418926239,-0.3415754437446594
1683135812650988800,1.16198876953125,9.793225288391113,-1.2335001230239868,0.2309073805809021
1683135812668823000,1.179822998046875,9.644271850585938,-0.6167500615119934,-0.4570291340351105
1683135812686668300,1.197668212890625,9.66939640045166,-1.2478569746017456,0.2111666053533554
1683135812704499000,1.2154990234375,9.939187049865723,-0.6496513485908508,-0.364905446767807
1683135812722343000,1.233343017578125,9.518050193786621,-1.205384373664856,0.11485548317432404
1683135812740180700,1.2511806640625,9.847661972045898,-0.6873382925987244,-0.0933200865983963
1683135812758016500,1.2690166015625,9.709476470947266,-1.1096714735031128,-0.24646073579788208
1683135812775857000,1.28685693359375,9.765109062194824,-1.017547845840454,0.19202402234077454
1683135812793697300,1.304697265625,9.610772132873535,-0.6693921089172363,-0.42352959513664246
1683135812811535400,1.322535400390625,9.79801082611084,-1.262213945388794,0.259621262550354
1683135812829362200,1.340362060546875,9.81117057800293,-0.6693921089172363,-0.45583271980285645
1683135812847216000,1.358216064453125,9.479764938354492,-1.2005987167358398,0.20039889216423035
1683135812865052000,1.376052001953125,9.89133071899414,-0.5826523303985596,-0.2602194547653198
1683135812882887000,1.393886962890625,9.68494987487793,-1.181456208229065,-0.10348957777023315
1683135812900732000,1.41173193359375,9.704092025756836,-0.8458628058433533,0.10588239878416061
1683135812918567400,1.4295673828125,9.644271850585938,-0.8081758618354797,-0.4181457459926605
1683135812936406500,1.447406494140625,9.869196891784668,-1.2137593030929565,0.24526432156562805
1683135812954232600,1.465232666015625,9.696913719177246,-0.6693921089172363,-0.4612165689468384
1683135812972083700,1.483083740234375,9.588638305664062,-1.2239288091659546,0.27756741642951965
1683135812989919200,1.500919189453125,9.853643417358398,-0.5826523303985596,-0.3840480446815491
1683135813007764000,1.518763916015625,9.603593826293945,-1.3202399015426636,-0.013160524889826775
1683135813025594400,1.536594482421875,9.790233612060547,-0.7740781307220459,-0.026919255033135414
1683135813043437800,1.554437744140625,9.638887405395508,-0.9469595551490784,-0.3613162338733673
1683135813061268700,1.572268798828125,9.831509590148926,-1.1419745683670044,0.22133609652519226
1683135813079115300,1.590115234375,9.568299293518066,-0.6885347366333008,-0.5048855543136597
1683135813096954000,1.6079541015625,9.741181373596191,-1.171286702156067,0.29730820655822754
1683135813114794000,1.6257939453125,9.91107177734375,-0.6209374666213989,-0.43609192967414856
1683135813132630300,1.64363037109375,9.617352485656738,-1.4015958309173584,0.129810631275177
1683135813150469000,1.66146923828125,9.762716293334961,-0.6209374666213989,-0.15613168478012085
1683135813168304600,1.6793046875,9.609575271606445,-1.0761719942092896,-0.23748764395713806
1683135813186148000,1.697148193359375,9.860821723937988,-1.0079765319824219,0.16869398951530457
1683135813203984600,1.714984619140625,9.57787036895752,-0.7411768436431885,-0.44745782017707825
1683135813221826300,1.732826416015625,9.859625816345215,-1.1754741668701172,0.29312077164649963
1683135813239663000,1.7506630859375,9.768099784851074,-0.6933203339576721,-0.5180460810661316
1683135813257504300,1.768504150390625,9.588638305664062,-1.3489537239074707,0.2105683982372284
1683135813275343600,1.786343505859375,9.857831001281738,-0.5826523303985596,-0.24107688665390015
1683135813293176600,1.804176513671875,9.651450157165527,-1.2293126583099365,-0.1178465187549591
1683135813311017700,1.822017822265625,9.865608215332031,-0.9218349456787109,0.08315058797597885
1683135813328854000,1.83985400390625,9.520442962646484,-0.8321040868759155,-0.3858426511287689
1683135813346686700,1.857686767578125,9.90269660949707,-1.0941181182861328,0.26919254660606384
1683135813364534300,1.8755341796875,9.725028991699219,-0.7459624409675598,-0.503689169883728
1683135813382372400,1.893372314453125,9.688538551330566,-1.2813565731048584,0.31106695532798767
1683135813400211200,1.911211181640625,9.868000984191895,-0.5300102233886719,-0.35114672780036926
1683135813418050300,1.92905029296875,9.594022750854492,-1.3298112154006958,-0.017946170642971992
1683135813435889000,1.946888916015625,9.89013385772705,-0.7734799385070801,-0.064606212079525
1683135813453727000,1.96472705078125,9.576674461364746,-0.9900303483009338,-0.23270200192928314
1683135813471548000,1.9825478515625,9.955936431884766,-0.9744769930839539,0.20757736265659332
1683135813489406000,2.000406005859375,9.649057388305664,-0.8321040868759155,-0.48514479398727417
1683135813507243800,2.018243896484375,9.731011390686035,-1.2143574953079224,0.32542386651039124
1683135813525079300,2.036079345703125,9.848857879638672,-0.5730810165405273,-0.40797626972198486
1683135813542922800,2.0539228515625,9.612566947937012,-1.430309772491455,0.08733802288770676
1683135813560759000,2.071759033203125,9.900303840637207,-0.6538388133049011,-0.12681959569454193
1683135813578598400,2.089598388671875,9.595218658447266,-1.0857433080673218,-0.13698910176753998
1683135813596426500,2.107426513671875,9.942177772521973,-0.8739784955978394,0.07417750358581543
1683135813614275300,2.125275390625,9.638887405395508,-0.8799605369567871,-0.3565305769443512
1683135813632114000,2.143114013671875,9.850054740905762,-1.1611171960830688,0.3355933725833893
1683135813649950200,2.1609501953125,9.78245735168457,-0.6215356588363647,-0.4654040038585663
1683135813667794200,2.178794189453125,9.664610862731934,-1.4105689525604248,0.2063809484243393
1683135813685611500,2.196611572265625,9.910472869873047,-0.615553617477417,-0.22193430364131927
1683135813703468300,2.21446826171875,9.5802640914917,-1.181456208229065,-0.037088751792907715
1683135813721303300,2.23230322265625,9.937392234802246,-0.8356932997703552,-0.01196411345154047
1683135813739145700,2.250145751953125,9.5862455368042,-0.9708877801895142,-0.251844584941864
1683135813756983800,2.26798388671875,9.765109062194824,-0.9553344249725342,0.22073788940906525
1683135813774824200,2.28582421875,9.748957633972168,-0.7124629616737366,-0.4325026869773865
1683135813792665300,2.303665283203125,9.750154495239258,-1.420140266418457,0.27337998151779175
1683135813810497000,2.3214970703125,9.844072341918945,-0.5730810165405273,-0.3320041298866272
1683135813828341200,2.33934130859375,9.594022750854492,-1.2819547653198242,0.07238288223743439
1683135813846178600,2.357178466796875,9.966704368591309,-0.7782655358314514,-0.1453639715909958
1683135813864016600,2.3750166015625,9.580862045288086,-1.0378868579864502,-0.07537391036748886
1683135813881855000,2.39285498046875,9.80399227142334,-0.8356932997703552,0.1256231814622879
1683135813899690800,2.410690673828125,9.65803050994873,-0.8225327730178833,-0.4133601188659668
1683135813917535200,2.42853515625,9.81655502319336,-1.3196417093276978,0.26919254660606384
1683135813935371300,2.446371337890625,9.787242889404297,-0.5635097622871399,-0.42293140292167664
1683135813953197300,2.464197265625,9.655637741088867,-1.3004990816116333,0.1824527233839035
1683135813971048000,2.4820478515625,9.92423152923584,-0.6879364848136902,-0.2267199456691742
1683135813988887300,2.49988720703125,9.480362892150879,-1.095314621925354,0.05742774158716202
1683135814006726000,2.517725830078125,9.818947792053223,-0.7304090857505798,-0.03170489892363548
1683135814024564200,2.535564208984375,9.752547264099121,-1.0139585733413696,-0.2554338276386261
1683135814042402800,2.55340283203125,9.765109062194824,-1.1186445951461792,0.22073788940906525
1683135814060241400,2.571241455078125,9.615557670593262,-0.664606511592865,-0.42352959513664246
1683135814078080300,2.589080322265625,9.759725570678711,-1.290927767753601,0.24047867953777313
1683135814095918600,2.606918701171875,9.839286804199219,-0.6305087804794312,-0.42711883783340454
1683135814113753000,2.624753173828125,9.546165466308594,-1.171286702156067,0.16749759018421173
1683135814131596300,2.64259619140625,9.885947227478027,-0.6586244106292725,-0.14117653667926788
1683135814149435100,2.66043505859375,9.68076229095459,-1.1383854150772095,-0.18424734473228455
1683135814167273000,2.67827294921875,9.708877563476562,-0.8883354067802429,0.14895321428775787
1683135814185112000,2.696112060546875,9.65384292602539,-0.7268198728561401,-0.4091726839542389
1683135814202937300,2.713937255859375,9.830911636352539,-1.2717852592468262,0.27397820353507996
1683135814220789800,2.731789794921875,9.758528709411621,-0.6741777658462524,-0.4420739710330963
1683135814238627000,2.749626953125,9.493523597717285,-1.2143574953079224,0.22911277413368225
1683135814256468200,2.76746826171875,9.853643417358398,-0.5730810165405273,-0.37447673082351685
1683135814274305800,2.785305908203125,9.656235694885254,-1.2436695098876953,0.0011964113218709826
1683135814292144400,2.803144287109375,9.747162818908691,-0.735194742679596,0.06759724020957947
1683135814309979400,2.8209794921875,9.638887405395508,-0.8895317912101746,-0.4085744619369507
1683135814327824600,2.83882470703125,9.831509590148926,-1.1515458822250366,0.26440688967704773
1683135814345660400,2.856660400390625,9.620942115783691,-0.6741777658462524,-0.4995017349720001
1683135814363499500,2.87449951171875,9.731609344482422,-1.1611171960830688,0.31106695532798767
1683135814381337600,2.892337646484375,9.924830436706543,-0.6065805554389954,-0.41216370463371277
1683135814399176400,2.910176513671875,9.598209381103516,-1.3489537239074707,0.09631111472845078
1683135814417014300,2.92801416015625,9.748359680175781,-0.6209374666213989,-0.1178465187549591
1683135814434850000,2.94585009765625,9.614361763000488,-1.0091729164123535,-0.26560330390930176
1683135814452688400,2.9636884765625,9.822537422180176,-1.0893324613571167,0.18783657252788544
1683135814470531300,2.98153125,9.54915714263916,-0.6933203339576721,-0.47617170214653015
1683135814488359700,2.999359619140625,9.817152976989746,-1.1467602252960205,0.2925225794315338
1683135814506209800,3.017209716796875,9.768099784851074,-0.6550351977348328,-0.5180460810661316
1683135814524043800,3.035043701171875,9.607781410217285,-1.3674981594085693,0.2063809484243393
1683135814541886000,3.052885986328125,9.829116821289062,-0.5730810165405273,-0.21296121180057526
1683135814559726000,3.07072607421875,9.637691497802734,-1.1766705513000488,-0.1417747437953949
1683135814577564400,3.088564453125,9.827322959899902,-0.9314061999320984,0.11605189740657806
1683135814595387600,3.1063876953125,9.548559188842773,-0.7986045479774475,-0.4091726839542389
1683135814613228300,3.124228271484375,9.964909553527832,-1.1754741668701172,0.25064817070961
1683135814631082000,3.14208203125,9.734601020812988,-0.7459624409675598,-0.5132604837417603
1683135814648918500,3.15991845703125,9.640682220458984,-1.2861422300338745,0.2632105052471161
1683135814666756400,3.17775634765625,9.834501266479492,-0.5300102233886719,-0.355932354927063
1683135814684594400,3.195594482421875,9.613164901733398,-1.3298112154006958,-0.046061836183071136
1683135814702433500,3.21343359375,9.861420631408691,-0.7974081635475159,-0.026919255033135414
1683135814720273000,3.23127294921875,9.591031074523926,-0.9708877801895142,-0.26141586899757385
1683135814738110500,3.2491103515625,9.926624298095703,-1.036690354347229,0.24526432156562805
1683135814755935700,3.266935791015625,9.634700775146484,-0.7986045479774475,-0.5186443328857422
1683135814773776600,3.284776611328125,9.707681655883789,-1.2143574953079224,0.3158525824546814
1683135814791616500,3.302616455078125,9.825528144836426,-0.5778666734695435,-0.40319061279296875
1683135814809455900,3.320455810546875,9.598209381103516,-1.4446666240692139,0.04426721855998039
1683135814827305500,3.338305419921875,9.881160736083984,-0.6921239495277405,-0.13160525262355804
1683135814845143300,3.356143310546875,9.580862045288086,-1.0474581718444824,-0.18484555184841156
1683135814862982000,3.37398193359375,9.942177772521973,-0.8835497498512268,0.11665010452270508
1683135814880819200,3.391819091796875,9.64367389678955,-0.8847461938858032,-0.36610186100006104
1683135814898660400,3.409660400390625,9.850054740905762,-1.1515458822250366,0.32602208852767944
1683135814916498200,3.427498291015625,9.787242889404297,-0.631106972694397,-0.4749752879142761
1683135814934337300,3.445337158203125,9.65503978729248,-1.4249259233474731,0.21595224738121033
1683135814952174600,3.463174560546875,9.914660453796387,-0.6059823632240295,-0.21236300468444824
1683135814970011000,3.481010986328125,9.57069206237793,-1.1958130598068237,-0.05623133108019829
1683135814987855600,3.498855712890625,9.927821159362793,-0.8309076428413391,0.0023928226437419653
1683135815005691600,3.516691650390625,9.595816612243652,-0.9708877801895142,-0.2805584669113159
1683135815023529500,3.534529541015625,9.803394317626953,-0.9744769930839539,0.2350948303937912
1683135815041366800,3.55236669921875,9.739386558532715,-0.7124629616737366,-0.45643091201782227
1683135815059209200,3.570209228515625,9.735796928405762,-1.4344971179962158,0.29730820655822754
1683135815077032200,3.5880322265625,9.834501266479492,-0.5395814776420593,-0.3415754437446594
1683135815094872300,3.605872314453125,9.589237213134766,-1.272383451461792,0.08195417374372482
1683135815112715000,3.623715087890625,9.966704368591309,-0.7734799385070801,-0.12622138857841492
1683135815130550300,3.64155029296875,9.589835166931152,-1.0187442302703857,-0.06580262631177902
1683135815148391000,3.659390869140625,9.81356430053711,-0.8165507316589355,0.12083754688501358
1683135815166230000,3.67722998046875,9.65803050994873,-0.8368897438049316,-0.4085744619369507
1683135815184068000,3.695068115234375,9.77408218383789,-1.3196417093276978,0.27816563844680786
1683135815201908500,3.712908447265625,9.744172096252441,-0.5826523303985596,-0.4372883439064026
1683135815219742500,3.730742431640625,9.655637741088867,-1.3100703954696655,0.1824527233839035
1683135815237583000,3.7485830078125,9.92423152923584,-0.6640082597732544,-0.25064817070961
1683135815255421200,3.766421142578125,9.475577354431152,-1.1048858165740967,0.06699903309345245
1683135815273259800,3.784259765625,9.828518867492676,-0.7256234884262085,-0.046061836183071136
1683135815291104500,3.8021044921875,9.728618621826172,-1.0235298871994019,-0.23210379481315613
1683135815308943000,3.819943115234375,9.760323524475098,-1.098903775215149,0.23988047242164612
1683135815326779000,3.83777880859375,9.606584548950195,-0.6550351977348328,-0.4378865361213684
1683135815344615700,3.85561572265625,9.745368003845215,-1.3196417093276978,0.2309073805809021
1683135815362465300,3.87346533203125,9.81117057800293,-0.625723123550415,-0.45104706287384033
1683135815380303400,3.891303466796875,9.555737495422363,-1.1665010452270508,0.1866401731967926
1683135815398142500,3.909142578125,9.900303840637207,-0.6442674994468689,-0.15074782073497772
1683135815415978000,3.92697802734375,9.66640567779541,-1.1431710720062256,-0.1417747437953949
1683135815433821000,3.944821044921875,9.704092025756836,-0.8452646136283875,0.13938191533088684
1683135815451659000,3.962658935546875,9.658628463745117,-0.7651050686836243,-0.4133601188659668
1683135815469498000,3.980498046875,9.845269203186035,-1.2711870670318604,0.2787638306617737
1683135815487336000,3.9983359375,9.725028991699219,-0.6448656916618347,-0.4181457459926605
1683135815505174800,4.0161748046875,9.512666702270508,-1.2047861814498901,0.2386840581893921
1683135815523008300,4.03400830078125,9.858428955078125,-0.5826523303985596,-0.3696911036968231
1683135815540851700,4.051851806640625,9.613164901733398,-1.2436695098876953,0.02512463741004467
1683135815558690800,4.06969091796875,9.738189697265625,-0.7208378314971924,0.029910283163189888
1683135815576530000,4.087530029296875,9.667601585388184,-0.9230313301086426,-0.37507495284080505
1683135815594367200,4.1053671875,9.81236743927002,-1.1419745683670044,0.2356930375099182
1683135815612206600,4.12320654296875,9.587442398071289,-0.6837490797042847,-0.4905286431312561
1683135815630042000,4.1410419921875,9.745368003845215,-1.1802598237991333,0.30209386348724365
1683135815647887000,4.15888720703125,9.92961597442627,-0.6209374666213989,-0.4169493317604065
1683135815665722400,4.176722412109375,9.602995872497559,-1.3537393808364868,0.12023933976888657
1683135815683561200,4.194561279296875,9.748359680175781,-0.5868397355079651,-0.1417747437953949
1683135815701399800,4.21239990234375,9.623932838439941,-1.052243709564209,-0.2512463629245758
1683135815719238700,4.23023876953125,9.812965393066406,-1.036690354347229,0.18305093050003052
1683135815737077200,4.2480771484375,9.558728218078613,-0.7028916478157043,-0.4618147611618042
1683135815754915800,4.265915771484375,9.864411354064941,-1.1563315391540527,0.3026920557022095
1683135815772751600,4.283751708984375,9.78245735168457,-0.6885347366333008,-0.5084748268127441
1683135815790593800,4.30159375,9.612566947937012,-1.32921302318573,0.24406790733337402
1683135815808432600,4.3194326171875,9.843474388122559,-0.5730810165405273,-0.24167509377002716
1683135815826271000,4.33727099609375,9.628120422363281,-1.2197413444519043,-0.11306086927652359
1683135815844102000,4.355101806640625,9.808777809143066,-0.9074779748916626,0.06819544732570648
1683135815861939700,4.372939697265625,9.539586067199707,-0.8129615187644958,-0.4091726839542389
1683135815879786500,4.390786376953125,9.936196327209473,-1.1324033737182617,0.2315055876970291
1683135815897625600,4.40862548828125,9.711270332336426,-0.7411768436431885,-0.5132604837417603
1683135815915464400,4.42646435546875,9.678967475891113,-1.2526426315307617,0.30149564146995544
1683135815933291800,4.444291748046875,9.839286804199219,-0.534795880317688,-0.355932354927063
1683135815951141400,4.462141357421875,9.594022750854492,-1.358525037765503,-0.013160524889826775
1683135815968979500,4.4799794921875,9.866804122924805,-0.7495517134666443,-0.05503492057323456
1683135815986808300,4.497808349609375,9.595218658447266,-0.99481600522995,-0.24227328598499298
1683135816004658200,4.515658203125,9.9409818649292,-1.036690354347229,0.21714866161346436
1683135816022496500,4.53349658203125,9.606584548950195,-0.7890332937240601,-0.5138586759567261
1683135816040335600,4.551335693359375,9.745368003845215,-1.2041879892349243,0.3116651475429535
1683135816058174000,4.569174072265625,9.830313682556152,-0.5730810165405273,-0.43190449476242065
1683135816076008400,4.587008544921875,9.588638305664062,-1.425524115562439,0.08733802288770676
1683135816093851100,4.60485107421875,9.881160736083984,-0.6729813814163208,-0.13160525262355804
1683135816111690200,4.622690185546875,9.595218658447266,-1.0857433080673218,-0.15613168478012085
1683135816129528600,4.640528564453125,9.961320877075195,-0.8644071817398071,0.08853443711996078
1683135816147367700,4.65836767578125,9.638887405395508,-0.9134600162506104,-0.34217363595962524
1683135816165201400,4.676201416015625,9.859625816345215,-1.1467602252960205,0.32602208852767944
1683135816183044900,4.694044921875,9.763314247131348,-0.6550351977348328,-0.48454657196998596
1683135816200883500,4.711883544921875,9.645467758178711,-1.4057832956314087,0.2063809484243393
1683135816218721000,4.729720947265625,9.881759643554688,-0.5772684812545776,-0.23629122972488403
1683135816236561700,4.747561767578125,9.5802640914917,-1.2197413444519043,-0.04187439754605293
1683135816254387000,4.765386962890625,9.92841911315918,-0.8261220455169678,-0.016749758273363113
1683135816272238600,4.783238525390625,9.581459999084473,-0.9565308690071106,-0.251844584941864
1683135816290074600,4.80107470703125,9.803394317626953,-0.9505487680435181,0.22552353143692017
1683135816307918300,4.81891845703125,9.739386558532715,-0.7124629616737366,-0.45164528489112854
1683135816325754600,4.836754638671875,9.740582466125488,-1.420140266418457,0.29730820655822754
1683135816343593200,4.85459326171875,9.8207426071167,-0.5204389095306396,-0.3655036687850952
1683135816361432000,4.87243212890625,9.579665184020996,-1.3058829307556152,0.11066804826259613
1683135816379271000,4.89027099609375,9.942776679992676,-0.768694281578064,-0.15493527054786682
1683135816397106200,4.908106201171875,9.57607650756836,-1.0139585733413696,-0.05623133108019829
1683135816414943700,4.92594384765625,9.818349838256836,-0.8309076428413391,0.10648060590028763
1683135816432781000,4.943781005859375,9.648459434509277,-0.8512466549873352,-0.40378883481025696
1683135816450628400,4.96162841796875,9.807581901550293,-1.2759727239608765,0.2835494875907898
1683135816468466000,4.9794658203125,9.772886276245117,-0.5539384484291077,-0.4372883439064026
1683135816486296600,4.997296630859375,9.66939640045166,-1.3387842178344727,0.22073788940906525
1683135816504142300,5.015142333984375,9.90568733215332,-0.6448656916618347,-0.24586252868175507
1683135816521973200,5.03297314453125,9.484550476074219,-1.0857433080673218,0.08135596662759781
1683135816539818200,5.050818359375,9.833304405212402,-0.7160521745681763,-0.050847481936216354
1683135816557656300,5.06865625,9.723833084106445,-1.033101201057434,-0.23688943684101105
1683135816575498500,5.08649853515625,9.750752449035645,-1.0893324613571167,0.23030917346477509
1683135816593341200,5.104341064453125,9.634700775146484,-0.6454638838768005,-0.44745782017707825
1683135816611172900,5.1221728515625,9.735796928405762,-1.3052847385406494,0.24466611444950104
1683135816629014000,5.140013916015625,9.79681396484375,-0.5970092415809631,-0.43190449476242065
1683135816646846000,5.157845947265625,9.56052303314209,-1.1856436729431152,0.19142581522464752
1683135816664685600,5.175685546875,9.90987491607666,-0.6538388133049011,-0.16450655460357666
1683135816682533400,5.193533447265625,9.65683364868164,-1.1479566097259521,-0.12741780281066895
1683135816700366300,5.211366455078125,9.718449592590332,-0.8548358678817749,0.12502498924732208
1683135816718206500,5.22920654296875,9.65384292602539,-0.7746763229370117,-0.42293140292167664
1683135816736041000,5.247041015625,9.821340560913086,-1.2861422300338745,0.27397820353507996
1683135816753884000,5.2648837890625,9.729815483093262,-0.6502495408058167,-0.4420739710330963
1683135816771728600,5.282728759765625,9.512666702270508,-1.2239288091659546,0.2386840581893921
1683135816789561600,5.3005615234375,9.848857879638672,-0.5970092415809631,-0.3607180118560791
1683135816807397000,5.318397216796875,9.617950439453125,-1.2197413444519043,0.02512463741004467
1683135816825241000,5.336240966796875,9.714262008666992,-0.7160521745681763,0.03888336941599846
1683135816843077400,5.354077392578125,9.667601585388184,-0.908674418926239,-0.37507495284080505
1683135816860915000,5.3719150390625,9.807581901550293,-1.1419745683670044,0.2356930375099182
1683135816878755600,5.389755615234375,9.592227935791016,-0.664606511592865,-0.4953143000602722
1683135816896597000,5.407596923828125,9.750154495239258,-1.170688509941101,0.3068794906139374
1683135816914420700,5.425420654296875,9.915258407592773,-0.6017948985099792,-0.39840495586395264
1683135816932268500,5.4432685546875,9.588638305664062,-1.3489537239074707,0.12502498924732208
1683135816950113300,5.46111328125,9.743574142456055,-0.5724828243255615,-0.1417747437953949
1683135816967947300,5.478947265625,9.614361763000488,-1.052243709564209,-0.2512463629245758
1683135816985787100,5.496787109375,9.80817985534668,-1.0414760112762451,0.17347964644432068
1683135817003626000,5.5146259765625,9.544371604919434,-0.7028916478157043,-0.4713860750198364
1683135817021464300,5.53246435546875,9.869196891784668,-1.1515458822250366,0.29312077164649963
1683135817039303700,5.5503037109375,9.777671813964844,-0.6741777658462524,-0.5276173949241638
1683135817057142500,5.568142578125,9.588638305664062,-1.3435698747634888,0.24885354936122894
1683135817074981400,5.5859814453125,9.834501266479492,-0.5539384484291077,-0.2560320198535919
1683135817092815000,5.603815185546875,9.66102123260498,-1.1910275220870972,-0.12263216078281403
1683135817110658300,5.621658203125,9.784850120544434,-0.8835497498512268,0.07776673883199692
1683135817128482000,5.63948193359375,9.539586067199707,-0.8033902049064636,-0.4091726839542389
1683135817146338800,5.6573388671875,9.964909553527832,-1.1467602252960205,0.23629122972488403
1683135817164174000,5.675174072265625,9.696913719177246,-0.7363911867141724,-0.5180460810661316
1683135817182012200,5.69301220703125,9.65503978729248,-1.2430713176727295,0.2967100143432617
1683135817199853300,5.710853271484375,9.844072341918945,-0.5204389095306396,-0.3798605799674988
1683135817217690400,5.7286904296875,9.617950439453125,-1.3824533224105835,0.005982056725770235
1683135817235530200,5.7465302734375,9.842875480651855,-0.7591229677200317,-0.05563312768936157
1683135817253363700,5.76436376953125,9.600603103637695,-0.9708877801895142,-0.26141586899757385
1683135817271207000,5.78220703125,9.945767402648926,-1.036690354347229,0.2267199456691742
1683135817289046000,5.8000458984375,9.573084831237793,-0.7698906660079956,-0.5234299302101135
1683135817306883800,5.8178837890625,9.754940032958984,-1.2185449600219727,0.3164508044719696
1683135817324723500,5.835723388671875,9.825528144836426,-0.6065805554389954,-0.4366901218891144
1683135817342560000,5.85356005859375,9.598209381103516,-1.430309772491455,0.11066804826259613
1683135817360403500,5.871403564453125,9.866804122924805,-0.6346961855888367,-0.1459621787071228
1683135817378238000,5.889238037109375,9.600004196166992,-1.0666006803512573,-0.17527425289154053
1683135817396079000,5.9070791015625,9.956535339355469,-0.8787640929222107,0.08853443711996078
1683135817413917200,5.924917236328125,9.629316329956055,-0.8895317912101746,-0.3613162338733673
1683135817431756000,5.942756103515625,9.869196891784668,-1.1563315391540527,0.32662028074264526
1683135817449594400,5.960594482421875,9.772886276245117,-0.6400800347328186,-0.4941178858280182
1683135817467430000,5.978429931640625,9.650253295898438,-1.439282774925232,0.22073788940906525
1683135817485274600,5.996274658203125,9.89133071899414,-0.5772684812545776,-0.22193430364131927
1683135817503105800,6.014105712890625,9.5802640914917,-1.2293126583099365,-0.05144568532705307
1683135817520948700,6.03194873046875,9.927821159362793,-0.8452646136283875,-0.01196411345154047
1683135817538787800,6.049787841796875,9.567103385925293,-0.9804590940475464,-0.26620152592658997
1683135817556627000,6.067626953125,9.836894035339355,-0.9649057388305664,0.22133609652519226
1683135817574454300,6.085454345703125,9.729815483093262,-0.7124629616737366,-0.4372883439064026
1683135817592300800,6.10330078125,9.735796928405762,-1.420140266418457,0.29730820655822754
1683135817610146000,6.12114599609375,9.81535816192627,-0.5443671345710754,-0.355932354927063
1683135817627981600,6.138981689453125,9.579665184020996,-1.3154542446136475,0.07238288223743439
1683135817645821000,6.156821044921875,9.952347755432129,-0.7495517134666443,-0.12143574655056
1683135817663658800,6.17465869140625,9.57607650756836,-1.0037890672683716,-0.061016976833343506
1683135817681498000,6.192498046875,9.808777809143066,-0.8261220455169678,0.12083754688501358
1683135817699337000,6.2103369140625,9.649057388305664,-0.8033902049064636,-0.42293140292167664
1683135817717175800,6.22817578125,9.783653259277344,-1.2999008893966675,0.29730820655822754
1683135817735014100,6.24601416015625,9.763314247131348,-0.5587241053581238,-0.4468596279621124
1683135817752852700,6.263852783203125,9.664610862731934,-1.3244273662567139,0.1824527233839035
1683135817770679800,6.2816796875,9.914660453796387,-0.6394818425178528,-0.2315055876970291
1683135817788530700,6.29953076171875,9.475577354431152,-1.090528964996338,0.062213387340307236
1683135817806369300,6.317369384765625,9.857233047485352,-0.735194742679596,-0.050847481936216354
1683135817824196000,6.335196044921875,9.742975234985352,-1.0235298871994019,-0.24107688665390015
1683135817842047500,6.353047607421875,9.750752449035645,-1.0845468044281006,0.22073788940906525
1683135817859882200,6.37088232421875,9.611370086669922,-0.6550351977348328,-0.4570291340351105
1683135817877727000,6.38872705078125,9.726225852966309,-1.3244273662567139,0.2590230405330658
1683135817895558100,6.40655810546875,9.806385040283203,-0.6017948985099792,-0.4223332107067108
1683135817913402000,6.424402099609375,9.583852767944336,-1.1904292106628418,0.20578274130821228
1683135817931241000,6.442240966796875,9.976275444030762,-0.7208378314971924,-0.19262222945690155
1683135817949077800,6.460077880859375,9.695717811584473,-0.9182456731796265,-0.3415754437446594
1683135817966905000,6.477905029296875,9.658628463745117,-0.3332005441188812,-0.28534409403800964
1683135817984759800,6.495759765625,9.605388641357422,-0.8847461938858032,-0.2991028428077698
1683135818002595600,6.513595703125,9.702896118164062,-1.1754741668701172,0.32542386651039124
1683135818020434000,6.531433837890625,9.680164337158203,-1.0947163105010986,-0.003589233849197626
1683135818038272800,6.549272705078125,9.573683738708496,-1.4344971179962158,0.41096729040145874
1683135818056112600,6.567112548828125,9.981060981750488,-0.9224331378936768,-0.21176479756832123
1683135818073951200,6.584951171875,9.671191215515137,-1.1096714735031128,-0.15553347766399384
1683135818091786000,6.602785888671875,9.768698692321777,-0.39601215720176697,-0.389431893825531
1683135818109618200,6.6206181640625,9.687342643737793,-0.8225327730178833,-0.5659025311470032
1683135818127470300,6.63847021484375,9.67657470703125,-0.7166503667831421,-0.04666004329919815
1683135818145301000,6.656301025390625,9.500701904296875,-0.8847461938858032,-0.30927231907844543
1683135818163144000,6.67414404296875,9.678369522094727,-1.3046865463256836,0.4875376224517822
1683135818180971300,6.69197119140625,9.870393753051758,-1.0803594589233398,-0.01196411345154047
1683135818198822100,6.709822265625,9.616754531860352,-1.439282774925232,0.31106695532798767
1683135818216656100,6.72765625,9.876974105834961,-0.582054078578949,-0.26979073882102966
1683135818234485000,6.745485107421875,9.66640567779541,-1.1335997581481934,-0.26081767678260803
1683135818252338200,6.763338134765625,9.799206733703613,-0.9409775137901306,0.0687936544418335
1683135818270166000,6.781166015625,9.558728218078613,-0.7651050686836243,-0.45224347710609436
1683135818288019200,6.799019287109375,9.841081619262695,-1.1850453615188599,0.26440688967704773
1683135818305854000,6.81685400390625,9.759127616882324,-0.6550351977348328,-0.5276173949241638
1683135818323693600,6.834693603515625,9.621540069580078,-1.3196417093276978,0.25363919138908386
1683135818341532000,6.852531982421875,9.834501266479492,-0.5533402562141418,-0.2512463629245758
1683135818359370500,6.87037060546875,9.637093544006348,-1.2388839721679688,-0.10348957777023315
1683135818377209900,6.8882099609375,9.77527904510498,-0.8548358678817749,0.08733802288770676
1683135818395048400,6.90604833984375,9.577272415161133,-0.8321040868759155,-0.41874396800994873
1683135818412887300,6.92388720703125,9.993025779724121,-1.2233306169509888,0.2560320198535919
1683135818430730000,6.94172998046875,9.748957633972168,-0.7890332937240601,-0.5748756527900696
1683135818448552700,6.959552734375,9.709476470947266,-0.7932206988334656,-0.061016976833343506
1683135818466398700,6.977398681640625,9.80219841003418,-0.3768695592880249,-0.5611169338226318
1683135818484239000,6.995239013671875,9.442078590393066,-1.109073281288147,0.09511470049619675
1683135818502084000,7.013083984375,9.737591743469238,-0.802193820476532,0.08733802288770676
1683135818519919400,7.03091943359375,9.574281692504883,-1.4398809671401978,0.1537388563156128
1683135818537758700,7.0487587890625,10.016355514526367,-1.280758261680603,0.2991028428077698
1683135818555583700,7.066583740234375,9.733404159545898,-1.1527422666549683,-0.24107688665390015
1683135818573425000,7.0844248046875,9.903892517089844,-0.9218349456787109,0.016749758273363113
1683135818591269000,7.10226904296875,9.878767967224121,-0.5108676552772522,-0.6699903607368469
1683135818609102800,7.120102783203125,9.495916366577148,-0.8799605369567871,-0.19980068504810333
1683135818626946600,7.137946533203125,9.753743171691895,-0.39062830805778503,-0.2470589429140091
1683135818644780000,7.155780029296875,9.546764373779297,-1.2388839721679688,-0.02751746028661728
1683135818662618000,7.1736181640625,9.865009307861328,-1.0462616682052612,0.32123643159866333
1683135818680467500,7.191467529296875,9.607781410217285,-1.3728820085525513,0.06819544732570648
1683135818698298000,7.209298095703125,9.949954986572266,-1.1419745683670044,0.3314059376716614
1683135818716136000,7.227135986328125,9.915258407592773,-0.7980063557624817,-0.46002015471458435
1683135818733980700,7.244980712890625,9.603593826293945,-1.200000524520874,0.08195417374372482
1683135818751811800,7.262811767578125,9.839286804199219,-0.5246263742446899,-0.21774685382843018
1683135818769651200,7.280651123046875,9.5802640914917,-1.296311616897583,-0.04666004329919815
1683135818787491000,7.298490966796875,9.918848037719727,-0.7926225066184998,-0.02153540402650833
1683135818805341700,7.316341796875,9.591031074523926,-0.9900303483009338,-0.26141586899757385
1683135818823179000,7.334178955078125,9.855438232421875,-0.9744769930839539,0.2309073805809021
1683135818841017900,7.352017822265625,9.725028991699219,-0.722034215927124,-0.4654040038585663
1683135818858856700,7.369856689453125,9.716654777526855,-1.4105689525604248,0.2925225794315338
1683135818876695300,7.3876953125,9.829715728759766,-0.5300102233886719,-0.355932354927063
1683135818894522600,7.405522705078125,9.602995872497559,-1.358525037765503,0.07776673883199692
1683135818912360000,7.42335986328125,9.942776679992676,-0.7304090857505798,-0.10229317098855972
1683135818930213400,7.44121337890625,9.571290969848633,-1.0325030088424683,-0.061016976833343506
1683135818948050200,7.45905029296875,9.808777809143066,-0.8309076428413391,0.11605189740657806
1683135818965889500,7.4768896484375,9.634700775146484,-0.8129615187644958,-0.4085744619369507
1683135818983727900,7.494727783203125,9.77408218383789,-1.2759727239608765,0.3116651475429535
1683135819001567200,7.512567138671875,9.772886276245117,-0.5682953596115112,-0.4420739710330963
1683135819019405300,7.5304052734375,9.65503978729248,-1.357926845550537,0.19202402234077454
1683135819037239300,7.5482392578125,9.89133071899414,-0.6299105882644653,-0.22193430364131927
1683135819055083500,7.56608349609375,9.494720458984375,-1.0660024881362915,0.04785645380616188
1683135819072932400,7.583932373046875,9.842875480651855,-0.7543373107910156,-0.0364905446767807
1683135819090760400,7.601760498046875,9.723833084106445,-1.0133603811264038,-0.2225325107574463
1683135819108599800,7.619599853515625,9.731609344482422,-1.0462616682052612,0.2350948303937912
1683135819126435800,7.637435791015625,9.634700775146484,-0.6550351977348328,-0.45164528489112854
1683135819144280300,7.6552802734375,9.711869239807129,-1.357926845550537,0.2638086974620819
1683135819162115600,7.673115478515625,9.792028427124023,-0.5826523303985596,-0.42711883783340454
1683135819179955200,7.690955078125,9.598808288574219,-1.1856436729431152,0.17288143932819366
1683135819197793800,7.708793701171875,9.866804122924805,-0.6586244106292725,-0.15074782073497772
1683135819215633000,7.7266328125,9.632905960083008,-1.1288141012191772,-0.12741780281066895
1683135819233466600,7.744466552734375,9.69930648803711,-0.8165507316589355,0.14416755735874176
1683135819251310000,7.76231005859375,9.667601585388184,-0.7794619798660278,-0.40378883481025696
1683135819269149000,7.78014892578125,9.802796363830566,-1.2759727239608765,0.27397820353507996
1683135819286988000,7.797988037109375,9.67777156829834,-0.6400800347328186,-0.4468596279621124
1683135819304826000,7.815826171875,9.55513858795166,-1.2143574953079224,0.2392822653055191
1683135819322649600,7.833649658203125,9.858428955078125,-0.5970092415809631,-0.3696911036968231
1683135819340504300,7.85150439453125,9.598808288574219,-1.2095718383789062,0.05383851006627083
1683135819358341600,7.869341552734375,9.699904441833496,-0.6777670383453369,0.029312077909708023
1683135819376183300,7.887183349609375,9.686744689941406,-0.9421738982200623,-0.389431893825531
1683135819394020600,7.9050205078125,9.789037704467773,-1.1371889114379883,0.22612173855304718
1683135819411859200,7.922859130859375,9.57787036895752,-0.6550351977348328,-0.4905286431312561
1683135819429698800,7.94069873046875,9.78843879699707,-1.2137593030929565,0.2787638306617737
1683135819447536400,7.958536376953125,9.863214492797852,-0.625723123550415,-0.40319061279296875
1683135819465375700,7.976375732421875,9.565308570861816,-1.3052847385406494,0.12023933976888657
1683135819483214300,7.99421435546875,9.734002113342285,-0.5724828243255615,-0.18484555184841156
1683135819501054200,8.01205419921875,9.643074989318848,-1.090528964996338,-0.2273181527853012
1683135819518891800,8.029891845703125,9.798608779907227,-1.0031908750534058,0.17347964644432068
1683135819536731000,8.04773095703125,9.573084831237793,-0.7172485589981079,-0.47617170214653015
1683135819554564900,8.06556494140625,9.897911071777344,-1.194616675376892,0.2787638306617737
1683135819572404000,8.083404052734375,9.772886276245117,-0.6592226624488831,-0.5276173949241638
1683135819590247400,8.101247314453126,9.612566947937012,-1.3004990816116333,0.2584248483181
1683135819608085800,8.119085693359375,9.829715728759766,-0.5676971673965454,-0.26500511169433594
1683135819625926100,8.136926025390625,9.641879081726074,-1.2436695098876953,-0.09870393574237823
1683135819643761000,8.154760986328125,9.784850120544434,-0.8548358678817749,0.058624155819416046
1683135819661605400,8.17260546875,9.58205795288086,-0.8321040868759155,-0.42352959513664246
1683135819679440600,8.190440673828125,9.9409818649292,-1.1563315391540527,0.21236300468444824
1683135819697269800,8.208269775390624,9.658628463745117,-0.722034215927124,-0.5138586759567261
1683135819715119900,8.226119873046875,9.698110580444336,-1.2185449600219727,0.3158525824546814
1683135819732942300,8.2439423828125,9.839286804199219,-0.5252245664596558,-0.39840495586395264
1683135819750801000,8.26180078125,9.584450721740723,-1.3920245170593262,0.05383851006627083
1683135819768632600,8.279632568359375,9.833304405212402,-0.706480860710144,-0.08374879509210587
1683135819786478000,8.29747802734375,9.609575271606445,-0.9996016621589661,-0.2231307178735733
1683135819804313000,8.31531298828125,9.91286563873291,-1.0271191596984863,0.21714866161346436
1683135819822141000,8.333140869140625,9.568299293518066,-0.7938188910484314,-0.5042873620986938
1683135819839991000,8.350990966796875,9.79801082611084,-1.1802598237991333,0.30209386348724365
1683135819857830400,8.368830322265625,9.81117057800293,-0.6017948985099792,-0.45583271980285645
1683135819875664000,8.386663818359375,9.583852767944336,-1.4297115802764893,0.17288143932819366
1683135819893507600,8.404507568359374,9.833903312683105,-0.6059823632240295,-0.1698904037475586
1683135819911346200,8.42234619140625,9.628120422363281,-1.1431710720062256,-0.13220344483852386
1683135819929185800,8.440185791015624,9.942177772521973,-0.8883354067802429,0.04546362906694412
1683135819947025000,8.45802490234375,9.614959716796875,-0.8847461938858032,-0.3326023519039154
1683135819964863200,8.47586328125,9.912267684936523,-1.1180464029312134,0.32183465361595154
1683135819982698200,8.4936982421875,9.763314247131348,-0.6400800347328186,-0.4941178858280182
1683135820000539600,8.51153955078125,9.664610862731934,-1.4105689525604248,0.24466611444950104
1683135820018377200,8.529377197265624,9.844072341918945,-0.5389832854270935,-0.2793620526790619
1683135820036221700,8.5472216796875,9.584450721740723,-1.2819547653198242,-0.017946170642971992
1683135820054057200,8.56505712890625,9.918848037719727,-0.8165507316589355,-0.02632104977965355
1683135820071886600,8.582886474609374,9.562317848205566,-0.966102123260498,-0.20877377688884735
1683135820089734700,8.600734619140624,9.798608779907227,-0.893121063709259,0.19740787148475647
1683135820107573500,8.618573486328126,9.701101303100586,-0.7405785918235779,-0.4325026869773865
1683135820125412400,8.636412353515626,9.750154495239258,-1.3716856241226196,0.33080771565437317
1683135820143251500,8.65425146484375,9.772886276245117,-0.5300102233886719,-0.389431893825531
1683135820161089800,8.67208984375,9.57906723022461,-1.3148560523986816,0.13459627330303192
1683135820178929200,8.68992919921875,9.900303840637207,-0.7016952633857727,-0.1501496136188507
1683135820196763400,8.707763427734376,9.547362327575684,-1.0564311742782593,-0.04666004329919815
1683135820214607400,8.725607421875,9.842277526855469,-0.7878368496894836,0.05922235921025276
1683135820232445700,8.74344580078125,9.677172660827637,-0.8847461938858032,-0.3607180118560791
1683135820250283500,8.761283447265624,9.745368003845215,-1.1850453615188599,0.3068794906139374
1683135820268124200,8.779124267578124,9.67777156829834,-0.6065805554389954,-0.4660021960735321
1683135820285962500,8.79696240234375,9.68375301361084,-1.353141188621521,0.23988047242164612
1683135820303800800,8.81480078125,9.89133071899414,-0.6203392744064331,-0.2841476798057556
1683135820321639000,8.832638916015625,9.522835731506348,-1.1377872228622437,0.1052841991186142
1683135820339480000,8.85047998046875,9.866804122924805,-0.7304090857505798,-0.11246266216039658
1683135820357318100,8.868318115234375,9.685547828674316,-1.0803594589233398,-0.21296121180057526
1683135820375156500,8.886156494140625,9.746564865112305,-0.9457631707191467,0.2063809484243393
1683135820392995000,8.9039951171875,9.639486312866211,-0.6933203339576721,-0.4468596279621124
1683135820410834400,8.92183447265625,9.769296646118164,-1.3525429964065552,0.27397820353507996
1683135820428674300,8.93967431640625,9.725627899169922,-0.6065805554389954,-0.4707878530025482
1683135820446510600,8.957510498046876,9.579665184020996,-1.1808580160140991,0.20578274130821228
1683135820464335400,8.97533544921875,9.900901794433594,-0.6299105882644653,-0.24107688665390015
1683135820482189600,8.993189453125,9.618548393249512,-1.1665010452270508,-0.05144568532705307
1683135820500026000,9.011026123046875,9.690333366394043,-0.7543373107910156,0.048454657196998596
1683135820517869800,9.028869873046874,9.69631576538086,-0.875174880027771,-0.4133601188659668
1683135820535706400,9.046706298828125,9.8267240524292,-1.2376874685287476,0.25004997849464417
1683135820553545200,9.064545166015625,9.597013473510742,-0.6263213157653809,-0.44745782017707825
1683135820571382800,9.0823828125,9.678967475891113,-1.2329018115997314,0.2638086974620819
1683135820589211600,9.100211669921874,9.81117057800293,-0.5874379873275757,-0.39840495586395264
1683135820607062000,9.11806201171875,9.518050193786621,-1.2526426315307617,0.06759724020957947
1683135820624900400,9.135900390625,9.757332801818848,-0.649053156375885,-0.07477571070194244
1683135820642733300,9.1537333984375,9.709476470947266,-1.0426725149154663,-0.29371899366378784
1683135820660580600,9.17158056640625,9.765109062194824,-1.074975609779358,0.19740787148475647
1683135820678417000,9.1894169921875,9.544371604919434,-0.6358926296234131,-0.48574298620224
1683135820696256000,9.207256103515626,9.836296081542969,-1.2041879892349243,0.26919254660606384
1683135820714095000,9.22509521484375,9.806385040283203,-0.6161518096923828,-0.4749752879142761
1683135820731933700,9.24293359375,9.612566947937012,-1.3387842178344727,0.2063809484243393
1683135820749770000,9.26077001953125,9.805787086486816,-0.5724828243255615,-0.23210379481315613
1683135820767614200,9.2786142578125,9.642477035522461,-1.1623135805130005,-0.1986042857170105
1683135820785450500,9.296450439453125,9.808777809143066,-0.9553344249725342,0.11126625537872314
1683135820803288800,9.314288818359374,9.58205795288086,-0.784247636795044,-0.45224347710609436
1683135820821109500,9.332109619140626,9.907482147216797,-1.2041879892349243,0.26979073882102966
1683135820838966500,9.349966552734376,9.687342643737793,-0.6837490797042847,-0.5276173949241638
1683135820856806100,9.36780615234375,9.645467758178711,-1.26699960231781,0.27756741642951965
1683135820874645800,9.385645751953126,9.863214492797852,-0.5676971673965454,-0.35054850578308105
1683135820892482600,9.403482666015625,9.637093544006348,-1.334596872329712,-0.026919255033135414
1683135820910322200,9.421322265625,9.832706451416016,-0.8117650747299194,-0.0029910283628851175
1683135820928158700,9.43915869140625,9.581459999084473,-0.9134600162506104,-0.34217363595962524
1683135820946002200,9.457002197265625,9.921838760375977,-1.0654042959213257,0.21714866161346436
1683135820963834000,9.474834228515626,9.616155624389648,-0.722034215927124,-0.50907301902771
1683135820981678000,9.492677978515625,9.77408218383789,-1.2137593030929565,0.3403790295124054
1683135820999517000,9.510516845703124,9.806385040283203,-0.5587241053581238,-0.4366901218891144
1683135821017355500,9.52835546875,9.570094108581543,-1.4063814878463745,0.07776673883199692
1683135821035195000,9.54619482421875,9.862018585205078,-0.6586244106292725,-0.12681959569454193
1683135821053033200,9.564033203125,9.614361763000488,-1.0713863372802734,-0.1944168359041214
1683135821070872000,9.5818720703125,9.91286563873291,-0.9361918568611145,0.13579268753528595
1683135821088706300,9.599706298828124,9.620343208312988,-0.841675341129303,-0.4043870270252228
1683135821106554400,9.617554443359374,9.845269203186035,-1.1467602252960205,0.3170489966869354
1683135821124389000,9.63538916015625,9.777671813964844,-0.6352944374084473,-0.5132604837417603
1683135821142213600,9.653213623046875,9.65503978729248,-1.4249259233474731,0.25423741340637207
1683135821160067600,9.671067626953125,9.867402076721191,-0.5485545992851257,-0.20757736265659332
1683135821177906700,9.68890673828125,9.608977317810059,-1.2239288091659546,-0.06520441919565201
1683135821195744300,9.706744140625,9.913464546203613,-0.8500502705574036,0.016749758273363113
1683135821213570600,9.724570556640625,9.576674461364746,-0.9326026439666748,-0.29012975096702576
1683135821231422000,9.742421875,9.91705322265625,-1.031306505203247,0.26440688967704773
1683135821249261000,9.760260986328126,9.744172096252441,-0.711864709854126,-0.4462614357471466
1683135821267100000,9.778099853515625,9.721440315246582,-1.3962119817733765,0.30209386348724365
1683135821284926200,9.79592626953125,9.834501266479492,-0.529412031173706,-0.35114672780036926
1683135821302775000,9.813775146484375,9.598808288574219,-1.3196417093276978,0.08255238085985184
1683135821320616400,9.831616455078125,9.937990188598633,-0.7639086246490479,-0.09272187948226929
1683135821338454500,9.84945458984375,9.580862045288086,-1.01814603805542,-0.0849452018737793
1683135821356291800,9.867291748046876,9.827920913696289,-0.8404789566993713,0.10648060590028763
1683135821374133000,9.885133056640624,9.644271850585938,-0.8225327730178833,-0.4325026869773865
1683135821391969000,9.902968994140625,9.77408218383789,-1.2903295755386353,0.3068794906139374
1683135821409813000,9.92081298828125,9.753743171691895,-0.5539384484291077,-0.4468596279621124
1683135821427651000,9.938651123046874,9.707681655883789,-1.357926845550537,0.22133609652519226
1683135821445488000,9.956488037109375,9.90568733215332,-0.6299105882644653,-0.2315055876970291
1683135821463327200,9.9743271484375,9.513264656066895,-1.0755738019943237,0.06699903309345245
1683135821481161000,9.992160888671876,9.852447509765625,-0.7304090857505798,-0.05503492057323456
1683135821499006000,10.010005859375,9.733404159545898,-1.0037890672683716,-0.21774685382843018
1683135821516841200,10.02784130859375,9.755537986755371,-1.0223335027694702,0.22073788940906525
1683135821534681600,10.045681640625,9.639486312866211,-0.6544370055198669,-0.48035913705825806
1683135821552521700,10.063521728515624,9.740582466125488,-1.3286148309707642,0.268594354391098
1683135821570361000,10.081361083984374,9.79681396484375,-0.5778666734695435,-0.4175475537776947
1683135821588200400,10.099200439453124,9.602995872497559,-1.1617153882980347,0.19142581522464752
1683135821606023400,10.1170234375,9.89551830291748,-0.6251249313354492,-0.1788634955883026
1683135821623867000,10.134866943359375,9.642477035522461,-1.1617153882980347,-0.10348957777023315
1683135821641719300,10.15271923828125,9.689735412597656,-0.8117650747299194,0.08195417374372482
1683135821659554000,10.170553955078125,9.691530227661133,-0.8123632669448853,-0.40378883481025696
1683135821677393700,10.1883935546875,9.840482711791992,-1.256830096244812,0.26919254660606384
1683135821695233000,10.20623291015625,9.644271850585938,-0.592223584651947,-0.42831525206565857
1683135821713068800,10.22406884765625,9.636494636535645,-1.2089736461639404,0.2679961323738098
1683135821730909400,10.241909423828124,9.858428955078125,-0.6113662123680115,-0.3888336718082428
1683135821748748300,10.259748291015624,9.565308570861816,-1.2335001230239868,0.0771685317158699
1683135821766591700,10.277591796875,9.757332801818848,-0.6538388133049011,-0.037088751792907715
1683135821784413200,10.2954130859375,9.710074424743652,-1.0187442302703857,-0.32243284583091736
1683135821802260000,10.313260009765624,9.760323524475098,-1.1084750890731812,0.21655045449733734
1683135821820108000,10.33110791015625,9.553942680358887,-0.6454638838768005,-0.5000999569892883
1683135821837944300,10.3489443359375,9.831509590148926,-1.2137593030929565,0.2787638306617737
1683135821855778600,10.366778564453124,9.834501266479492,-0.6305087804794312,-0.45583271980285645
1683135821873621800,10.384621826171875,9.598209381103516,-1.357926845550537,0.16809579730033875
1683135821891459800,10.4024599609375,9.748359680175781,-0.582054078578949,-0.21774685382843018
1683135821909301000,10.420301025390625,9.66640567779541,-1.1431710720062256,-0.21774685382843018
1683135821927138800,10.438138916015625,9.812965393066406,-0.9601200819015503,0.13519448041915894
1683135821944977200,10.45597705078125,9.605986595153809,-0.7411768436431885,-0.44745782017707825
1683135821962812700,10.473812744140625,9.954740524291992,-1.1994023323059082,0.28893333673477173
1683135821980654000,10.491654052734376,9.716055870056152,-0.7028916478157043,-0.5228317379951477
1683135821998496000,10.50949609375,9.659825325012207,-1.2472587823867798,0.27337998151779175
1683135822016330000,10.527330078125,9.882357597351074,-0.5629115104675293,-0.32662028074264526
1683135822034175200,10.54517529296875,9.6466646194458,-1.2957134246826172,-0.0364905446767807
1683135822051997200,10.5629970703125,9.837491989135742,-0.8452646136283875,0.020937198773026466
1683135822069839400,10.58083935546875,9.591031074523926,-0.8943174481391907,-0.3613162338733673
1683135822087678000,10.598677978515624,9.936196327209473,-1.079761266708374,0.21714866161346436
1683135822105515300,10.616515380859376,9.634700775146484,-0.7363911867141724,-0.5138586759567261
1683135822123357200,10.634357177734374,9.740582466125488,-1.2233306169509888,0.3451646566390991
1683135822141198800,10.65219873046875,9.792028427124023,-0.5587241053581238,-0.45104706287384033
1683135822159036400,10.670036376953124,9.583852767944336,-1.3962119817733765,0.0729810893535614
1683135822176874500,10.68787451171875,9.871589660644531,-0.6586244106292725,-0.10767702013254166
1683135822194711800,10.7057119140625,9.604789733886719,-1.01814603805542,-0.1944168359041214
1683135822212549600,10.723549560546875,9.941579818725586,-0.9601200819015503,0.14057832956314087
1683135822230389000,10.741388916015625,9.615557670593262,-0.8464609980583191,-0.4181457459926605
1683135822248228000,10.75922802734375,9.873982429504395,-1.1802598237991333,0.32662028074264526
1683135822266069000,10.777069091796875,9.79681396484375,-0.625723123550415,-0.4893322288990021
1683135822283905800,10.79490576171875,9.645467758178711,-1.4344971179962158,0.23030917346477509
1683135822301757000,10.8127568359375,9.872187614440918,-0.5581258535385132,-0.2027917206287384
1683135822319595500,10.830595458984375,9.589835166931152,-1.1958130598068237,-0.10348957777023315
1683135822337433000,10.84843310546875,9.903892517089844,-0.8691928386688232,0.016749758273363113
1683135822355272700,10.866272705078124,9.600603103637695,-0.9230313301086426,-0.3086741268634796
1683135822373106200,10.884106201171875,9.874580383300781,-1.007378339767456,0.27397820353507996
1683135822390950100,10.9019501953125,9.758528709411621,-0.6735795736312866,-0.4749752879142761
1683135822408786200,10.9197861328125,9.735796928405762,-1.4536397457122803,0.29730820655822754
1683135822426631000,10.937630859375,9.868000984191895,-0.5341976284980774,-0.32243284583091736
1683135822444466400,10.955466552734375,9.622138023376465,-1.3196417093276978,0.06340979784727097
1683135822462305300,10.97330517578125,9.961918830871582,-0.768694281578064,-0.10229317098855972
1683135822480145000,10.991144775390625,9.57607650756836,-0.9846464991569519,-0.11844471842050552
1683135822497984000,11.00898388671875,9.818349838256836,-0.859621524810791,0.13519448041915894
1683135822515822000,11.026822021484374,9.65384292602539,-0.7794619798660278,-0.42293140292167664
1683135822533661400,11.044661376953124,9.77826976776123,-1.319043517112732,0.32123643159866333
1683135822551496000,11.062495849609375,9.78245735168457,-0.5443671345710754,-0.4414757788181305
1683135822569343500,11.080343505859375,9.650253295898438,-1.3244273662567139,0.20159530639648438
1683135822587177500,11.098177490234375,9.914660453796387,-0.6203392744064331,-0.21714866161346436
1683135822605016800,11.116016845703125,9.499505996704102,-1.046859860420227,0.04307080805301666
1683135822622851600,11.1338515625,9.847063064575195,-0.768694281578064,-0.0077766734175384045
1683135822640695000,11.151695068359375,9.738189697265625,-0.989432156085968,-0.25064817070961
1683135822658533600,11.16953369140625,9.750752449035645,-1.074975609779358,0.24945175647735596
1683135822676369400,11.187369384765624,9.644271850585938,-0.625723123550415,-0.45643091201782227
1683135822694210000,11.2052099609375,9.716654777526855,-1.3334003686904907,0.2829512655735016
1683135822712050200,11.22305029296875,9.79681396484375,-0.5970092415809631,-0.4127618968486786
1683135822729885700,11.2408857421875,9.607781410217285,-1.1569297313690186,0.19142581522464752
1683135822747727000,11.25872705078125,9.905089378356934,-0.6729813814163208,-0.15493527054786682
1683135822765567000,11.27656689453125,9.671191215515137,-1.0995019674301147,-0.13639089465141296
1683135822783406000,11.294406005859376,9.689735412597656,-0.8356932997703552,0.13938191533088684
1683135822801244200,11.312244140625,9.681958198547363,-0.7645068168640137,-0.42293140292167664
1683135822819083500,11.33008349609375,9.835697174072266,-1.280758261680603,0.26440688967704773
1683135822836922400,11.34792236328125,9.701699256896973,-0.6161518096923828,-0.4325026869773865
1683135822854762000,11.365761962890625,9.541379928588867,-1.200000524520874,0.2392822653055191
1683135822872599800,11.383599853515625,9.858428955078125,-0.6065805554389954,-0.364905446767807
1683135822890439400,11.401439453125,9.613164901733398,-1.2143574953079224,0.04426721855998039
1683135822908276500,11.4192763671875,9.723833084106445,-0.6921239495277405,0.02512463741004467
1683135822926119200,11.437119140625,9.695717811584473,-0.9469595551490784,-0.3655036687850952
1683135822943950800,11.454950927734375,9.802796363830566,-1.1419745683670044,0.2356930375099182
1683135822961794600,11.472794677734376,9.592227935791016,-0.6502495408058167,-0.494716078042984
1683135822979621600,11.49062158203125,9.802796363830566,-1.1850453615188599,0.2835494875907898
1683135822997471700,11.5084716796875,9.91107177734375,-0.625723123550415,-0.43130627274513245
1683135823015306800,11.526306640625,9.598209381103516,-1.353141188621521,0.129810631275177
1683135823033140000,11.544139892578125,9.748359680175781,-0.5629115104675293,-0.18484555184841156
1683135823050989300,11.5619892578125,9.66640567779541,-1.0857433080673218,-0.2273181527853012
1683135823068825600,11.57982568359375,9.80817985534668,-0.9984052777290344,0.17347964644432068
1683135823086669800,11.597669921875,9.606584548950195,-0.7028916478157043,-0.4707878530025482
1683135823104506000,11.615506103515624,9.926624298095703,-1.2089736461639404,0.29850462079048157
1683135823122333000,11.6333330078125,9.753743171691895,-0.6640082597732544,-0.5180460810661316
1683135823140184300,11.651184326171874,9.645467758178711,-1.280758261680603,0.2727817893028259
1683135823158022700,11.669022705078126,9.876974105834961,-0.5629115104675293,-0.2841476798057556
1683135823175861800,11.68686181640625,9.66102123260498,-1.2430713176727295,-0.07477571070194244
1683135823193700600,11.70470068359375,9.823135375976562,-0.8691928386688232,0.05922235921025276
1683135823211539700,11.722539794921875,9.572486877441406,-0.8464609980583191,-0.4091726839542389
1683135823229377800,11.740377685546875,9.926624298095703,-1.1084750890731812,0.2315055876970291
1683135823247217400,11.758217529296875,9.663414001464844,-0.7172485589981079,-0.5180460810661316
1683135823265051400,11.776051513671876,9.735796928405762,-1.2233306169509888,0.3451646566390991
1683135823282895400,11.793895263671875,9.835099220275879,-0.5102694034576416,-0.4127618968486786
1683135823300734000,11.81173388671875,9.589237213134766,-1.3627125024795532,0.05383851006627083
1683135823318571300,11.8295712890625,9.881160736083984,-0.7208378314971924,-0.08374879509210587
1683135823336409600,11.84740966796875,9.604789733886719,-0.9942178130149841,-0.21355941891670227
1683135823354251000,11.8652509765625,9.927223205566406,-1.0265209674835205,0.21714866161346436
1683135823372078000,11.883078125,9.615557670593262,-0.7986045479774475,-0.48514479398727417
1683135823389926100,11.900926025390625,9.830911636352539,-1.2041879892349243,0.29790642857551575
1683135823407770000,11.91877001953125,9.81117057800293,-0.6017948985099792,-0.503689169883728
1683135823425606700,11.936606689453125,9.635896682739258,-1.4344971179962158,0.2063809484243393
1683135823443444700,11.95444482421875,9.857831001281738,-0.5964110493659973,-0.18424734473228455
1683135823461284000,11.9722841796875,9.618548393249512,-1.1521440744400024,-0.10827522724866867
1683135823479123000,11.990123046875,9.937392234802246,-0.859621524810791,0.040677983313798904
1683135823496962800,12.007962890625,9.619745254516602,-0.898504912853241,-0.3038884699344635
1683135823514801000,12.02580078125,9.954740524291992,-1.098305583000183,0.3314059376716614
1683135823532640000,12.043639892578126,9.735198974609375,-0.6448656916618347,-0.47976094484329224
1683135823550475800,12.061475830078125,9.68794059753418,-1.3770694732666016,0.27816563844680786
1683135823568307700,12.0793076171875,9.853643417358398,-0.5437689423561096,-0.3080759048461914
1683135823586152400,12.09715234375,9.594022750854492,-1.290927767753601,0.0011964113218709826
1683135823603991600,12.114991455078124,9.947562217712402,-0.8165507316589355,-0.06400800496339798
1683135823621838300,12.13283837890625,9.590433120727539,-0.9750752449035645,-0.17527425289154053
1683135823639673900,12.150673828125,9.78963565826416,-0.8835497498512268,0.16869398951530457
1683135823657512400,12.168512451171875,9.705886840820312,-0.778863787651062,-0.4325026869773865
1683135823675351300,12.186351318359375,9.768698692321777,-1.3334003686904907,0.3451646566390991
1683135823693175600,12.204175537109375,9.81117057800293,-0.5443671345710754,-0.39421752095222473
1683135823711028700,12.22202880859375,9.593423843383789,-1.3052847385406494,0.1537388563156128
1683135823728866000,12.239865966796875,9.900303840637207,-0.6777670383453369,-0.15493527054786682
1683135823746709800,12.257709716796874,9.528220176696777,-1.01814603805542,-0.03768695518374443
1683135823764528400,12.2755283203125,9.856635093688965,-0.7639086246490479,0.05922235921025276
1683135823782385200,12.29338525390625,9.710074424743652,-0.9080761671066284,-0.3320041298866272
1683135823800220700,12.311220703125,9.745368003845215,-1.170688509941101,0.2829512655735016
1683135823818065400,12.3290654296875,9.66819953918457,-0.6017948985099792,-0.4707878530025482
1683135823835901700,12.346901611328125,9.674181938171387,-1.2855439186096191,0.24945175647735596
1683135823853740500,12.364740478515625,9.90568733215332,-0.6107679605484009,-0.34576287865638733
1683135823871579000,12.382578857421874,9.541379928588867,-1.1665010452270508,0.1339980661869049
1683135823889406500,12.400406494140626,9.871589660644531,-0.706480860710144,-0.12681959569454193
1683135823907257300,12.41825732421875,9.699904441833496,-1.0995019674301147,-0.1986042857170105
1683135823925093400,12.43609326171875,9.746564865112305,-0.9361918568611145,0.20159530639648438
1683135823942937600,12.4539375,9.65384292602539,-0.7070791125297546,-0.45643091201782227
1683135823960773600,12.471773681640625,9.793225288391113,-1.323829174041748,0.2787638306617737
1683135823978612700,12.48961279296875,9.739386558532715,-0.6113662123680115,-0.46061834692955017
1683135823996451600,12.50745166015625,9.555737495422363,-1.1617153882980347,0.22492532432079315
1683135824014290400,12.52529052734375,9.896116256713867,-0.6299105882644653,-0.2602194547653198
1683135824032128300,12.543128173828125,9.641879081726074,-1.1808580160140991,-0.04127619042992592
1683135824049968400,12.560968505859375,9.718449592590332,-0.7591229677200317,0.05383851006627083
1683135824067805700,12.5788056640625,9.681958198547363,-0.8656035661697388,-0.4181457459926605
1683135824085648400,12.5966484375,9.831509590148926,-1.2376874685287476,0.25004997849464417
1683135824103485000,12.61448486328125,9.587442398071289,-0.5970092415809631,-0.4713860750198364
1683135824121315000,12.632315185546876,9.693324089050293,-1.189831018447876,0.27337998151779175
1683135824139163100,12.6501630859375,9.820143699645996,-0.5826523303985596,-0.39840495586395264
1683135824157001500,12.66800146484375,9.555737495422363,-1.2717852592468262,0.053240302950143814
1683135824174840800,12.6858408203125,9.786046028137207,-0.6777670383453369,-0.08434699475765228
1683135824192675800,12.70367578125,9.681360244750977,-1.028315544128418,-0.3080759048461914
1683135824210519000,12.72151904296875,9.789037704467773,-1.0893324613571167,0.2021935135126114
1683135824228356000,12.739356201171875,9.553942680358887,-0.6263213157653809,-0.5000999569892883
1683135824246185500,12.757185546875,9.831509590148926,-1.1850453615188599,0.29312077164649963
1683135824264035000,12.77503515625,9.844072341918945,-0.6352944374084473,-0.47916272282600403
1683135824281874700,12.792874755859375,9.626325607299805,-1.353141188621521,0.2063809484243393
1683135824299710000,12.8107099609375,9.833903312683105,-0.5676971673965454,-0.21296121180057526
1683135824317555200,12.82855517578125,9.65683364868164,-1.1288141012191772,-0.19381862878799438
1683135824335377200,12.846377197265625,9.798608779907227,-0.9888339638710022,0.13998012244701385
1683135824353221000,12.86422119140625,9.57787036895752,-0.7316055297851562,-0.4713860750198364
1683135824371054000,12.88205419921875,9.926624298095703,-1.2137593030929565,0.2745763957500458
1683135824388908000,12.899907958984375,9.716055870056152,-0.6981059908866882,-0.5419743061065674
1683135824406747100,12.9177470703125,9.659825325012207,-1.2664014101028442,0.27816563844680786
1683135824424585700,12.935585693359375,9.872786521911621,-0.5629115104675293,-0.3409772217273712
1683135824442424000,12.953424072265625,9.637093544006348,-1.2813565731048584,-0.026919255033135414
1683135824460263200,12.97126318359375,9.842277526855469,-0.8309076428413391,0.006580262444913387
1683135824478102300,12.989102294921874,9.600603103637695,-0.9182456731796265,-0.3326023519039154
1683135824495935200,13.006935302734375,9.912267684936523,-1.079761266708374,0.24107688665390015
1683135824513780200,13.0247802734375,9.616155624389648,-0.7363911867141724,-0.5282155871391296
1683135824531619000,13.042619140625,9.754940032958984,-1.2137593030929565,0.35473597049713135
1683135824549458400,13.06045849609375,9.79681396484375,-0.5491527915000916,-0.43190449476242065
1683135824567297000,13.078297119140625,9.565308570861816,-1.3920245170593262,0.04905286431312561
1683135824585134300,13.09613427734375,9.871589660644531,-0.6969096064567566,-0.11246266216039658
1683135824602975700,13.113975830078125,9.600004196166992,-1.0325030088424683,-0.2183450609445572
1683135824620813600,13.1318134765625,9.92243766784668,-0.9595218896865845,0.1453639715909958
1683135824638653000,13.14965283203125,9.634700775146484,-0.8177471160888672,-0.4181457459926605
1683135824656491300,13.1674912109375,9.850054740905762,-1.1611171960830688,0.3409772217273712
1683135824674325800,13.18532568359375,9.759127616882324,-0.6305087804794312,-0.5276173949241638
1683135824692169700,13.203169677734374,9.650253295898438,-1.4632110595703125,0.24466611444950104
1683135824710005800,13.221005859375,9.89133071899414,-0.5724828243255615,-0.2027917206287384
1683135824727850000,13.23885009765625,9.599406242370605,-1.1808580160140991,-0.0891326442360878
1683135824745686000,13.25668603515625,9.927821159362793,-0.8500502705574036,0.02632104977965355
1683135824763524900,13.27452490234375,9.600603103637695,-0.9230313301086426,-0.31824541091918945
1683135824781353700,13.292353759765625,9.89850902557373,-1.0121639966964722,0.2787638306617737
1683135824799201500,13.310201416015625,9.734601020812988,-0.6879364848136902,-0.4654040038585663
1683135824817043000,13.32804296875,9.726225852966309,-1.4249259233474731,0.2877369225025177
1683135824834881000,13.345881103515625,9.848857879638672,-0.5341976284980774,-0.3415754437446594
1683135824852716500,13.363716552734376,9.594022750854492,-1.2957134246826172,0.06819544732570648
1683135824870558000,13.381557861328124,9.952347755432129,-0.7878368496894836,-0.09272187948226929
1683135824888385300,13.39938525390625,9.585647583007812,-0.9990034699440002,-0.1136590763926506
1683135824906236200,13.417236083984376,9.81356430053711,-0.8644071817398071,0.13519448041915894
1683135824924072700,13.43507275390625,9.658628463745117,-0.7938188910484314,-0.45643091201782227
1683135824941917000,13.4529169921875,9.79262638092041,-1.319043517112732,0.3122633695602417
1683135824959753200,13.470753173828125,9.772886276245117,-0.5395814776420593,-0.4462614357471466
1683135824977591800,13.488591796875,9.688538551330566,-1.3435698747634888,0.2021935135126114
1683135824995426600,13.506426513671874,9.92423152923584,-0.6442674994468689,-0.21714866161346436
1683135825013257700,13.5242578125,9.494720458984375,-1.0325030088424683,0.038285162299871445
1683135825031094300,13.54209423828125,9.842875480651855,-0.7304090857505798,-0.022133609279990196
1683135825048946700,13.55994677734375,9.752547264099121,-0.9798609018325806,-0.24107688665390015
1683135825066784300,13.5777841796875,9.755537986755371,-1.0845468044281006,0.24466611444950104
1683135825084629500,13.59562939453125,9.634700775146484,-0.6592226624488831,-0.48035913705825806
1683135825102461400,13.61346142578125,9.716654777526855,-1.2999008893966675,0.2590230405330658
1683135825120292900,13.63129296875,9.820143699645996,-0.6113662123680115,-0.40797626972198486
1683135825138130700,13.649130615234375,9.589237213134766,-1.1377872228622437,0.16331014037132263
1683135825155971800,13.666971923828125,9.905089378356934,-0.6346961855888367,-0.1501496136188507
1683135825173820700,13.684820556640625,9.68076229095459,-1.1186445951461792,-0.15553347766399384
1683135825191656400,13.702656494140625,9.713663101196289,-0.8548358678817749,0.129810631275177
1683135825209501400,13.72050146484375,9.686744689941406,-0.7692924737930298,-0.40378883481025696
1683135825227336400,13.73833642578125,9.850054740905762,-1.2951152324676514,0.26440688967704773
1683135825245175800,13.75617578125,9.69212818145752,-0.6161518096923828,-0.4133601188659668
1683135825263014700,13.7740146484375,9.574281692504883,-1.170688509941101,0.25363919138908386
1683135825280840000,13.79183984375,9.872786521911621,-0.5868397355079651,-0.37447673082351685
1683135825298685000,13.809684814453124,9.622735977172852,-1.2287144660949707,0.03469592705368996
1683135825316522800,13.827522705078126,9.723833084106445,-0.6921239495277405,0.015553346835076809
1683135825334368000,13.845367919921875,9.7005033493042,-0.9278169870376587,-0.389431893825531
1683135825352209400,13.86320947265625,9.807581901550293,-1.1371889114379883,0.22133609652519226
1683135825370045200,13.881045166015625,9.558728218078613,-0.631106972694397,-0.5000999569892883
1683135825387890200,13.89889013671875,9.802796363830566,-1.194616675376892,0.2883351147174835
1683135825405726000,13.916725830078125,9.891928672790527,-0.6448656916618347,-0.43130627274513245
1683135825423565300,13.9345654296875,9.602995872497559,-1.3627125024795532,0.14895321428775787
1683135825441402600,13.952402587890624,9.724431037902832,-0.5868397355079651,-0.18484555184841156
1683135825459244000,13.970244140625,9.657432556152344,-1.0660024881362915,-0.24167509377002716
1683135825477079600,13.98807958984375,9.841679573059082,-1.0223335027694702,0.16450655460357666
1683135825494923500,14.005923583984375,9.605986595153809,-0.7124629616737366,-0.4660021960735321
1683135825512755700,14.023755615234375,9.93559741973877,-1.2035897970199585,0.3032902777194977
1683135825530584000,14.041583984375,9.749555587768555,-0.6831508874893188,-0.5467599630355835
1683135825548428000,14.059427978515625,9.626325607299805,-1.2861422300338745,0.2679961323738098
1683135825566269000,14.07726904296875,9.867402076721191,-0.5533402562141418,-0.2793620526790619
1683135825584102000,14.095101806640624,9.66102123260498,-1.2430713176727295,-0.0891326442360878
1683135825601945000,14.112945068359375,9.80399227142334,-0.8883354067802429,0.04486542567610741
1683135825619782000,14.130781982421874,9.572486877441406,-0.8321040868759155,-0.380458801984787
1683135825637622000,14.1486220703125,9.950552940368652,-1.1126625537872314,0.2602194547653198
1683135825655461400,14.16646142578125,9.663414001464844,-0.7316055297851562,-0.5228317379951477
1683135825673298700,14.184298583984376,9.716654777526855,-1.2233306169509888,0.35413774847984314
1683135825691142100,14.20214208984375,9.849455833435059,-0.534795880317688,-0.43190449476242065
1683135825708978400,14.219978515625,9.598209381103516,-1.3818551301956177,0.04905286431312561
1683135825726817800,14.23781787109375,9.890732765197754,-0.7112665176391602,-0.08374879509210587
1683135825744660500,14.255660400390624,9.600004196166992,-0.9846464991569519,-0.23270200192928314
1683135825762494500,14.273494384765625,9.960124015808105,-1.0121639966964722,0.2027917206287384
1683135825780332500,14.29133251953125,9.615557670593262,-0.8129615187644958,-0.4468596279621124
1683135825798172700,14.309172607421875,9.854840278625488,-1.1754741668701172,0.32662028074264526
1683135825816011500,14.327011474609375,9.825528144836426,-0.6065805554389954,-0.48454657196998596
1683135825833863000,14.34486279296875,9.650253295898438,-1.444068431854248,0.23030917346477509
1683135825851696400,14.3626962890625,9.876974105834961,-0.5868397355079651,-0.1788634955883026
1683135825869540600,14.38054052734375,9.589835166931152,-1.1521440744400024,-0.11306086927652359
1683135825887377000,14.398376953125,9.91825008392334,-0.8739784955978394,0.040677983313798904
1683135825905215700,14.4162158203125,9.624530792236328,-0.9134600162506104,-0.33738797903060913
1683135825923044600,14.434044677734375,9.91705322265625,-1.0791629552841187,0.2835494875907898
1683135825940893400,14.4518935546875,9.744172096252441,-0.6544370055198669,-0.4893322288990021
1683135825958733000,14.469733154296875,9.726225852966309,-1.420140266418457,0.26440688967704773
1683135825976568800,14.48756884765625,9.868000984191895,-0.5198407173156738,-0.3128615617752075
1683135825994406100,14.50540625,9.617950439453125,-1.262213945388794,0.04426721855998039
1683135826012247800,14.523247802734375,9.985248565673828,-0.7974081635475159,-0.07357929646968842
1683135826030087000,14.5410869140625,9.600004196166992,-0.9846464991569519,-0.12801600992679596
1683135826047927000,14.558927001953125,9.799206733703613,-0.859621524810791,0.16390834748744965
1683135826065769200,14.576769287109375,9.682557106018066,-0.7597211599349976,-0.45643091201782227
1683135826083600100,14.59460009765625,9.787840843200684,-1.342971682548523,0.3403790295124054
1683135826101444400,14.6124443359375,9.787242889404297,-0.5635097622871399,-0.45104706287384033
1683135826119283200,14.630283203125,9.622138023376465,-1.3100703954696655,0.16331014037132263
1683135826137123800,14.648123779296874,9.93380355834961,-0.6538388133049011,-0.18843477964401245
1683135826154959400,14.66595947265625,9.504291534423828,-1.01814603805542,0.019740786403417587
1683135826172796000,14.6837958984375,9.823135375976562,-0.7591229677200317,0.049651071429252625
1683135826190638800,14.701638916015625,9.762118339538574,-0.9415757060050964,-0.29371899366378784
1683135826208464600,14.719464599609376,9.760323524475098,-1.1371889114379883,0.25423741340637207
1683135826226319000,14.737319091796875,9.620942115783691,-0.5970092415809631,-0.4666004180908203
1683135826244155100,14.755155029296875,9.721440315246582,-1.319043517112732,0.25423741340637207
1683135826261993700,14.77299365234375,9.848857879638672,-0.6113662123680115,-0.3840480446815491
1683135826279821600,14.790821533203125,9.555737495422363,-1.1282159090042114,0.14835500717163086
1683135826297660000,14.808659912109375,9.89551830291748,-0.6681957244873047,-0.12203395366668701
1683135826315511300,14.82651123046875,9.714262008666992,-1.085145115852356,-0.1986042857170105
1683135826333341000,14.8443408203125,9.713065147399902,-0.8979067206382751,0.17766708135604858
1683135826351193600,14.862193603515625,9.67777156829834,-0.7070791125297546,-0.4181457459926605
1683135826369027600,14.880027587890625,9.821340560913086,-1.3046865463256836,0.2835494875907898
1683135826386866400,14.897866455078125,9.734601020812988,-0.625723123550415,-0.4372883439064026
1683135826404700700,14.91570068359375,9.531808853149414,-1.1904292106628418,0.2392822653055191
1683135826422544100,14.933544189453125,9.858428955078125,-0.5964110493659973,-0.3361915946006775
1683135826440383200,14.95138330078125,9.641879081726074,-1.2047861814498901,0.0011964113218709826
1683135826458220300,14.96922021484375,9.704689979553223,-0.7304090857505798,0.053240302950143814
1683135826476046300,14.98704638671875,9.686744689941406,-0.8799605369567871,-0.40378883481025696
1683135826493900500,15.004900634765624,9.821938514709473,-1.1850453615188599,0.25004997849464417
1683135826511738600,15.022738525390626,9.606584548950195,-0.6406782865524292,-0.4995017349720001
1683135826529574400,15.040574462890625,9.77408218383789,-1.1850453615188599,0.2925225794315338
1683135826547418000,15.058418212890626,9.920044898986816,-0.6107679605484009,-0.3978067636489868
1683135826565256000,15.076255859375,9.612566947937012,-1.3244273662567139,0.12023933976888657
1683135826583094500,15.094094482421875,9.734002113342285,-0.582054078578949,-0.14656038582324982
1683135826600933600,15.11193359375,9.66221809387207,-1.01814603805542,-0.24167509377002716
1683135826618770200,15.129770263671874,9.836296081542969,-1.0558329820632935,0.19740787148475647
1683135826636614100,15.1476142578125,9.57787036895752,-0.6789634227752686,-0.48095735907554626
1683135826654438400,15.1654384765625,9.88833999633789,-1.1802598237991333,0.2835494875907898
1683135826672289300,15.183289306640624,9.759127616882324,-0.6592226624488831,-0.5557330846786499
1683135826690128100,15.201128173828126,9.635896682739258,-1.3052847385406494,0.2590230405330658
1683135826707967200,15.21896728515625,9.867402076721191,-0.5389832854270935,-0.2602194547653198
1683135826725801000,15.236801025390625,9.665806770324707,-1.1856436729431152,-0.09391828626394272
1683135826743644700,15.254644775390625,9.794421195983887,-0.9074779748916626,0.07357929646968842
1683135826761483800,15.27248388671875,9.577272415161133,-0.784247636795044,-0.39960137009620667
1683135826779312400,15.2903125,9.969695091247559,-1.1078768968582153,0.2602194547653198
1683135826797162800,15.308162841796875,9.687342643737793,-0.722034215927124,-0.5132604837417603
1683135826815000600,15.32600048828125,9.707083702087402,-1.252044439315796,0.33499518036842346
1683135826832835600,15.343835693359376,9.835099220275879,-0.5102694034576416,-0.3936193287372589
1683135826850677500,15.361677490234374,9.598808288574219,-1.339382529258728,0.020338991656899452
1683135826868518000,15.379517822265624,9.876375198364258,-0.735194742679596,-0.06939185410737991
1683135826886356200,15.397356201171876,9.600004196166992,-0.9756734371185303,-0.23270200192928314
1683135826904191500,15.41519140625,9.9409818649292,-1.0408778190612793,0.2267199456691742
1683135826922034700,15.43303466796875,9.620343208312988,-0.7938188910484314,-0.494716078042984
1683135826939864000,15.450864013671875,9.830911636352539,-1.2089736461639404,0.3122633695602417
1683135826957712600,15.468712646484375,9.81117057800293,-0.5874379873275757,-0.4701896607875824
1683135826975546000,15.486546142578124,9.645467758178711,-1.439282774925232,0.19680966436862946
1683135826993390300,15.504390380859375,9.867402076721191,-0.5916253924369812,-0.1698904037475586
1683135827011228400,15.522228515625,9.637691497802734,-1.113858938217163,-0.13220344483852386
1683135827029067300,15.5400673828125,9.927821159362793,-0.8644071817398071,0.04546362906694412
1683135827046906600,15.55790673828125,9.619745254516602,-0.8943174481391907,-0.33738797903060913
1683135827064733700,15.575733642578125,9.926624298095703,-1.1030912399291992,0.3170489966869354
1683135827082584000,15.593583984375,9.739984512329102,-0.6305087804794312,-0.47976094484329224
1683135827100422100,15.611422119140625,9.70229721069336,-1.4009976387023926,0.268594354391098
1683135827118262500,15.629262451171876,9.858428955078125,-0.5389832854270935,-0.3080759048461914
1683135827136102100,15.64710205078125,9.589237213134766,-1.2430713176727295,0.020338991656899452
1683135827153940000,15.66493994140625,9.980463027954102,-0.802193820476532,-0.04486542567610741
1683135827171765800,15.682765869140624,9.600004196166992,-0.9798609018325806,-0.17527425289154053
1683135827189618400,15.700618408203125,9.784850120544434,-0.8835497498512268,0.17347964644432068
1683135827207457000,15.71845703125,9.687342643737793,-0.7507480978965759,-0.4660021960735321
1683135827225295000,15.736295166015625,9.787840843200684,-1.3621143102645874,0.32183465361595154
1683135827243134200,15.75413427734375,9.8207426071167,-0.5395814776420593,-0.4223332107067108
1683135827260973000,15.77197314453125,9.617352485656738,-1.3052847385406494,0.14416755735874176
1683135827278812700,15.789812744140624,9.914660453796387,-0.6777670383453369,-0.15972091257572174
1683135827296646400,15.807646484375,9.513862609863281,-1.0133603811264038,-0.008973085321485996
1683135827314478600,15.825478515625,9.82373332977295,-0.7256234884262085,0.04007977992296219
1683135827332329200,15.8433291015625,9.762118339538574,-0.9463613629341125,-0.3128615617752075
1683135827350165200,15.861165283203125,9.759725570678711,-1.1850453615188599,0.2829512655735016
1683135827368009200,15.87900927734375,9.65384292602539,-0.592223584651947,-0.48035913705825806
1683135827385845800,15.896845703125,9.698110580444336,-1.3046865463256836,0.2350948303937912
1683135827403684400,15.914684326171875,9.877572059631348,-0.6059823632240295,-0.364905446767807
1683135827421522400,15.9325224609375,9.541379928588867,-1.1186445951461792,0.1339980661869049
1683135827439361800,15.95036181640625,9.900303840637207,-0.6729813814163208,-0.10289137065410614
1683135827457201400,15.968201416015624,9.747162818908691,-1.109073281288147,-0.20757736265659332
1683135827475040300,15.986040283203126,9.741779327392578,-0.9744769930839539,0.19680966436862946
1683135827492874500,16.00387451171875,9.644271850585938,-0.6879364848136902,-0.41874396800994873
1683135827510704600,16.02170458984375,9.826126098632812,-1.3094722032546997,0.27397820353507996
1683135827528546300,16.03954638671875,9.777671813964844,-0.6448656916618347,-0.43190449476242065
1683135827546396000,16.05739599609375,9.517452239990234,-1.1808580160140991,0.21954147517681122
1683135827564234800,16.07523486328125,9.876974105834961,-0.582054078578949,-0.32183465361595154
1683135827582072600,16.093072509765626,9.675378799438477,-1.195214867591858,-0.01734796352684498
1683135827599912400,16.110912353515626,9.685547828674316,-0.7447660565376282,0.05802594870328903
1683135827617751600,16.12875146484375,9.686744689941406,-0.841675341129303,-0.4133601188659668
1683135827635588600,16.146588623046874,9.841081619262695,-1.194616675376892,0.26440688967704773
1683135827653431600,16.164431640625,9.601799011230469,-0.625723123550415,-0.4713860750198364
1683135827671268000,16.18226806640625,9.750154495239258,-1.1850453615188599,0.2877369225025177
1683135827689095200,16.20009521484375,9.891928672790527,-0.5868397355079651,-0.40319061279296875
1683135827706946300,16.2179462890625,9.594022750854492,-1.3387842178344727,0.08255238085985184
1683135827724785000,16.235784912109374,9.729216575622559,-0.6346961855888367,-0.12263216078281403
1683135827742623700,16.253623779296873,9.66221809387207,-0.99481600522995,-0.2799602448940277
1683135827760462600,16.271462646484373,9.831509590148926,-1.0606186389923096,0.2021935135126114
1683135827778300700,16.28930078125,9.558728218078613,-0.6693921089172363,-0.48095735907554626
1683135827796131300,16.30713134765625,9.869196891784668,-1.1850453615188599,0.3074777126312256
1683135827813974800,16.324974853515624,9.806385040283203,-0.6448656916618347,-0.5222335457801819
1683135827831818200,16.342818359375,9.640682220458984,-1.3004990816116333,0.24466611444950104
1683135827849657300,16.3606572265625,9.848259925842285,-0.5772684812545776,-0.2315055876970291
1683135827867495700,16.37849560546875,9.680164337158203,-1.1569297313690186,-0.12681959569454193
1683135827885334800,16.396334716796876,9.80399227142334,-0.9266205430030823,0.08793623000383377
1683135827903173400,16.41417333984375,9.539586067199707,-0.784247636795044,-0.42831525206565857
1683135827921013200,16.43201318359375,9.955338478088379,-1.1174482107162476,0.26500511169433594
1683135827938851800,16.449851806640623,9.7064847946167,-0.7268198728561401,-0.5324030518531799
1683135827956690700,16.467690673828123,9.697511672973633,-1.2664014101028442,0.33020952343940735
1683135827974517800,16.485517822265624,9.844072341918945,-0.5437689423561096,-0.3888336718082428
1683135827992368600,16.50336865234375,9.603593826293945,-1.333998680114746,0.029910283163189888
1683135828010206200,16.521206298828126,9.894919395446777,-0.7256234884262085,-0.05024927482008934
1683135828028046800,16.539046875,9.623932838439941,-0.9320043921470642,-0.22791635990142822
1683135828045884700,16.556884765625,9.960124015808105,-1.0265209674835205,0.2554338276386261
1683135828063719700,16.5747197265625,9.625128746032715,-0.7890332937240601,-0.494716078042984
1683135828081560600,16.592560546875,9.79801082611084,-1.2089736461639404,0.33080771565437317
1683135828099402000,16.610402099609374,9.825528144836426,-0.5730810165405273,-0.45104706287384033
1683135828117240600,16.628240478515625,9.645467758178711,-1.415354609489441,0.1824527233839035
1683135828135074300,16.64607421875,9.876375198364258,-0.6203392744064331,-0.16031911969184875
1683135828152902700,16.663902587890625,9.595218658447266,-1.085145115852356,-0.1417747437953949
1683135828170757000,16.681757080078125,9.91825008392334,-0.8787640929222107,0.059820566326379776
1683135828188595200,16.69959521484375,9.638887405395508,-0.8895317912101746,-0.3565305769443512
1683135828206421000,16.7174208984375,9.88833999633789,-1.0887342691421509,0.3361915946006775
1683135828224273700,16.735273681640624,9.758528709411621,-0.6113662123680115,-0.48454657196998596
1683135828242113300,16.75311328125,9.721440315246582,-1.4057832956314087,0.25004997849464417
1683135828259948800,16.77094873046875,9.858428955078125,-0.5437689423561096,-0.26979073882102966
1683135828277794000,16.7887939453125,9.622735977172852,-1.2574282884597778,0.015553346835076809
1683135828295629300,16.80662939453125,9.999606132507324,-0.8117650747299194,-0.054436713457107544
1683135828313468700,16.82446875,9.633503913879395,-0.9272187948226929,-0.1704886108636856
1683135828331295700,16.842295654296876,9.803394317626953,-0.8787640929222107,0.19262222945690155
1683135828349146600,16.860146728515623,9.67777156829834,-0.7363911867141724,-0.4660021960735321
1683135828366985000,16.87798486328125,9.787840843200684,-1.323829174041748,0.3074777126312256
1683135828384820000,16.895820068359374,9.815957069396973,-0.5443671345710754,-0.40319061279296875
1683135828402667000,16.9136669921875,9.631709098815918,-1.2957134246826172,0.14416755735874176
1683135828420502300,16.931502197265626,9.919445991516113,-0.7208378314971924,-0.1740778535604477
1683135828438339800,16.94933984375,9.509077072143555,-1.0325030088424683,-0.018544375896453857
1683135828456175900,16.96717578125,9.814162254333496,-0.7256234884262085,0.05383851006627083
1683135828474019000,16.98501904296875,9.743574142456055,-0.9224331378936768,-0.3607180118560791
1683135828491858000,17.00285791015625,9.77408218383789,-1.2329018115997314,0.26919254660606384
1683135828509695500,17.020695556640625,9.630513191223145,-0.592223584651947,-0.47557350993156433
1683135828527536400,17.038536376953125,9.717252731323242,-1.3052847385406494,0.22612173855304718
1683135828545374200,17.056374267578125,9.863214492797852,-0.625723123550415,-0.3840480446815491
1683135828563201300,17.074201171875,9.550951957702637,-1.1473584175109863,0.1339980661869049
1683135828581051100,17.092051025390624,9.890732765197754,-0.6873382925987244,-0.10289137065410614
1683135828598888200,17.10988818359375,9.751948356628418,-1.0707881450653076,-0.20757736265659332
1683135828616720100,17.12772021484375,9.727422714233398,-0.9649057388305664,0.18723836541175842
1683135828634557200,17.14555712890625,9.639486312866211,-0.6831508874893188,-0.42831525206565857
1683135828652410000,17.16341015625,9.840482711791992,-1.2759727239608765,0.27397820353507996
1683135828670246400,17.181246337890624,9.801599502563477,-0.6400800347328186,-0.4462614357471466
1683135828688086800,17.199086669921876,9.488738059997559,-1.200000524520874,0.21954147517681122
1683135828705913000,17.2169130859375,9.848857879638672,-0.5868397355079651,-0.32721850275993347
1683135828723760400,17.234760498046874,9.689735412597656,-1.200000524520874,-0.03170489892363548
1683135828741605000,17.252605224609376,9.704092025756836,-0.7734799385070801,0.08673982322216034
1683135828759440600,17.270440673828126,9.662816047668457,-0.8225327730178833,-0.4181457459926605
1683135828777266700,17.2882666015625,9.850652694702148,-1.194616675376892,0.26440688967704773
1683135828795113500,17.306113525390625,9.630513191223145,-0.6454638838768005,-0.494716078042984
1683135828812947500,17.323947509765624,9.736394882202148,-1.170688509941101,0.2925225794315338
1683135828830795800,17.341795654296874,9.924830436706543,-0.6011967062950134,-0.388235479593277
1683135828848633300,17.35963330078125,9.622138023376465,-1.3100703954696655,0.07776673883199692
1683135828866477000,17.37747705078125,9.724431037902832,-0.5964110493659973,-0.11306086927652359
1683135828884313300,17.395313232421874,9.647860527038574,-1.0187442302703857,-0.2799602448940277
1683135828902151700,17.413151611328125,9.836296081542969,-1.0941181182861328,0.2021935135126114
1683135828919991000,17.430990966796877,9.568299293518066,-0.6598208546638489,-0.47617170214653015
1683135828937817600,17.448817626953126,9.878767967224121,-1.1754741668701172,0.29790642857551575
1683135828955669000,17.4666689453125,9.763314247131348,-0.6544370055198669,-0.5228317379951477
1683135828973507600,17.484507568359376,9.631111145019531,-1.3196417093276978,0.2350948303937912
1683135828991347000,17.502346923828124,9.853045463562012,-0.5629115104675293,-0.2315055876970291
1683135829009185500,17.520185546875,9.68494987487793,-1.1617153882980347,-0.12203395366668701
1683135829027011800,17.53801171875,9.823135375976562,-0.9361918568611145,0.10229317098855972
1683135829044852000,17.55585205078125,9.534799575805664,-0.7794619798660278,-0.41874396800994873
1683135829062693600,17.573693603515625,9.950552940368652,-1.1126625537872314,0.26500511169433594
1683135829080531000,17.591531005859373,9.720842361450195,-0.7124629616737366,-0.5180460810661316
1683135829098364000,17.609364013671875,9.711869239807129,-1.2759727239608765,0.3355933725833893
1683135829116209700,17.627209716796877,9.844072341918945,-0.5198407173156738,-0.37447673082351685
1683135829134052400,17.64505224609375,9.603593826293945,-1.3202399015426636,-0.013160524889826775
1683135829151885000,17.662885009765624,9.894919395446777,-0.7639086246490479,-0.040677983313798904
1683135829169725200,17.68072509765625,9.605388641357422,-0.9320043921470642,-0.2470589429140091
1683135829187564300,17.698564208984376,9.945767402648926,-1.0217353105545044,0.2602194547653198
1683135829205405700,17.71640576171875,9.649057388305664,-0.8033902049064636,-0.50907301902771
1683135829223242800,17.73424267578125,9.78843879699707,-1.2137593030929565,0.3403790295124054
1683135829241081000,17.7520810546875,9.8207426071167,-0.5826523303985596,-0.4462614357471466
1683135829258920200,17.769920166015623,9.650253295898438,-1.4344971179962158,0.17347964644432068
1683135829276760600,17.787760498046875,9.881160736083984,-0.6251249313354492,-0.15074782073497772
1683135829294595800,17.805595947265626,9.623334884643555,-1.0755738019943237,-0.10827522724866867
1683135829312435200,17.823435302734374,9.927821159362793,-0.8739784955978394,0.059820566326379776
1683135829330282500,17.841282470703124,9.653244972229004,-0.8895317912101746,-0.355932354927063
1683135829348118300,17.8591181640625,9.883553504943848,-1.1132607460021973,0.3314059376716614
1683135829365963000,17.876962890625,9.748957633972168,-0.6017948985099792,-0.46061834692955017
1683135829383801000,17.894801025390624,9.697511672973633,-1.3866406679153442,0.25423741340637207
1683135829401642200,17.912642333984376,9.858428955078125,-0.5629115104675293,-0.29371899366378784
1683135829419479600,17.9304794921875,9.617950439453125,-1.195214867591858,0.015553346835076809
1683135829437318400,17.948318359375,9.990034103393555,-0.8117650747299194,-0.04007977992296219
1683135829455156500,17.966156494140623,9.614361763000488,-0.9798609018325806,-0.1944168359041214
1683135829472985600,17.983985595703125,9.77527904510498,-0.9074779748916626,0.19680966436862946
1683135829490835700,18.001835693359375,9.682557106018066,-0.7076773047447205,-0.47557350993156433
1683135829508670200,18.019670166015626,9.79262638092041,-1.3716856241226196,0.3026920557022095
1683135829526516700,18.037516845703124,9.806385040283203,-0.5539384484291077,-0.40378883481025696
1683135829544340000,18.055340087890624,9.626923561096191,-1.2813565731048584,0.14416755735874176
1683135829562190800,18.07319091796875,9.938589096069336,-0.706480860710144,-0.1501496136188507
1683135829580021500,18.091021484375,9.523433685302734,-0.9942178130149841,-0.018544375896453857
1683135829597868300,18.108868408203126,9.7998046875,-0.7447660565376282,0.04905286431312561
1683135829615707600,18.126707763671874,9.743574142456055,-0.9272187948226929,-0.34636107087135315
1683135829633546800,18.144546630859374,9.750752449035645,-1.1994023323059082,0.25423741340637207
1683135829651385000,18.162385009765625,9.640084266662598,-0.6113662123680115,-0.4899304509162903
1683135829669224000,18.180223876953125,9.698110580444336,-1.2957134246826172,0.2350948303937912
1683135829687062800,18.198062744140625,9.872786521911621,-0.6113662123680115,-0.37926238775253296
1683135829704898600,18.215898681640624,9.546165466308594,-1.1473584175109863,0.1339980661869049
1683135829722736600,18.233736572265624,9.871589660644531,-0.6586244106292725,-0.09810572862625122
1683135829740579800,18.251579833984376,9.766305923461914,-1.1042876243591309,-0.2267199456691742
1683135829758418700,18.269418701171876,9.751350402832031,-0.97926265001297,0.20159530639648438
1683135829776257800,18.2872578125,9.639486312866211,-0.6592226624488831,-0.4139583110809326
1683135829794091500,18.305091552734375,9.845269203186035,-1.2711870670318604,0.27397820353507996
1683135829811935200,18.322935302734376,9.79681396484375,-0.6352944374084473,-0.42711883783340454
1683135829829773800,18.34077392578125,9.512666702270508,-1.1904292106628418,0.2147558331489563
1683135829847601200,18.35860107421875,9.858428955078125,-0.5868397355079651,-0.31764721870422363
1683135829865451500,18.376451416015627,9.689735412597656,-1.2095718383789062,-0.046061836183071136
1683135829883288800,18.394288818359374,9.718449592590332,-0.7878368496894836,0.09152546525001526
1683135829901131500,18.412131591796875,9.662816047668457,-0.8129615187644958,-0.42293140292167664
1683135829918967600,18.429967529296874,9.836296081542969,-1.2185449600219727,0.26919254660606384
1683135829936808200,18.44780810546875,9.587442398071289,-0.6502495408058167,-0.5000999569892883
1683135829954634500,18.465634521484375,9.731609344482422,-1.1802598237991333,0.2925225794315338
1683135829972485400,18.4834853515625,9.939187049865723,-0.6017948985099792,-0.40737804770469666
1683135829990324500,18.501324462890626,9.607781410217285,-1.32921302318573,0.06819544732570648
1683135830008155400,18.5191552734375,9.729216575622559,-0.6394818425178528,-0.1178465187549591
1683135830026001700,18.537001708984373,9.647860527038574,-0.9900303483009338,-0.2991028428077698
1683135830043837000,18.5548369140625,9.841081619262695,-1.0893324613571167,0.19740787148475647
1683135830061682700,18.5726826171875,9.568299293518066,-0.6741777658462524,-0.4713860750198364
1683135830079518000,18.59051806640625,9.869196891784668,-1.1467602252960205,0.32662028074264526
1683135830097357300,18.608357421875,9.78245735168457,-0.6400800347328186,-0.5276173949241638
1683135830115191600,18.626191650390624,9.621540069580078,-1.32921302318573,0.24466611444950104
1683135830133035300,18.64403515625,9.848259925842285,-0.5676971673965454,-0.20338992774486542
1683135830150873600,18.66187353515625,9.704092025756836,-1.1521440744400024,-0.11724831163883209
1683135830168712400,18.67971240234375,9.846465110778809,-0.9696913957595825,0.11186445504426956
1683135830186552000,18.697552001953124,9.534799575805664,-0.7746763229370117,-0.4091726839542389
1683135830204387600,18.7153876953125,9.9409818649292,-1.1228320598602295,0.2793620526790619
1683135830222232000,18.733232177734376,9.720842361450195,-0.7316055297851562,-0.5228317379951477
1683135830240067000,18.751067138671875,9.70229721069336,-1.2711870670318604,0.32602208852767944
1683135830257908500,18.768908447265623,9.844072341918945,-0.534795880317688,-0.37447673082351685
1683135830275746000,18.78674609375,9.598808288574219,-1.339382529258728,-0.02273181453347206
1683135830293584400,18.80458447265625,9.904491424560547,-0.7639086246490479,-0.02632104977965355
1683135830311424300,18.82242431640625,9.605388641357422,-0.9080761671066284,-0.251844584941864
1683135830329262600,18.8402626953125,9.984052658081055,-1.0169496536254883,0.26500511169433594
1683135830347101700,18.858101806640626,9.682557106018066,-0.7794619798660278,-0.4707878530025482
1683135830364940300,18.875940185546874,9.769296646118164,-1.2329018115997314,0.33080771565437317
1683135830382775600,18.893775634765625,9.830313682556152,-0.5635097622871399,-0.4462614357471466
1683135830400618000,18.911617919921873,9.66939640045166,-1.4344971179962158,0.13998012244701385
1683135830418456600,18.92945654296875,9.89551830291748,-0.649053156375885,-0.13639089465141296
1683135830436291300,18.947291259765624,9.590433120727539,-1.057029366493225,-0.1417747437953949
1683135830454134500,18.965134521484377,9.913464546203613,-0.8500502705574036,0.08315058797597885
1683135830471973600,18.9829736328125,9.67238712310791,-0.8847461938858032,-0.355932354927063
1683135830489811000,19.00081103515625,9.81236743927002,-1.1180464029312134,0.3451646566390991
1683135830507652000,19.018652099609376,9.735198974609375,-0.5826523303985596,-0.45643091201782227
1683135830525490400,19.036490478515624,9.721440315246582,-1.4105689525604248,0.24526432156562805
1683135830543329000,19.0543291015625,9.862616539001465,-0.5772684812545776,-0.26500511169433594
1683135830561166800,19.072166748046875,9.622735977172852,-1.200000524520874,0.0011964113218709826
1683135830579007500,19.090007568359376,10.013962745666504,-0.8069794178009033,-0.05922235921025276
1683135830596845000,19.107844970703123,9.628718376159668,-0.9463613629341125,-0.18484555184841156
1683135830614684400,19.125684326171875,9.77527904510498,-0.8883354067802429,0.20159530639648438
1683135830632523500,19.1435234375,9.69212818145752,-0.7172485589981079,-0.47557350993156433
1683135830650362000,19.161362060546875,9.81655502319336,-1.347757339477539,0.3122633695602417
1683135830668202000,19.179201904296875,9.829715728759766,-0.5635097622871399,-0.39840495586395264
1683135830686038800,19.197038818359374,9.641280174255371,-1.2430713176727295,0.13459627330303192
1683135830703864600,19.214864501953127,9.938589096069336,-0.7016952633857727,-0.16450655460357666
1683135830721725200,19.23272509765625,9.533005714416504,-1.0277173519134521,-0.03290131315588951
1683135830739556400,19.250556396484374,9.775876998901367,-0.7543373107910156,0.04905286431312561
1683135830757395700,19.268395751953125,9.772287368774414,-0.9032905697822571,-0.35533416271209717
1683135830775232800,19.286232666015625,9.79801082611084,-1.256830096244812,0.2548356056213379
1683135830793075000,19.304074951171874,9.625727653503418,-0.6065805554389954,-0.4618147611618042
1683135830810911000,19.321910888671876,9.717252731323242,-1.2717852592468262,0.22552353143692017
1683135830828752000,19.339751953125,9.891928672790527,-0.6209374666213989,-0.37447673082351685
1683135830846578200,19.357578125,9.53659439086914,-1.1617153882980347,0.11485548317432404
1683135830864428300,19.37542822265625,9.847661972045898,-0.6729813814163208,-0.08374879509210587
1683135830882266400,19.393266357421876,9.733404159545898,-1.0713863372802734,-0.26500511169433594
1683135830900107500,19.411107421875,9.708279609680176,-0.9888339638710022,0.20159530639648438
1683135830917930800,19.4289306640625,9.644271850585938,-0.625723123550415,-0.4468596279621124
1683135830935783400,19.446783447265624,9.830911636352539,-1.2855439186096191,0.2787638306617737
1683135830953622800,19.464622802734375,9.8207426071167,-0.6400800347328186,-0.4462614357471466
1683135830971449600,19.48244970703125,9.483952522277832,-1.2095718383789062,0.1908276081085205
1683135830989300700,19.50030078125,9.839286804199219,-0.5916253924369812,-0.3128615617752075
1683135831007139600,19.5181396484375,9.718449592590332,-1.200000524520874,-0.07417750358581543
1683135831024978200,19.535978271484375,9.728020668029785,-0.8117650747299194,0.10588239878416061
1683135831042813200,19.553813232421874,9.639486312866211,-0.7746763229370117,-0.4420739710330963
1683135831060656000,19.57165625,9.845269203186035,-1.2137593030929565,0.27397820353507996
1683135831078494500,19.589494384765626,9.658628463745117,-0.6358926296234131,-0.5042873620986938
1683135831096333600,19.60733349609375,9.717252731323242,-1.1802598237991333,0.3206382393836975
1683135831114172400,19.62517236328125,9.94397258758545,-0.615553617477417,-0.388235479593277
1683135831132010800,19.6430107421875,9.631709098815918,-1.32921302318573,0.06340979784727097
1683135831149851400,19.660851318359374,9.752547264099121,-0.6681957244873047,-0.08434699475765228
1683135831167689500,19.678689453125,9.652647018432617,-0.9469595551490784,-0.3278166949748993
1683135831185527800,19.69652783203125,9.836296081542969,-1.1084750890731812,0.21176479756832123
1683135831203362600,19.714362548828124,9.558728218078613,-0.6741777658462524,-0.47617170214653015
1683135831221205800,19.732205810546876,9.821938514709473,-1.1515458822250366,0.33080771565437317
1683135831239035000,19.750034912109374,9.792028427124023,-0.6305087804794312,-0.5180460810661316
1683135831256883700,19.7678837890625,9.631111145019531,-1.3387842178344727,0.22073788940906525
1683135831274722600,19.78572265625,9.843474388122559,-0.5629115104675293,-0.18903298676013947
1683135831292561200,19.80356103515625,9.694520950317383,-1.1234302520751953,-0.13160525262355804
1683135831310398700,19.821398681640623,9.841679573059082,-0.9840483069419861,0.12622138857841492
1683135831328230100,19.839230224609373,9.530014038085938,-0.755533754825592,-0.42352959513664246
1683135831346078700,19.85707861328125,9.921838760375977,-1.1371889114379883,0.29312077164649963
1683135831363913000,19.874912841796874,9.753743171691895,-0.7028916478157043,-0.5324030518531799
1683135831381759200,19.89275927734375,9.711869239807129,-1.2999008893966675,0.33080771565437317
1683135831399594800,19.9105947265625,9.834501266479492,-0.5198407173156738,-0.3320041298866272
1683135831417433600,19.92843359375,9.598808288574219,-1.2915260791778564,-0.037088751792907715
1683135831435272000,19.94627197265625,9.904491424560547,-0.7974081635475159,-0.0023928226437419653
1683135831453106200,19.964106201171877,9.591031074523926,-0.9134600162506104,-0.26141586899757385
1683135831470949600,19.98194970703125,9.964909553527832,-1.0360921621322632,0.2745763957500458
1683135831488789000,19.9997890625,9.69212818145752,-0.7938188910484314,-0.4893322288990021
1683135831506621200,20.01762109375,9.750154495239258,-1.2664014101028442,0.35473597049713135
1683135831524462000,20.035462158203124,9.830313682556152,-0.5491527915000916,-0.4414757788181305
1683135831542302500,20.053302490234376,9.645467758178711,-1.439282774925232,0.13998012244701385
1683135831560143600,20.0711435546875,9.900303840637207,-0.6442674994468689,-0.13160525262355804
1683135831577986300,20.088986328125,9.618548393249512,-1.0564311742782593,-0.13698910176753998
1683135831595821600,20.106821533203124,9.903892517089844,-0.8691928386688232,0.09272187948226929
1683135831613657900,20.124657958984375,9.677172660827637,-0.8656035661697388,-0.3607180118560791
1683135831631498800,20.142498779296876,9.821340560913086,-1.1324033737182617,0.3690928816795349
1683135831649336800,20.1603369140625,9.739984512329102,-0.5778666734695435,-0.45164528489112854
1683135831667179500,20.178179443359376,9.711869239807129,-1.3914263248443604,0.24945175647735596
1683135831685012000,20.196011962890626,9.876974105834961,-0.5772684812545776,-0.2745763957500458
1683135831702858000,20.21385791015625,9.608977317810059,-1.1569297313690186,-0.017946170642971992
1683135831720682000,20.231681884765624,9.970891952514648,-0.8117650747299194,-0.04007977992296219
1683135831738532900,20.249532958984375,9.667003631591797,-0.9511470198631287,-0.21774685382843018
1683135831756371200,20.26737109375,9.756135940551758,-0.9218349456787109,0.19680966436862946
1683135831774206000,20.2852060546875,9.67777156829834,-0.6981059908866882,-0.47557350993156433
1683135831792049000,20.303048828125,9.783055305480957,-1.3908281326293945,0.3074777126312256
1683135831809888300,20.32088818359375,9.829715728759766,-0.5443671345710754,-0.37507495284080505
1683135831827726800,20.338726806640626,9.646066665649414,-1.2526426315307617,0.13459627330303192
1683135831845561300,20.356561279296876,9.943374633789062,-0.706480860710144,-0.1501496136188507
1683135831863404300,20.374404296875,9.533005714416504,-1.01814603805542,-0.047258246690034866
1683135831881243400,20.392243408203125,9.77109146118164,-0.7639086246490479,0.0729810893535614
1683135831899081200,20.410081298828125,9.753145217895508,-0.8793623447418213,-0.37926238775253296
1683135831916921900,20.427921875,9.807581901550293,-1.2759727239608765,0.26440688967704773
1683135831934760700,20.4457607421875,9.606584548950195,-0.5928218364715576,-0.48095735907554626
1683135831952598800,20.463598876953125,9.702896118164062,-1.2574282884597778,0.22073788940906525
1683135831970436400,20.481436279296876,9.89133071899414,-0.6305087804794312,-0.37447673082351685
1683135831988265200,20.49926513671875,9.527621269226074,-1.1425727605819702,0.09571290761232376
1683135832006109400,20.517109375,9.818947792053223,-0.6777670383453369,-0.07477571070194244
1683135832023954400,20.534954345703124,9.757332801818848,-1.0761719942092896,-0.2793620526790619
1683135832041789000,20.552788818359375,9.750752449035645,-1.0271191596984863,0.19680966436862946
1683135832059636700,20.57063671875,9.629914283752441,-0.6496513485908508,-0.4378865361213684
1683135832077470500,20.588470458984375,9.854840278625488,-1.2711870670318604,0.26440688967704773
1683135832095305000,20.606304931640626,9.834501266479492,-0.6352944374084473,-0.4366901218891144
1683135832113148400,20.6241484375,9.512666702270508,-1.2287144660949707,0.1818545162677765
1683135832130975500,20.6419755859375,9.839286804199219,-0.5772684812545776,-0.29850462079048157
1683135832148826000,20.659826171875,9.713663101196289,-1.1856436729431152,-0.10289137065410614
1683135832166660400,20.677660400390625,9.732806205749512,-0.8500502705574036,0.11545369029045105
1683135832184503800,20.69550390625,9.649057388305664,-0.784247636795044,-0.4181457459926605
1683135832202343000,20.713343017578126,9.869196891784668,-1.194616675376892,0.29312077164649963
1683135832220180000,20.731179931640625,9.658628463745117,-0.664606511592865,-0.50907301902771
1683135832238021400,20.749021484375,9.688538551330566,-1.2041879892349243,0.3158525824546814
1683135832255859200,20.766859130859373,9.939187049865723,-0.5916253924369812,-0.3930211067199707
1683135832273698600,20.784698486328125,9.627521514892578,-1.334596872329712,0.015553346835076809
1683135832291536000,20.802535888671876,9.719047546386719,-0.6873382925987244,-0.0849452018737793
1683135832309377000,20.820376953125,9.648459434509277,-0.9278169870376587,-0.3278166949748993
1683135832327213600,20.838213623046876,9.874580383300781,-1.103689432144165,0.21714866161346436
1683135832345055000,20.856054931640625,9.582656860351562,-0.6693921089172363,-0.47617170214653015
1683135832362892000,20.87389208984375,9.821340560913086,-1.1419745683670044,0.3595215976238251
1683135832380730600,20.891730712890624,9.78245735168457,-0.625723123550415,-0.4989035129547119
1683135832398570000,20.909570068359375,9.622138023376465,-1.3100703954696655,0.21595224738121033
1683135832416404700,20.92740478515625,9.848259925842285,-0.5772684812545776,-0.17946170270442963
1683135832434247400,20.945247314453123,9.69930648803711,-1.0947163105010986,-0.13160525262355804
1683135832452086500,20.96308642578125,9.860821723937988,-0.9744769930839539,0.13579268753528595
1683135832469925000,20.980925048828126,9.515657424926758,-0.7363911867141724,-0.4336991012096405
1683135832487753000,20.9987529296875,9.91705322265625,-1.1228320598602295,0.29790642857551575
1683135832505603000,21.01660302734375,9.753743171691895,-0.7028916478157043,-0.5276173949241638
1683135832523442000,21.03444189453125,9.683155059814453,-1.3196417093276978,0.3206382393836975
1683135832541279700,21.05227978515625,9.829715728759766,-0.5198407173156738,-0.3128615617752075
1683135832559121200,21.07012109375,9.617950439453125,-1.2915260791778564,-0.04127619042992592
1683135832576958200,21.087958251953125,9.89970588684082,-0.8117650747299194,-0.0023928226437419653
1683135832594797000,21.105797119140625,9.605388641357422,-0.8943174481391907,-0.251844584941864
1683135832612636000,21.123635986328125,9.998409271240234,-1.031306505203247,0.2745763957500458
1683135832630475500,21.1414755859375,9.701101303100586,-0.7794619798660278,-0.48454657196998596
1683135832648306400,21.159306396484375,9.707083702087402,-1.256830096244812,0.3445664644241333
1683135832666153500,21.177153564453125,9.830313682556152,-0.5108676552772522,-0.4175475537776947
1683135832683987500,21.194987548828124,9.659825325012207,-1.415354609489441,0.11126625537872314
1683135832701834000,21.212833984375,9.905089378356934,-0.6681957244873047,-0.10289137065410614
1683135832719670300,21.230670166015624,9.585647583007812,-1.01814603805542,-0.13280165195465088
1683135832737508000,21.248508056640624,9.884750366210938,-0.8548358678817749,0.10229317098855972
1683135832755347200,21.26634716796875,9.67238712310791,-0.8703892230987549,-0.39421752095222473
1683135832773173000,21.284173095703125,9.78843879699707,-1.1611171960830688,0.3643072545528412
1683135832791024400,21.3020244140625,9.744172096252441,-0.5778666734695435,-0.4468596279621124
1683135832808863700,21.31986376953125,9.70229721069336,-1.4009976387023926,0.2350948303937912
1683135832826699000,21.337698974609374,9.89133071899414,-0.5964110493659973,-0.25064817070961
1683135832844544300,21.355544189453123,9.622735977172852,-1.1425727605819702,-0.017946170642971992
1683135832862379500,21.373379638671874,10.013962745666504,-0.8117650747299194,-0.04007977992296219
1683135832880217300,21.39121728515625,9.685547828674316,-0.9559326171875,-0.20817556977272034
1683135832898062800,21.409062744140623,9.755537986755371,-0.9314061999320984,0.24466611444950104
1683135832915896800,21.426896728515626,9.682557106018066,-0.6789634227752686,-0.4899304509162903
1683135832933730600,21.44473046875,9.769296646118164,-1.3621143102645874,0.2883351147174835
1683135832951575000,21.462574951171874,9.815957069396973,-0.5635097622871399,-0.3846462368965149
1683135832969411800,21.480411865234377,9.65085220336914,-1.2191431522369385,0.14416755735874176
1683135832987252000,21.498251953125,9.937990188598633,-0.7256234884262085,-0.1501496136188507
1683135833005090800,21.5160908203125,9.55214786529541,-1.052243709564209,-0.09451649338006973
1683135833022929200,21.53392919921875,9.742377281188965,-0.7926225066184998,0.07776673883199692
1683135833040768500,21.5517685546875,9.762716293334961,-0.8841479420661926,-0.3840480446815491
1683135833058607600,21.569607666015624,9.821938514709473,-1.2759727239608765,0.24047867953777313
1683135833076446000,21.587446044921876,9.620942115783691,-0.5874379873275757,-0.4570291340351105
1683135833094284500,21.605284423828124,9.717252731323242,-1.2335001230239868,0.21595224738121033
1683135833112123600,21.62312353515625,9.910472869873047,-0.6305087804794312,-0.3696911036968231
1683135833129962500,21.64096240234375,9.550951957702637,-1.1521440744400024,0.09631111472845078
1683135833147801000,21.658801025390623,9.852447509765625,-0.6634100675582886,-0.04127619042992592
1683135833165640200,21.67664013671875,9.776474952697754,-1.0474581718444824,-0.3074777126312256
1683135833183474400,21.694474365234374,9.760323524475098,-1.0941181182861328,0.22073788940906525
1683135833201318100,21.712318115234375,9.616155624389648,-0.6167500615119934,-0.4618147611618042
1683135833219156700,21.73015673828125,9.821938514709473,-1.280758261680603,0.25004997849464417
1683135833236995300,21.747995361328126,9.844072341918945,-0.6065805554389954,-0.42711883783340454
1683135833254829600,21.76582958984375,9.465408325195312,-1.2239288091659546,0.1621137410402298
1683135833272665000,21.7836650390625,9.839286804199219,-0.5868397355079651,-0.26500511169433594
1683135833290511600,21.80151171875,9.704092025756836,-1.176072359085083,-0.13160525262355804
1683135833308350000,21.819349853515625,9.722636222839355,-0.893121063709259,0.14895321428775787
1683135833326190600,21.837190673828125,9.625128746032715,-0.7316055297851562,-0.4660021960735321
1683135833344028700,21.855028564453125,9.90269660949707,-1.2281162738800049,0.2841476798057556
1683135833361867000,21.872866943359377,9.720842361450195,-0.6598208546638489,-0.5180460810661316
1683135833379704800,21.890704833984376,9.650253295898438,-1.194616675376892,0.30149564146995544
1683135833397546000,21.9085458984375,9.910472869873047,-0.5772684812545776,-0.3696911036968231
1683135833415384300,21.92638427734375,9.641879081726074,-1.277169108390808,-0.03170489892363548
1683135833433222400,21.944222412109376,9.742975234985352,-0.7495517134666443,-0.02751746028661728
1683135833451061500,21.9620615234375,9.648459434509277,-0.8943174481391907,-0.37507495284080505
1683135833468900000,21.979900146484376,9.860223770141602,-1.1515458822250366,0.2356930375099182
1683135833486739500,21.997739501953124,9.56351375579834,-0.6885347366333008,-0.47617170214653015
1683135833504566000,22.01556591796875,9.764511108398438,-1.1563315391540527,0.35473597049713135
1683135833522417000,22.0334169921875,9.79681396484375,-0.6161518096923828,-0.4989035129547119
1683135833540255700,22.051255859375,9.617352485656738,-1.3722838163375854,0.17766708135604858
1683135833558094600,22.069094482421875,9.824331283569336,-0.6346961855888367,-0.1698904037475586
1683135833575928300,22.08692822265625,9.66640567779541,-1.0660024881362915,-0.17946170270442963
1683135833593769200,22.104769287109374,9.841679573059082,-1.012762188911438,0.16390834748744965
1683135833611614000,22.122614013671875,9.506086349487305,-0.7172485589981079,-0.4713860750198364
1683135833629448700,22.14044873046875,9.931410789489746,-1.1563315391540527,0.3074777126312256
1683135833647289600,22.15828955078125,9.806385040283203,-0.6879364848136902,-0.5030909776687622
1683135833665127400,22.17612744140625,9.66939640045166,-1.353141188621521,0.2829512655735016
1683135833682966300,22.19396630859375,9.839286804199219,-0.5341976284980774,-0.26500511169433594
1683135833700805000,22.21180517578125,9.637093544006348,-1.2197413444519043,-0.06999006122350693
1683135833718641000,22.229640869140624,9.91825008392334,-0.8644071817398071,0.02632104977965355
1683135833736486000,22.24748583984375,9.610174179077148,-0.8943174481391907,-0.2847459018230438
1683135833754321200,22.265321044921876,9.9409818649292,-1.0456634759902954,0.29312077164649963
1683135833772160500,22.283160400390624,9.7064847946167,-0.7411768436431885,-0.5276173949241638
1683135833789992200,22.3009921875,9.673583984375,-1.319043517112732,0.33499518036842346
1683135833807838200,22.318838134765624,9.839286804199219,-0.534795880317688,-0.3607180118560791
1683135833825669400,22.33666943359375,9.631709098815918,-1.3728820085525513,0.029910283163189888
1683135833843518500,22.3545185546875,9.9140625,-0.7447660565376282,-0.059820566326379776
1683135833861354000,22.37235400390625,9.590433120727539,-0.9756734371185303,-0.17527425289154053
1683135833879179500,22.390179443359376,9.884750366210938,-0.8691928386688232,0.15493527054786682
1683135833897022700,22.408022705078125,9.69631576538086,-0.7986045479774475,-0.4181457459926605
1683135833914871600,22.42587158203125,9.821340560913086,-1.2281162738800049,0.40737804770469666
1683135833932705800,22.443705810546874,9.748957633972168,-0.5587241053581238,-0.4372883439064026
1683135833950547200,22.461547119140626,9.635896682739258,-1.353141188621521,0.2063809484243393
1683135833968380200,22.479380126953124,9.89133071899414,-0.6251249313354492,-0.2027917206287384
1683135833986227500,22.4972275390625,9.575477600097656,-1.095314621925354,-0.06580262631177902
