time,seconds_elapsed,z,y,x
1683135811589574000,0.100573974609375,9.77527904510498,-0.7651050686836243,-0.31764721870422363
1683135811607430000,0.118429931640625,9.948160171508789,-1.1521440744400024,0.35533416271209717
1683135811625264600,0.1362646484375,9.690333366394043,-0.6843472719192505,-0.4420739710330963
1683135811643105000,0.15410498046875,9.548559188842773,-1.5026925802230835,0.14416755735874176
1683135811660940300,0.171940185546875,10.003793716430664,-0.6113662123680115,-0.2021935135126114
1683135811678780200,0.1897802734375,9.602396965026855,-1.0959128141403198,-0.061016976833343506
1683135811696620500,0.20762060546875,9.864411354064941,-0.9230313301086426,0.01136590726673603
1683135811714446600,0.225446533203125,9.608379364013672,-1.0049854516983032,-0.27038896083831787
1683135811732296700,0.243296630859375,9.863214492797852,-1.0037890672683716,0.2925225794315338
1683135811750136000,0.261135986328125,9.761520385742188,-0.6891329288482666,-0.389431893825531
1683135811767974000,0.278973876953125,9.671789169311523,-1.44945228099823,0.27337998151779175
1683135811785813000,0.29681298828125,9.884750366210938,-0.6023930907249451,-0.2793620526790619
1683135811803651300,0.3146513671875,9.620942115783691,-1.2251251935958862,0.06759724020957947
1683135811821481500,0.3324814453125,9.974481582641602,-0.8123632669448853,-0.13579268753528595
1683135811839317000,0.35031689453125,9.607182502746582,-1.0959128141403198,-0.12741780281066895
1683135811857168000,0.36816796875,9.80219841003418,-0.9080761671066284,0.12083754688501358
1683135811875000000,0.386,9.69930648803711,-0.7704889178276062,-0.45164528489112854
1683135811892852500,0.4038525390625,9.762716293334961,-1.3489537239074707,0.259621262550354
1683135811910683000,0.421682861328125,9.790233612060547,-0.6215356588363647,-0.4133601188659668
1683135811928513300,0.43951318359375,9.649057388305664,-1.2628121376037598,0.2063809484243393
1683135811946361600,0.457361572265625,9.979267120361328,-0.711864709854126,-0.18305093050003052
1683135811964200000,0.475199951171875,9.488140106201172,-1.1054840087890625,0.019142581149935722
1683135811982037800,0.493037841796875,9.759725570678711,-0.7549355626106262,0.029910283163189888
1683135811999875800,0.510875732421875,9.755537986755371,-0.9571290612220764,-0.3080759048461914
1683135812017716200,0.52871630859375,9.80100154876709,-1.2388839721679688,0.22612173855304718
1683135812035554800,0.546554931640625,9.628120422363281,-0.6652047038078308,-0.4331009089946747
1683135812053393000,0.564392822265625,9.69631576538086,-1.2580264806747437,0.2063809484243393
1683135812071232000,0.58223193359375,9.913464546203613,-0.6598208546638489,-0.39840495586395264
1683135812089069800,0.60006982421875,9.530014038085938,-1.2203395366668701,0.12921242415905
1683135812106909000,0.617908935546875,9.874580383300781,-0.6687939167022705,-0.0933200865983963
1683135812124747000,0.6357470703125,9.717252731323242,-1.1054840087890625,-0.2225325107574463
1683135812142586000,0.653586181640625,9.749555587768555,-1.01814603805542,0.20159530639648438
1683135812160424400,0.671424560546875,9.632905960083008,-0.6939185857772827,-0.39960137009620667
1683135812178263000,0.689262939453125,9.810572624206543,-1.2436695098876953,0.26919254660606384
1683135812196097800,0.707097900390625,9.823135375976562,-0.698704183101654,-0.43190449476242065
1683135812213941000,0.72494091796875,9.486943244934082,-1.2538390159606934,0.19561325013637543
1683135812231779000,0.742779052734375,9.875179290771484,-0.5832505226135254,-0.29371899366378784
1683135812249617200,0.7606171875,9.678369522094727,-1.2251251935958862,-0.0891326442360878
1683135812267457500,0.77845751953125,9.721440315246582,-0.836291491985321,0.1010967567563057
1683135812285295400,0.79629541015625,9.637691497802734,-0.794417142868042,-0.42352959513664246
1683135812303134000,0.814134033203125,9.862616539001465,-1.2095718383789062,0.259621262550354
1683135812320976600,0.8319765625,9.675976753234863,-0.6747759580612183,-0.4612165689468384
1683135812338812700,0.849812744140625,9.625128746032715,-1.2149556875228882,0.31106695532798767
1683135812356647700,0.867647705078125,9.885348320007324,-0.6167500615119934,-0.37926238775253296
1683135812374479600,0.885479736328125,9.587442398071289,-1.3304094076156616,-0.008374879136681557
1683135812392327400,0.903327392578125,9.802796363830566,-0.7603194117546082,-0.046061836183071136
1683135812410165800,0.921165771484375,9.632308006286621,-0.9762716293334961,-0.34695929288864136
1683135812428005000,0.939005126953125,9.824930191040039,-1.1377872228622437,0.22612173855304718
1683135812445842700,0.9568427734375,9.571290969848633,-0.7034898400306702,-0.4953143000602722
1683135812463682600,0.9746826171875,9.757930755615234,-1.1521440744400024,0.30209386348724365
1683135812481516000,0.99251611328125,9.832706451416016,-0.6454638838768005,-0.4462614357471466
1683135812499363600,1.010363525390625,9.610772132873535,-1.4069796800613403,0.14895321428775787
1683135812517197800,1.02819775390625,9.827322959899902,-0.6544370055198669,-0.12681959569454193
1683135812535037000,1.046036865234375,9.612566947937012,-1.1054840087890625,-0.20398813486099243
1683135812552875000,1.063875,9.863813400268555,-1.01814603805542,0.16869398951530457
1683135812570704000,1.081703857421875,9.542576789855957,-0.7992027401924133,-0.4331009089946747
1683135812588553500,1.099553466796875,9.90568733215332,-1.1808580160140991,0.29790642857551575
1683135812606391600,1.1173916015625,9.795019149780273,-0.7322037220001221,-0.5222335457801819
1683135812624217600,1.135217529296875,9.586843490600586,-1.3441680669784546,0.22492532432079315
1683135812642067200,1.153067138671875,9.870393753051758,-0.597607433795929,-0.24586252868175507
1683135812659904500,1.170904541015625,9.64965534210205,-1.2490534782409668,-0.09391828626394272
1683135812677745400,1.188745361328125,9.911669731140137,-0.9272187948226929,0.07836493849754333
1683135812695583500,1.20658349609375,9.537193298339844,-0.914058268070221,-0.31405797600746155
1683135812713423600,1.224423583984375,9.90568733215332,-1.0660024881362915,0.2787638306617737
1683135812731261400,1.242261474609375,9.699904441833496,-0.7513462901115417,-0.5084748268127441
1683135812749100500,1.2601005859375,9.677172660827637,-1.2867404222488403,0.33499518036842346
1683135812766938600,1.277938720703125,9.870991706848145,-0.5545366406440735,-0.3320041298866272
1683135812784778000,1.295778076171875,9.57787036895752,-1.3926228284835815,-0.017946170642971992
1683135812802604000,1.31360400390625,9.912267684936523,-0.7692924737930298,-0.059820566326379776
1683135812820455000,1.331454833984375,9.541379928588867,-1.0049854516983032,-0.2189432680606842
1683135812838292700,1.349292724609375,9.958928108215332,-0.9942178130149841,0.20757736265659332
1683135812856133600,1.367133544921875,9.680164337158203,-0.8662018179893494,-0.42771705985069275
1683135812873971000,1.384970947265625,9.757930755615234,-1.2382856607437134,0.3355933725833893
1683135812891808500,1.40280859375,9.828518867492676,-0.6071787476539612,-0.4366901218891144
1683135812909649000,1.42064892578125,9.620343208312988,-1.4787644147872925,0.13998012244701385
1683135812927472600,1.43847265625,9.91286563873291,-0.6687939167022705,-0.1501496136188507
1683135812945325300,1.4563251953125,9.597611427307129,-1.1389836072921753,-0.0849452018737793
1683135812963159800,1.474159912109375,9.911669731140137,-0.8602197170257568,0.04007977992296219
1683135812981002800,1.492002685546875,9.641879081726074,-0.9188438653945923,-0.2991028428077698
1683135812998841900,1.509841796875,9.858428955078125,-1.1186445951461792,0.32123643159866333
1683135813016679200,1.52767919921875,9.747162818908691,-0.6269195079803467,-0.42771705985069275
1683135813034508500,1.545508544921875,9.662816047668457,-1.3824533224105835,0.2350948303937912
1683135813052357000,1.563357177734375,9.903892517089844,-0.5928218364715576,-0.2745763957500458
1683135813070196500,1.581196533203125,9.578469276428223,-1.210768222808838,0.010767702013254166
1683135813088034800,1.599034912109375,9.983454704284668,-0.8458628058433533,-0.049651071429252625
1683135813105873700,1.616873779296875,9.607781410217285,-1.0049854516983032,-0.1704886108636856
1683135813123709700,1.634709716796875,9.77826976776123,-0.9176474809646606,0.1824527233839035
1683135813141553000,1.652552978515625,9.718449592590332,-0.7369893789291382,-0.42771705985069275
1683135813159389200,1.67038916015625,9.762716293334961,-1.4063814878463745,0.2925225794315338
1683135813177228000,1.68822802734375,9.832706451416016,-0.5736792087554932,-0.355932354927063
1683135813195067000,1.70606689453125,9.582656860351562,-1.2729816436767578,0.129810631275177
1683135813212899800,1.72389990234375,9.950552940368652,-0.7692924737930298,-0.16929219663143158
1683135813230744000,1.741744140625,9.55513858795166,-1.0671988725662231,-0.028115665540099144
1683135813248571100,1.759571044921875,9.81655502319336,-0.7836494445800781,0.08255238085985184
1683135813266424800,1.7774248046875,9.713065147399902,-0.8949156403541565,-0.37028929591178894
1683135813284255700,1.795255859375,9.781859397888184,-1.2675977945327759,0.259621262550354
1683135813302097000,1.813096923828125,9.704689979553223,-0.6125625967979431,-0.4372883439064026
1683135813319938800,1.830938720703125,9.658628463745117,-1.296311616897583,0.19680966436862946
1683135813337775400,1.848775390625,9.960722923278809,-0.6598208546638489,-0.27397820353507996
1683135813355615000,1.866614990234375,9.497113227844238,-1.1868400573730469,0.09092725813388824
1683135813373453000,1.884453125,9.821938514709473,-0.7022934556007385,-0.06520441919565201
1683135813391292400,1.90229248046875,9.717252731323242,-1.0767701864242554,-0.24167509377002716
1683135813409127200,1.920127197265625,9.768099784851074,-1.095314621925354,0.21595224738121033
1683135813426972400,1.937972412109375,9.595218658447266,-0.6699903607368469,-0.4331009089946747
1683135813444807700,1.9558076171875,9.772287368774414,-1.3154542446136475,0.2309073805809021
1683135813462647000,1.97364697265625,9.823135375976562,-0.6741777658462524,-0.43190449476242065
1683135813480485000,1.991485107421875,9.525228500366211,-1.1766705513000488,0.19621145725250244
1683135813498323500,2.009323486328125,9.903294563293457,-0.6209374666213989,-0.1788634955883026
1683135813516163600,2.02716357421875,9.674181938171387,-1.196411371231079,-0.1459621787071228
1683135813533997000,2.0449970703125,9.692726135253906,-0.8991031050682068,0.14416755735874176
1683135813551839200,2.062839111328125,9.628120422363281,-0.7992027401924133,-0.41874396800994873
1683135813569666800,2.080666748046875,9.857831001281738,-1.2574282884597778,0.26440688967704773
1683135813587517000,2.098516845703125,9.732806205749512,-0.6795616149902344,-0.4468596279621124
1683135813605351400,2.116351318359375,9.525228500366211,-1.2388839721679688,0.2626122832298279
1683135813623194400,2.1341943359375,9.842277526855469,-0.5928218364715576,-0.37028929591178894
1683135813641033500,2.152033447265625,9.625727653503418,-1.2729816436767578,-0.02273181453347206
1683135813658870500,2.16987060546875,9.764511108398438,-0.7740781307220459,0.029910283163189888
1683135813676712000,2.1877119140625,9.622735977172852,-0.9188438653945923,-0.3852444589138031
1683135813694537000,2.205536865234375,9.81535816192627,-1.1665010452270508,0.24526432156562805
1683135813712388000,2.22338818359375,9.609575271606445,-0.698704183101654,-0.4899304509162903
1683135813730225200,2.24122509765625,9.738788604736328,-1.1904292106628418,0.3116651475429535
1683135813748066800,2.25906689453125,9.927821159362793,-0.631106972694397,-0.41216370463371277
1683135813765903400,2.2769033203125,9.601201057434082,-1.3878371715545654,0.1010967567563057
1683135813783742500,2.294742431640625,9.746564865112305,-0.6406782865524292,-0.10827522724866867
1683135813801580500,2.31258056640625,9.612566947937012,-1.0289137363433838,-0.26081767678260803
1683135813819404000,2.330404052734375,9.839884757995605,-1.0707881450653076,0.18305093050003052
1683135813837258500,2.348258544921875,9.556933403015137,-0.7178468108177185,-0.44745782017707825
1683135813855092500,2.366092529296875,9.820143699645996,-1.1569297313690186,0.29730820655822754
1683135813872931800,2.383931884765625,9.790233612060547,-0.6939185857772827,-0.503689169883728
1683135813890775000,2.401775146484375,9.620343208312988,-1.358525037765503,0.21595224738121033
1683135813908610800,2.41961083984375,9.827322959899902,-0.5832505226135254,-0.21296121180057526
1683135813926449200,2.43744921875,9.635896682739258,-1.191625714302063,-0.13220344483852386
1683135813944290000,2.4552900390625,9.830911636352539,-0.9415757060050964,0.0975075215101242
1683135813962129700,2.473129638671875,9.53779125213623,-0.8327022790908813,-0.41874396800994873
1683135813979966500,2.490966552734375,9.934401512145996,-1.1473584175109863,0.2554338276386261
1683135813997807900,2.508807861328125,9.747162818908691,-0.7417750358581543,-0.5084748268127441
1683135814015645000,2.52664501953125,9.667601585388184,-1.2867404222488403,0.28235307335853577
1683135814033483800,2.54448388671875,9.842277526855469,-0.5497509837150574,-0.3320041298866272
1683135814051321000,2.562321044921875,9.616155624389648,-1.3304094076156616,-0.046061836183071136
1683135814069162200,2.580162353515625,9.869196891784668,-0.8171489238739014,-0.02632104977965355
1683135814086999600,2.59799951171875,9.584450721740723,-0.9571290612220764,-0.26141586899757385
1683135814104838700,2.615838623046875,9.939187049865723,-1.0325030088424683,0.2554338276386261
1683135814122673400,2.63367333984375,9.642477035522461,-0.8183453679084778,-0.50907301902771
1683135814140516000,2.65151611328125,9.710074424743652,-1.2580264806747437,0.33499518036842346
1683135814158353400,2.669353515625,9.847063064575195,-0.5928218364715576,-0.3696911036968231
1683135814176189700,2.687189697265625,9.596415519714355,-1.4452649354934692,0.04905286431312561
1683135814194031000,2.705031005859375,9.888937950134277,-0.7022934556007385,-0.11724831163883209
1683135814211870700,2.72287060546875,9.583852767944336,-1.057627558708191,-0.1704886108636856
1683135814229691400,2.74069140625,9.949356079101562,-0.9128618240356445,0.11665010452270508
1683135814247548200,2.758548095703125,9.651450157165527,-0.8949156403541565,-0.34695929288864136
1683135814265383000,2.7763828125,9.824930191040039,-1.1665010452270508,0.32123643159866333
1683135814283228000,2.794227783203125,9.775876998901367,-0.6317051649093628,-0.503689169883728
1683135814301062000,2.812061767578125,9.634101867675781,-1.4644074440002441,0.19680966436862946
1683135814318903800,2.82990380859375,9.91286563873291,-0.625723123550415,-0.20757736265659332
1683135814336737800,2.84773779296875,9.559326171875,-1.2011969089508057,-0.05623133108019829
1683135814354587000,2.8655869140625,9.926026344299316,-0.8554341197013855,0.01196411345154047
1683135814372418000,2.88341796875,9.589237213134766,-0.9954141974449158,-0.2566302418708801
1683135814390254600,2.901254638671875,9.801599502563477,-0.9846464991569519,0.24466611444950104
1683135814408098000,2.91909814453125,9.751948356628418,-0.7034898400306702,-0.4372883439064026
1683135814425934600,2.9369345703125,9.738788604736328,-1.454237937927246,0.27337998151779175
1683135814443769600,2.95476953125,9.847063064575195,-0.5688936114311218,-0.3320041298866272
1683135814461614600,2.972614501953125,9.592227935791016,-1.277767300605774,0.06759724020957947
1683135814479448600,2.990448486328125,9.979267120361328,-0.8123632669448853,-0.13100704550743103
1683135814497289700,3.008289794921875,9.583852767944336,-1.0336993932724,-0.07058826833963394
1683135814515127600,3.02612744140625,9.81655502319336,-0.8697910308837891,0.12083754688501358
1683135814532952300,3.043952392578125,9.670592308044434,-0.8231309652328491,-0.42293140292167664
1683135814550807600,3.0618076171875,9.791430473327637,-1.3298112154006958,0.27397820353507996
1683135814568643000,3.07964306640625,9.795019149780273,-0.5928218364715576,-0.4133601188659668
1683135814586483200,3.097483154296875,9.629914283752441,-1.3106685876846313,0.1824527233839035
1683135814604307500,3.115307373046875,9.917651176452637,-0.6741777658462524,-0.2315055876970291
1683135814622147000,3.13314697265625,9.478569030761719,-1.0959128141403198,0.062213387340307236
1683135814640001500,3.15100146484375,9.821938514709473,-0.7166503667831421,-0.050847481936216354
1683135814657836500,3.16883642578125,9.755537986755371,-1.0289137363433838,-0.24586252868175507
1683135814675676200,3.18667626953125,9.763314247131348,-1.1234302520751953,0.2350948303937912
1683135814693509600,3.204509521484375,9.614361763000488,-0.6364908218383789,-0.44745782017707825
1683135814711341600,3.222341552734375,9.729216575622559,-1.3106685876846313,0.2590230405330658
1683135814729180200,3.24018017578125,9.842277526855469,-0.6358926296234131,-0.40319061279296875
1683135814747030300,3.2580302734375,9.539586067199707,-1.1766705513000488,0.19621145725250244
1683135814764856000,3.27585595703125,9.908080101013184,-0.6735795736312866,-0.12681959569454193
1683135814782697000,3.293697021484375,9.711869239807129,-1.1389836072921753,-0.15074782073497772
1683135814800534300,3.3115341796875,9.716055870056152,-0.9176474809646606,0.1585244983434677
1683135814818386700,3.32938671875,9.642477035522461,-0.7465606927871704,-0.41874396800994873
1683135814836224500,3.347224609375,9.81535816192627,-1.2819547653198242,0.26919254660606384
1683135814854062800,3.365062744140625,9.775876998901367,-0.6747759580612183,-0.4414757788181305
1683135814871901000,3.38290087890625,9.486943244934082,-1.2340983152389526,0.22911277413368225
1683135814889740000,3.400739990234375,9.856635093688965,-0.597607433795929,-0.3320041298866272
1683135814907578400,3.418578369140625,9.635298728942871,-1.2442678213119507,0.015553346835076809
1683135814925417500,3.43641748046875,9.702896118164062,-0.7645068168640137,0.07238288223743439
1683135814943251000,3.4542509765625,9.656235694885254,-0.914058268070221,-0.3846462368965149
1683135814961094700,3.4720947265625,9.834501266479492,-1.171286702156067,0.2548356056213379
1683135814978933200,3.489933349609375,9.604789733886719,-0.7082754969596863,-0.494716078042984
1683135814996768300,3.507768310546875,9.725028991699219,-1.171286702156067,0.30209386348724365
1683135815014605800,3.525605712890625,9.937392234802246,-0.6263213157653809,-0.40259242057800293
1683135815032447200,3.543447265625,9.58205795288086,-1.373480200767517,0.10588239878416061
1683135815050290200,3.561290283203125,9.732208251953125,-0.6215356588363647,-0.12741780281066895
1683135815068113200,3.579113037109375,9.626923561096191,-1.062413215637207,-0.26081767678260803
1683135815085953500,3.59695361328125,9.825528144836426,-1.085145115852356,0.2021935135126114
1683135815103794200,3.614794189453125,9.55214786529541,-0.7226324677467346,-0.47617170214653015
1683135815121630500,3.63263037109375,9.834501266479492,-1.1808580160140991,0.29312077164649963
1683135815139473000,3.650472900390625,9.775876998901367,-0.6939185857772827,-0.5180460810661316
1683135815157307600,3.6683076171875,9.605986595153809,-1.358525037765503,0.22971096634864807
1683135815175147300,3.686147216796875,9.851250648498535,-0.5635097622871399,-0.2225325107574463
1683135815192988200,3.70398828125,9.65503978729248,-1.2059825658798218,-0.11306086927652359
1683135815210824000,3.721823974609375,9.826126098632812,-0.9128618240356445,0.10169496387243271
1683135815228663000,3.7396630859375,9.53779125213623,-0.8279166221618652,-0.4043870270252228
1683135815246502100,3.757502197265625,9.934401512145996,-1.1521440744400024,0.24586252868175507
1683135815264340000,3.775340087890625,9.728020668029785,-0.7513462901115417,-0.503689169883728
1683135815282182100,3.79318212890625,9.667601585388184,-1.2867404222488403,0.30628129839897156
1683135815300023000,3.81102294921875,9.827920913696289,-0.5353940725326538,-0.34636107087135315
1683135815317858800,3.82885888671875,9.597013473510742,-1.3543375730514526,-0.008374879136681557
1683135815335703800,3.846703857421875,9.855438232421875,-0.7692924737930298,-0.03170489892363548
1683135815353546000,3.8645458984375,9.594022750854492,-0.9667003750801086,-0.23270200192928314
1683135815371372800,3.882372802734375,9.94397258758545,-1.046859860420227,0.24586252868175507
1683135815389222400,3.900222412109375,9.608977317810059,-0.8183453679084778,-0.5138586759567261
1683135815407062800,3.918062744140625,9.738788604736328,-1.2335001230239868,0.33080771565437317
1683135815424900400,3.935900390625,9.832706451416016,-0.6167500615119934,-0.39840495586395264
1683135815442734800,3.95373486328125,9.58205795288086,-1.459621787071228,0.08733802288770676
1683135815460577800,3.971577880859375,9.860223770141602,-0.6640082597732544,-0.13639089465141296
1683135815478404400,3.989404296875,9.602995872497559,-1.1198409795761108,-0.1657029688358307
1683135815496251100,4.007251220703125,9.945169448852539,-0.898504912853241,0.06939185410737991
1683135815514093600,4.025093505859375,9.651450157165527,-0.9188438653945923,-0.3326023519039154
1683135815531933000,4.042932861328125,9.857831001281738,-1.1473584175109863,0.33080771565437317
1683135815549770800,4.060770751953125,9.761520385742188,-0.6556333899497986,-0.48454657196998596
1683135815567610000,4.078610107421875,9.648459434509277,-1.430309772491455,0.22073788940906525
1683135815585443600,4.096443603515625,9.923035621643066,-0.6113662123680115,-0.2267199456691742
1683135815603287600,4.11428759765625,9.573683738708496,-1.2299108505249023,-0.037088751792907715
1683135815621125400,4.13212548828125,9.926624298095703,-0.836291491985321,-0.01196411345154047
1683135815638965000,4.149965087890625,9.589237213134766,-0.9810572862625122,-0.2470589429140091
1683135815656799200,4.16779931640625,9.78245735168457,-0.9559326171875,0.22552353143692017
1683135815674642400,4.185642333984375,9.723235130310059,-0.7561319470405579,-0.46061834692955017
1683135815692480300,4.203480224609375,9.757930755615234,-1.4398809671401978,0.29730820655822754
1683135815710318300,4.221318359375,9.827920913696289,-0.5736792087554932,-0.34636107087135315
1683135815728147000,4.23914697265625,9.582656860351562,-1.3208380937576294,0.09631111472845078
1683135815745996800,4.256996826171875,9.945767402648926,-0.7645068168640137,-0.12622138857841492
1683135815763833300,4.274833251953125,9.56471061706543,-1.057627558708191,-0.05623133108019829
1683135815781676800,4.2926767578125,9.81655502319336,-0.8123632669448853,0.11605189740657806
1683135815799512800,4.310512939453125,9.675378799438477,-0.8662018179893494,-0.39421752095222473
1683135815817335600,4.32833544921875,9.77707290649414,-1.3058829307556152,0.26919254660606384
1683135815835194400,4.3461943359375,9.747162818908691,-0.5928218364715576,-0.4325026869773865
1683135815853029000,4.364029052734375,9.677172660827637,-1.339382529258728,0.19680966436862946
1683135815870867700,4.38186767578125,9.932008743286133,-0.6741777658462524,-0.24526432156562805
1683135815888703700,4.399703857421875,9.477970123291016,-1.1341979503631592,0.08135596662759781
1683135815906542800,4.41754296875,9.831509590148926,-0.7310073375701904,-0.05563312768936157
1683135815924383700,4.4353837890625,9.731609344482422,-1.0480563640594482,-0.21774685382843018
1683135815942222800,4.453222900390625,9.758528709411621,-1.085145115852356,0.23030917346477509
1683135815960061000,4.47106103515625,9.604789733886719,-0.6604190468788147,-0.4378865361213684
1683135815977899300,4.488899169921875,9.753145217895508,-1.3154542446136475,0.2638086974620819
1683135815995739000,4.50673876953125,9.814162254333496,-0.6358926296234131,-0.4223332107067108
1683135816013565400,4.5245654296875,9.558728218078613,-1.1718848943710327,0.19142581522464752
1683135816031415300,4.542415283203125,9.903294563293457,-0.6544370055198669,-0.1788634955883026
1683135816049252600,4.560252685546875,9.66939640045166,-1.1868400573730469,-0.13698910176753998
1683135816067096600,4.5780966796875,9.70229721069336,-0.865005373954773,0.13938191533088684
1683135816084931800,4.595931884765625,9.656235694885254,-0.794417142868042,-0.39900317788124084
1683135816102767400,4.613767333984375,9.805787086486816,-1.2813565731048584,0.27397820353507996
1683135816120597200,4.63159716796875,9.723235130310059,-0.6604190468788147,-0.4420739710330963
1683135816138436900,4.649436767578125,9.525228500366211,-1.2149556875228882,0.25304099917411804
1683135816156286700,4.66728662109375,9.861420631408691,-0.5928218364715576,-0.364905446767807
1683135816174126000,4.6851259765625,9.606584548950195,-1.2538390159606934,0.015553346835076809
1683135816191960800,4.7029609375,9.731609344482422,-0.7405785918235779,0.039481572806835175
1683135816209806600,4.720806640625,9.675378799438477,-0.9427721500396729,-0.37028929591178894
1683135816227641000,4.73864111328125,9.81535816192627,-1.171286702156067,0.24047867953777313
1683135816245480700,4.756480712890625,9.57607650756836,-0.6843472719192505,-0.48574298620224
1683135816263318500,4.774318603515625,9.743574142456055,-1.195214867591858,0.29730820655822754
1683135816281158400,4.792158447265625,9.93260669708252,-0.6215356588363647,-0.3978067636489868
1683135816298996200,4.809996337890625,9.591629981994629,-1.368694543838501,0.12023933976888657
1683135816316836000,4.827836181640625,9.732208251953125,-0.5928218364715576,-0.13698910176753998
1683135816334674000,4.845673828125,9.655637741088867,-1.0863415002822876,-0.23210379481315613
1683135816352511700,4.86351171875,9.8207426071167,-1.046859860420227,0.18783657252788544
1683135816370342400,4.88134228515625,9.561718940734863,-0.7369893789291382,-0.4666004180908203
1683135816388193000,4.899193115234375,9.857831001281738,-1.1856436729431152,0.3074777126312256
1683135816406028300,4.9170283203125,9.77109146118164,-0.6939185857772827,-0.537188708782196
1683135816423868200,4.9348681640625,9.610772132873535,-1.3298112154006958,0.24406790733337402
1683135816441707500,4.95270751953125,9.823135375976562,-0.5880361795425415,-0.23688943684101105
1683135816459544000,4.9705439453125,9.635896682739258,-1.2346965074539185,-0.11306086927652359
1683135816477383400,4.988383544921875,9.79262638092041,-0.9080761671066284,0.08255238085985184
1683135816495222300,5.00622216796875,9.528220176696777,-0.8470591902732849,-0.4091726839542389
1683135816513060900,5.024060791015625,9.934401512145996,-1.176072359085083,0.24107688665390015
1683135816530900200,5.041900146484375,9.714262008666992,-0.7369893789291382,-0.5084748268127441
1683135816548737800,5.05973779296875,9.677172660827637,-1.272383451461792,0.30149564146995544
1683135816566578200,5.077578125,9.823135375976562,-0.5401797294616699,-0.3655036687850952
1683135816584415700,5.095415771484375,9.606584548950195,-1.373480200767517,-0.008374879136681557
1683135816602254800,5.1132548828125,9.855438232421875,-0.7884350419044495,-0.04546362906694412
1683135816620093000,5.131093017578125,9.584450721740723,-1.0145567655563354,-0.23748764395713806
1683135816637932500,5.1489326171875,9.94397258758545,-1.0516455173492432,0.21714866161346436
1683135816655770600,5.1667705078125,9.604789733886719,-0.794417142868042,-0.50907301902771
1683135816673605000,5.184605224609375,9.748359680175781,-1.2095718383789062,0.32602208852767944
1683135816691448000,5.202447998046875,9.814162254333496,-0.597607433795929,-0.43190449476242065
1683135816709287200,5.220287109375,9.58205795288086,-1.4644074440002441,0.1010967567563057
1683135816727125500,5.23812548828125,9.856036186218262,-0.6448656916618347,-0.14117653667926788
1683135816744964600,5.255964599609375,9.631111145019531,-1.0911271572113037,-0.14656038582324982
1683135816762799400,5.27379931640625,9.93559741973877,-0.8889335989952087,0.09272187948226929
1683135816780642300,5.291642333984375,9.632308006286621,-0.9044869542121887,-0.3517449200153351
1683135816798479400,5.309479248046875,9.862616539001465,-1.1425727605819702,0.3170489966869354
1683135816816321000,5.327321044921875,9.78544807434082,-0.6699903607368469,-0.4941178858280182
1683135816834158300,5.345158447265625,9.638887405395508,-1.44945228099823,0.22552353143692017
1683135816851996400,5.362996337890625,9.879964828491211,-0.6017948985099792,-0.2267199456691742
1683135816869835300,5.380835205078125,9.578469276428223,-1.2394821643829346,-0.05144568532705307
1683135816887674600,5.398674560546875,9.930811882019043,-0.8506484627723694,0.0023928226437419653
1683135816905512200,5.41651220703125,9.570094108581543,-1.0001999139785767,-0.2566302418708801
1683135816923352000,5.43435205078125,9.801599502563477,-0.9750752449035645,0.24466611444950104
1683135816941190100,5.452190185546875,9.737591743469238,-0.7322037220001221,-0.45104706287384033
1683135816959029500,5.470029541015625,9.752547264099121,-1.4638092517852783,0.30209386348724365
1683135816976867600,5.48786767578125,9.827920913696289,-0.5688936114311218,-0.34636107087135315
1683135816994702300,5.505702392578125,9.592227935791016,-1.3112667798995972,0.09152546525001526
1683135817012545000,5.523544921875,9.945767402648926,-0.7740781307220459,-0.13100704550743103
1683135817030384000,5.541384033203125,9.574281692504883,-1.038485050201416,-0.04666004329919815
1683135817048209700,5.559209716796875,9.826126098632812,-0.8506484627723694,0.11126625537872314
1683135817066061000,5.57706103515625,9.637691497802734,-0.8327022790908813,-0.4085744619369507
1683135817083898400,5.5948984375,9.80518913269043,-1.3148560523986816,0.3026920557022095
1683135817101741800,5.612741943359375,9.751948356628418,-0.6023930907249451,-0.42293140292167664
1683135817119576000,5.630576171875,9.653244972229004,-1.358525037765503,0.21595224738121033
1683135817137418000,5.64841796875,9.908679008483887,-0.6640082597732544,-0.2315055876970291
1683135817155248600,5.66624853515625,9.473783493041992,-1.124626636505127,0.07178468257188797
1683135817173084400,5.68408447265625,9.81236743927002,-0.7357929348945618,-0.046061836183071136
1683135817190930700,5.7019306640625,9.731609344482422,-1.038485050201416,-0.23629122972488403
1683135817208770600,5.7197705078125,9.758528709411621,-1.0755738019943237,0.23988047242164612
1683135817226612700,5.73761279296875,9.595218658447266,-0.6699903607368469,-0.45224347710609436
1683135817244449000,5.755448974609375,9.734002113342285,-1.3489537239074707,0.268594354391098
1683135817262285600,5.77328564453125,9.80937671661377,-0.6167500615119934,-0.4366901218891144
1683135817280118500,5.791118408203125,9.591629981994629,-1.186241865158081,0.20099709928035736
1683135817297965000,5.808965087890625,9.908080101013184,-0.6592226624488831,-0.15493527054786682
1683135817315799600,5.826799560546875,9.66939640045166,-1.1629117727279663,-0.1178465187549591
1683135817333642500,5.844642578125,9.692726135253906,-0.836291491985321,0.129810631275177
1683135817351481300,5.8624814453125,9.665806770324707,-0.794417142868042,-0.4181457459926605
1683135817369319000,5.88031884765625,9.81535816192627,-1.3058829307556152,0.259621262550354
1683135817387162600,5.89816259765625,9.742377281188965,-0.6502495408058167,-0.42293140292167664
1683135817404997000,5.9159970703125,9.515657424926758,-1.2245270013809204,0.25304099917411804
1683135817422832400,5.933832275390625,9.847063064575195,-0.6167500615119934,-0.35533416271209717
1683135817440673800,5.951673828125,9.597013473510742,-1.2299108505249023,0.02512463741004467
1683135817458515000,5.969514892578125,9.722038269042969,-0.7166503667831421,0.048454657196998596
1683135817476352300,5.987352294921875,9.68913745880127,-0.9427721500396729,-0.37028929591178894
1683135817494191400,6.00519140625,9.796216011047363,-1.1521440744400024,0.24047867953777313
1683135817512017700,6.023017578125,9.580862045288086,-0.6795616149902344,-0.47617170214653015
1683135817529869000,6.040869140625,9.748359680175781,-1.1808580160140991,0.30209386348724365
1683135817547707100,6.05870703125,9.89970588684082,-0.6119644045829773,-0.39840495586395264
1683135817565546500,6.07654638671875,9.58205795288086,-1.3543375730514526,0.12502498924732208
1683135817583384600,6.094384521484375,9.751350402832031,-0.6023930907249451,-0.1657029688358307
1683135817601224000,6.112223876953125,9.631709098815918,-1.062413215637207,-0.24646073579788208
1683135817619062000,6.13006201171875,9.81117057800293,-1.085145115852356,0.19262222945690155
1683135817636893700,6.147893798828125,9.55214786529541,-0.7082754969596863,-0.4713860750198364
1683135817654740000,6.165739990234375,9.872187614440918,-1.195214867591858,0.29312077164649963
1683135817672579000,6.1835791015625,9.775876998901367,-0.6891329288482666,-0.5324030518531799
1683135817690416000,6.201416015625,9.601201057434082,-1.3537393808364868,0.2632105052471161
1683135817708256500,6.219256591796875,9.832706451416016,-0.5832505226135254,-0.24646073579788208
1683135817726096000,6.237095947265625,9.640682220458984,-1.2251251935958862,-0.12741780281066895
1683135817743933400,6.254933349609375,9.80219841003418,-0.8937192559242249,0.08255238085985184
1683135817761770800,6.272770751953125,9.551549911499023,-0.8374879360198975,-0.42352959513664246
1683135817779612700,6.29061279296875,9.958329200744629,-1.1904292106628418,0.24107688665390015
1683135817797438500,6.3084384765625,9.685547828674316,-0.7465606927871704,-0.5084748268127441
1683135817815289000,6.3262890625,9.67238712310791,-1.2388839721679688,0.2967100143432617
1683135817833117200,6.3441171875,9.851848602294922,-0.5401797294616699,-0.3655036687850952
1683135817850969300,6.36196923828125,9.601799011230469,-1.3782658576965332,0.020338991656899452
1683135817868801800,6.3798017578125,9.855438232421875,-0.7549355626106262,-0.05024927482008934
1683135817886647000,6.39764697265625,9.612566947937012,-1.0001999139785767,-0.2560320198535919
1683135817904482000,6.41548193359375,9.92542839050293,-1.0516455173492432,0.2315055876970291
1683135817922314200,6.433314208984375,9.53779125213623,-0.7657032608985901,-0.5288137793540955
1683135817940159700,6.45115966796875,9.69093132019043,-1.2143574953079224,0.41156548261642456
1683135817957983000,6.46898291015625,9.878170013427734,-1.1335997581481934,-0.007178467698395252
1683135817975841800,6.486841796875,9.624530792236328,-1.516451358795166,0.22552353143692017
1683135817993676800,6.5046767578125,9.951150894165039,-0.6400800347328186,-0.16929219663143158
1683135818011513300,6.522513427734375,9.732208251953125,-1.038485050201416,-0.3696911036968231
1683135818029355300,6.540355224609375,9.9469633102417,-0.47258245944976807,-0.3409772217273712
1683135818047188000,6.55818798828125,9.518648147583008,-0.727418065071106,-0.4049852192401886
1683135818065031400,6.576031494140625,9.744770050048828,-0.865005373954773,0.19680966436862946
1683135818082862300,6.5938623046875,9.716654777526855,-1.0378868579864502,-0.07477571070194244
1683135818100703200,6.611703125,9.600004196166992,-1.4877375364303589,0.46839502453804016
1683135818118538000,6.6295380859375,9.958928108215332,-0.9032905697822571,0.08853443711996078
1683135818136386600,6.647386474609375,9.711270332336426,-1.4261223077774048,-0.01196411345154047
1683135818154224600,6.665224609375,9.975079536437988,-0.6065805554389954,-0.24047867953777313
1683135818172063000,6.68306298828125,9.642477035522461,-0.7896314859390259,-0.4660021960735321
1683135818189903600,6.700903564453125,9.827920913696289,-0.5060819983482361,-0.1746760457754135
1683135818207736000,6.718736083984375,9.637093544006348,-0.8374879360198975,-0.3565305769443512
1683135818225584000,6.736584228515625,9.629316329956055,-1.2436695098876953,0.31106695532798767
1683135818243419000,6.7544189453125,9.841679573059082,-0.6502495408058167,-0.26979073882102966
1683135818261243600,6.77224365234375,9.592227935791016,-1.3112667798995972,0.09631111472845078
1683135818279087900,6.790087890625,9.945767402648926,-0.7214360237121582,-0.13100704550743103
1683135818296917200,6.807917236328125,9.588040351867676,-1.0713863372802734,-0.04187439754605293
1683135818314774300,6.825774169921875,9.81655502319336,-0.8267202377319336,0.10648060590028763
1683135818332612600,6.843612548828125,9.6466646194458,-0.8327022790908813,-0.39421752095222473
1683135818350451700,6.86145166015625,9.77707290649414,-1.3004990816116333,0.3068794906139374
1683135818368287000,6.879286865234375,9.747162818908691,-0.5880361795425415,-0.42771705985069275
1683135818386130000,6.8971298828125,9.677172660827637,-1.3824533224105835,0.20159530639648438
1683135818403955000,6.914954833984375,9.889535903930664,-0.6305087804794312,-0.2554338276386261
1683135818421807600,6.9328076171875,9.445069313049316,-1.0666006803512573,0.05742774158716202
1683135818439645400,6.9506455078125,9.787840843200684,-0.9176474809646606,0.09690931439399719
1683135818457484500,6.968484619140625,9.724431037902832,-1.44945228099823,0.18783657252788544
1683135818475322600,6.986322509765625,9.815957069396973,-1.0707881450653076,0.18305093050003052
1683135818493160200,7.00416015625,9.765707015991211,-0.9332008361816406,-0.4654040038585663
1683135818510999800,7.021999755859375,9.764511108398438,-0.9278169870376587,-0.11724831163883209
1683135818528824600,7.039824462890625,9.824331283569336,-0.3439682424068451,-0.5706881880760193
1683135818546680600,7.0576806640625,9.455238342285156,-0.8464609980583191,-0.062213387340307236
1683135818564507600,7.075507568359375,9.750752449035645,-0.6640082597732544,-0.10827522724866867
1683135818582343700,7.09334375,9.524630546569824,-1.334596872329712,0.2392822653055191
1683135818600184800,7.111184814453125,9.691530227661133,-1.0516455173492432,0.3397808074951172
1683135818618023700,7.129023681640625,9.773484230041504,-1.3495519161224365,-0.0975075215101242
1683135818635863000,7.146863037109375,9.863214492797852,-1.200000524520874,0.15493527054786682
1683135818653701000,7.164701171875,9.82373332977295,-0.698704183101654,-0.5653043389320374
1683135818671538700,7.18253857421875,9.608379364013672,-0.8081758618354797,-0.1663011759519577
1683135818689378000,7.2003779296875,9.800403594970703,-0.38225340843200684,-0.5419743061065674
1683135818707217200,7.218217041015625,9.430712699890137,-1.1054840087890625,0.062213387340307236
1683135818725055200,7.23605517578125,9.66939640045166,-0.7549355626106262,0.05802594870328903
1683135818742894800,7.253894775390625,9.726823806762695,-1.129412293434143,-0.21236300468444824
1683135818760736800,7.27173681640625,9.801599502563477,-1.0995019674301147,0.1782652884721756
1683135818778572300,7.289572265625,9.585647583007812,-0.6699903607368469,-0.4570291340351105
1683135818796420900,7.3074208984375,9.748359680175781,-1.2095718383789062,0.2829512655735016
1683135818814261800,7.32526171875,9.880562782287598,-0.597607433795929,-0.40319061279296875
1683135818832098300,7.343098388671875,9.56351375579834,-1.358525037765503,0.12023933976888657
1683135818849933600,7.36093359375,9.732208251953125,-0.5682953596115112,-0.1417747437953949
1683135818867779800,7.37877978515625,9.646066665649414,-1.0863415002822876,-0.23688943684101105
1683135818885615400,7.396615478515625,9.792028427124023,-1.01814603805542,0.18305093050003052
1683135818903453200,7.414453125,9.53779125213623,-0.7082754969596863,-0.48095735907554626
1683135818921292800,7.432292724609375,9.872187614440918,-1.2239288091659546,0.2883351147174835
1683135818939130600,7.450130615234375,9.77109146118164,-0.6885347366333008,-0.503689169883728
1683135818956970500,7.467970458984375,9.610174179077148,-1.3441680669784546,0.2679961323738098
1683135818974804000,7.485803955078125,9.832706451416016,-0.5635097622871399,-0.2602194547653198
1683135818992648400,7.5036484375,9.640682220458984,-1.2346965074539185,-0.12263216078281403
1683135819010486300,7.521486328125,9.768698692321777,-0.8841479420661926,0.07776673883199692
1683135819028324000,7.539323974609375,9.561120986938477,-0.8422735929489136,-0.4331009089946747
1683135819046160000,7.557159912109375,9.948758125305176,-1.195214867591858,0.24107688665390015
1683135819064002800,7.5750029296875,9.671191215515137,-0.7465606927871704,-0.5180460810661316
1683135819081841400,7.59284130859375,9.677172660827637,-1.2478569746017456,0.30149564146995544
1683135819099678000,7.610677978515625,9.827920913696289,-0.5401797294616699,-0.37507495284080505
1683135819117522000,7.62852197265625,9.606584548950195,-1.3830515146255493,0.029910283163189888
1683135819135358500,7.6463583984375,9.8267240524292,-0.7645068168640137,-0.050847481936216354
1683135819153195800,7.66419580078125,9.608379364013672,-0.9858429431915283,-0.27038896083831787
1683135819171022600,7.682022705078125,9.92542839050293,-1.042074203491211,0.2315055876970291
1683135819188867300,7.699867431640625,9.590433120727539,-0.7704889178276062,-0.5234299302101135
1683135819206712600,7.717712646484375,9.791430473327637,-1.2382856607437134,0.32602208852767944
1683135819224547300,7.73554736328125,9.804591178894043,-0.6167500615119934,-0.42711883783340454
1683135819242395100,7.75339501953125,9.586843490600586,-1.4452649354934692,0.11545369029045105
1683135819260228900,7.771228759765625,9.836894035339355,-0.6400800347328186,-0.13160525262355804
1683135819278068700,7.78906884765625,9.616754531860352,-1.1150553226470947,-0.16091732680797577
1683135819295890200,7.80689013671875,9.945169448852539,-0.9032905697822571,0.10289137065410614
1683135819313746400,7.824746337890625,9.613164901733398,-0.885344386100769,-0.3517449200153351
1683135819331584500,7.84258447265625,9.876974105834961,-1.1425727605819702,0.32183465361595154
1683135819349424000,7.860424072265625,9.761520385742188,-0.6693921089172363,-0.5084748268127441
1683135819367262200,7.87826220703125,9.65803050994873,-1.454237937927246,0.25423741340637207
1683135819385101600,7.8961015625,9.879964828491211,-0.5587241053581238,-0.2267199456691742
1683135819402939600,7.913939697265625,9.597013473510742,-1.2729816436767578,-0.04666004329919815
1683135819420783400,7.931783447265625,9.88833999633789,-0.8315058946609497,0.0023928226437419653
1683135819438618400,7.949618408203125,9.565308570861816,-0.9571290612220764,-0.2470589429140091
1683135819456457000,7.96745703125,9.825528144836426,-0.9655039310455322,0.22133609652519226
1683135819474295000,7.985294921875,9.728020668029785,-0.7411768436431885,-0.42771705985069275
1683135819492133400,8.00313330078125,9.734002113342285,-1.4063814878463745,0.3116651475429535
1683135819509970400,8.020970458984374,9.78544807434082,-0.5497509837150574,-0.37507495284080505
1683135819527814700,8.038814697265625,9.573084831237793,-1.3639088869094849,0.09631111472845078
1683135819545643500,8.0566435546875,9.926624298095703,-0.7549355626106262,-0.12143574655056
1683135819563490000,8.074489990234374,9.56471061706543,-1.0235298871994019,-0.06580262631177902
1683135819581328000,8.092327880859376,9.81655502319336,-0.836291491985321,0.10169496387243271
1683135819599167500,8.11016748046875,9.641879081726074,-0.8566305041313171,-0.40378883481025696
1683135819617006000,8.128006103515625,9.77707290649414,-1.2861422300338745,0.30209386348724365
1683135819634843400,8.145843505859375,9.719047546386719,-0.5784648656845093,-0.4372883439064026
1683135819652681000,8.163680908203125,9.677172660827637,-1.3680963516235352,0.22073788940906525
1683135819670522000,8.181522216796875,9.889535903930664,-0.6496513485908508,-0.25064817070961
1683135819688360700,8.199360595703125,9.487542152404785,-1.1240284442901611,0.08135596662759781
1683135819706200800,8.217200927734375,9.850652694702148,-0.7501499056816101,-0.05503492057323456
1683135819724036900,8.235036865234376,9.707681655883789,-1.057029366493225,-0.20338992774486542
1683135819741878300,8.252878173828124,9.739984512329102,-1.0133603811264038,0.21595224738121033
1683135819759714800,8.27071484375,9.628120422363281,-0.698704183101654,-0.45643091201782227
1683135819777558300,8.288558349609374,9.748359680175781,-1.358525037765503,0.27397820353507996
1683135819795394000,8.30639404296875,9.756733894348145,-0.6119644045829773,-0.4372883439064026
1683135819813221400,8.324221435546875,9.587442398071289,-1.1910275220870972,0.17706887423992157
1683135819831071700,8.34207177734375,9.888937950134277,-0.6687939167022705,-0.18843477964401245
1683135819848911000,8.3599111328125,9.631111145019531,-1.1670992374420166,-0.07956135272979736
1683135819866749000,8.3777490234375,9.707083702087402,-0.7980063557624817,0.11066804826259613
1683135819884588800,8.3955888671875,9.675378799438477,-0.8422735929489136,-0.4133601188659668
1683135819902426600,8.413426513671874,9.824331283569336,-1.2765709161758423,0.2787638306617737
1683135819920266000,8.431265869140624,9.637691497802734,-0.6167500615119934,-0.42352959513664246
1683135819938104800,8.449104736328126,9.610772132873535,-1.2340983152389526,0.2584248483181
1683135819955943700,8.466943603515626,9.818349838256836,-0.6119644045829773,-0.3888336718082428
1683135819973782300,8.4847822265625,9.54915714263916,-1.2628121376037598,0.048454657196998596
1683135819991619600,8.50261962890625,9.745966911315918,-0.6783652305603027,-0.02273181453347206
1683135820009462300,8.520462158203125,9.70349407196045,-0.9954141974449158,-0.3367897868156433
1683135820027299000,8.538299072265625,9.777671813964844,-1.1234302520751953,0.22612173855304718
1683135820045137400,8.556137451171875,9.571290969848633,-0.6795616149902344,-0.47617170214653015
1683135820062972000,8.573971923828125,9.810572624206543,-1.2143574953079224,0.29312077164649963
1683135820080814800,8.59181494140625,9.870991706848145,-0.6358926296234131,-0.4175475537776947
1683135820098654700,8.60965478515625,9.596415519714355,-1.3680963516235352,0.17766708135604858
1683135820116490200,8.627490234375,9.760921478271484,-0.5778666734695435,-0.19381862878799438
1683135820134330400,8.645330322265625,9.635896682739258,-1.1581261157989502,-0.20338992774486542
1683135820152170500,8.66317041015625,9.801599502563477,-0.9846464991569519,0.1543370634317398
1683135820170006800,8.6810068359375,9.595218658447266,-0.7513462901115417,-0.47557350993156433
1683135820187851500,8.6988515625,9.910472869873047,-1.2191431522369385,0.2793620526790619
1683135820205688000,8.71668798828125,9.699904441833496,-0.6939185857772827,-0.5419743061065674
1683135820223526100,8.734526123046875,9.624530792236328,-1.2867404222488403,0.28235307335853577
1683135820241363000,8.752363037109374,9.884750366210938,-0.5587241053581238,-0.3080759048461914
1683135820259206400,8.770206298828125,9.64965534210205,-1.3208380937576294,-0.06041877344250679
1683135820277043200,8.788043212890624,9.78843879699707,-0.8602197170257568,0.04486542567610741
1683135820294881500,8.805881591796876,9.589835166931152,-0.8757730722427368,-0.37088751792907715
1683135820312717600,8.823717529296875,9.94397258758545,-1.0995019674301147,0.2267199456691742
1683135820330558700,8.841558837890625,9.623334884643555,-0.7561319470405579,-0.494716078042984
1683135820348398600,8.859398681640625,9.724431037902832,-1.2382856607437134,0.349352091550827
1683135820366237200,8.8772373046875,9.833304405212402,-0.544965386390686,-0.43190449476242065
1683135820384071400,8.895071533203126,9.596415519714355,-1.4165509939193726,0.06340979784727097
1683135820401914000,8.9129140625,9.850652694702148,-0.6879364848136902,-0.10767702013254166
1683135820419750700,8.930750732421876,9.588638305664062,-1.038485050201416,-0.19920247793197632
1683135820437595000,8.948594970703125,9.915857315063477,-1.0085747241973877,0.19800607860088348
1683135820455427300,8.96642724609375,9.589835166931152,-0.8087740540504456,-0.4426721930503845
1683135820473258000,8.984258056640625,9.843474388122559,-1.200000524520874,0.32662028074264526
1683135820491109400,9.002109375,9.78544807434082,-0.631106972694397,-0.4701896607875824
1683135820508946700,9.01994677734375,9.610174179077148,-1.4350954294204712,0.22073788940906525
1683135820526784800,9.03778466796875,9.846465110778809,-0.5635097622871399,-0.17946170270442963
1683135820544628700,9.055628662109376,9.611968994140625,-1.2203395366668701,-0.10348957777023315
1683135820562464500,9.073464599609375,9.911669731140137,-0.8554341197013855,0.031106693670153618
1683135820580303000,9.09130322265625,9.608379364013672,-0.914058268070221,-0.3038884699344635
1683135820598142500,9.109142578125,9.934401512145996,-1.0941181182861328,0.3026920557022095
1683135820615980800,9.126980712890624,9.728020668029785,-0.6981059908866882,-0.46061834692955017
1683135820633820400,9.1448203125,9.681958198547363,-1.3920245170593262,0.268594354391098
1683135820651658500,9.162658447265626,9.842277526855469,-0.534795880317688,-0.29850462079048157
1683135820669497900,9.180497802734376,9.611370086669922,-1.3154542446136475,0.03469592705368996
1683135820687336200,9.198336181640625,9.945767402648926,-0.8123632669448853,-0.05922235921025276
1683135820705171000,9.2161708984375,9.57906723022461,-1.0187442302703857,-0.13280165195465088
1683135820723014000,9.234013916015625,9.79262638092041,-0.8745766878128052,0.1495514214038849
1683135820740853800,9.251853759765625,9.689735412597656,-0.8087740540504456,-0.4325026869773865
1683135820758691800,9.26969189453125,9.7669038772583,-1.3483555316925049,0.3451646566390991
1683135820776526600,9.287526611328126,9.78544807434082,-0.5497509837150574,-0.40378883481025696
1683135820794367500,9.305367431640626,9.620343208312988,-1.3441680669784546,0.17766708135604858
1683135820812208600,9.323208740234374,9.88415241241455,-0.6783652305603027,-0.1740778535604477
1683135820830044700,9.341044677734375,9.554540634155273,-1.0857433080673218,-0.004187439568340778
1683135820847889400,9.358889404296875,9.859625816345215,-0.7740781307220459,0.020937198773026466
1683135820865724700,9.376724609375,9.713065147399902,-0.9613165259361267,-0.2793620526790619
1683135820883564300,9.394564208984375,9.715457916259766,-1.1234302520751953,0.27337998151779175
1683135820901399600,9.412399658203125,9.675976753234863,-0.6358926296234131,-0.4660021960735321
1683135820919245300,9.430245361328126,9.67238712310791,-1.3298112154006958,0.2638086974620819
1683135820937080300,9.448080322265625,9.875777244567871,-0.631106972694397,-0.3601198196411133
1683135820954920000,9.465919921875,9.54915714263916,-1.1910275220870972,0.15314064919948578
1683135820972741600,9.48374169921875,9.860223770141602,-0.7166503667831421,-0.12681959569454193
1683135820990597600,9.50159765625,9.68375301361084,-1.1096714735031128,-0.1698904037475586
1683135821008433000,9.519432861328125,9.735198974609375,-0.898504912853241,0.1824527233839035
1683135821026267600,9.537267578125,9.66640567779541,-0.7507480978965759,-0.4133601188659668
1683135821044113400,9.555113525390626,9.80518913269043,-1.3148560523986816,0.2835494875907898
1683135821061955600,9.57295556640625,9.719047546386719,-0.6406782865524292,-0.4420739710330963
1683135821079791600,9.59079150390625,9.572486877441406,-1.210170030593872,0.2392822653055191
1683135821097631200,9.60863134765625,9.879964828491211,-0.625723123550415,-0.3122633695602417
1683135821115469300,9.62646923828125,9.616155624389648,-1.205384373664856,0.010767702013254166
1683135821133297000,9.644296875,9.707681655883789,-0.7214360237121582,0.03469592705368996
1683135821151132700,9.662132568359375,9.708279609680176,-0.9379864931106567,-0.39840495586395264
1683135821168989700,9.67998974609375,9.796216011047363,-1.1904292106628418,0.24047867953777313
1683135821186824400,9.697824462890624,9.57607650756836,-0.6460621356964111,-0.48095735907554626
1683135821204649500,9.7156494140625,9.772287368774414,-1.2047861814498901,0.27337998151779175
1683135821222505000,9.7335048828125,9.832706451416016,-0.5736792087554932,-0.39840495586395264
1683135821240342000,9.751342041015626,9.534799575805664,-1.3106685876846313,0.08673982322216034
1683135821258180400,9.769180419921875,9.751350402832031,-0.6113662123680115,-0.15134602785110474
1683135821276019700,9.787019775390625,9.669994354248047,-1.0815558433532715,-0.2560320198535919
1683135821293858000,9.804858154296875,9.78245735168457,-1.042074203491211,0.19740787148475647
1683135821311697200,9.822697265625,9.55214786529541,-0.6939185857772827,-0.4713860750198364
1683135821329535500,9.840535400390625,9.881759643554688,-1.1808580160140991,0.2883351147174835
1683135821347375000,9.858375,9.751948356628418,-0.6741777658462524,-0.5132604837417603
1683135821365213700,9.876213623046874,9.629316329956055,-1.3154542446136475,0.27756741642951965
1683135821383053000,9.894052978515624,9.846465110778809,-0.5635097622871399,-0.24586252868175507
1683135821400891400,9.911891357421876,9.64965534210205,-1.2251251935958862,-0.1178465187549591
1683135821418728000,9.92972802734375,9.783055305480957,-0.8793623447418213,0.07776673883199692
1683135821436572200,9.947572265625,9.565906524658203,-0.8374879360198975,-0.41874396800994873
1683135821454404600,9.965404541015625,9.92961597442627,-1.1808580160140991,0.2267199456691742
1683135821472233500,9.9832333984375,9.65683364868164,-0.7561319470405579,-0.5180460810661316
1683135821490084600,10.001084716796875,9.691530227661133,-1.262213945388794,0.30209386348724365
1683135821507927800,10.018927734375,9.842277526855469,-0.5539384484291077,-0.3888336718082428
1683135821525765400,10.036765380859375,9.610772132873535,-1.3872389793395996,0.05383851006627083
1683135821543601000,10.054600830078124,9.831509590148926,-0.7405785918235779,-0.07417750358581543
1683135821561441800,10.07244189453125,9.602995872497559,-1.0145567655563354,-0.23748764395713806
1683135821579279600,10.090279541015626,9.915857315063477,-1.046859860420227,0.19322042167186737
1683135821597119500,10.108119384765626,9.580862045288086,-0.7992027401924133,-0.48035913705825806
1683135821614944300,10.1259443359375,9.829116821289062,-1.2095718383789062,0.32662028074264526
1683135821632788700,10.143788818359376,9.7998046875,-0.6119644045829773,-0.4462614357471466
1683135821650635500,10.161635498046875,9.605986595153809,-1.425524115562439,0.16331014037132263
1683135821668473900,10.179473876953125,9.846465110778809,-0.6017948985099792,-0.17946170270442963
1683135821686314500,10.197314453125,9.626325607299805,-1.1772687435150146,-0.13220344483852386
1683135821704152600,10.215152587890625,9.916455268859863,-0.9080761671066284,0.035892341285943985
1683135821721991000,10.232990966796875,9.622735977172852,-0.914058268070221,-0.32303106784820557
1683135821739832800,10.250832763671875,9.89133071899414,-1.0893324613571167,0.3361915946006775
1683135821757669000,10.268669189453124,9.719047546386719,-0.6598208546638489,-0.4989035129547119
1683135821775494400,10.286494384765625,9.681360244750977,-1.4207384586334229,0.27337998151779175
1683135821793333200,10.304333251953125,9.861420631408691,-0.5587241053581238,-0.2841476798057556
1683135821811191000,10.32219091796875,9.611370086669922,-1.3154542446136475,0.020338991656899452
1683135821829024300,10.340024169921875,9.931410789489746,-0.8171489238739014,-0.049651071429252625
1683135821846864100,10.357864013671875,9.593423843383789,-0.9708877801895142,-0.1704886108636856
1683135821864702200,10.3757021484375,9.801599502563477,-0.898504912853241,0.18305093050003052
1683135821882541800,10.393541748046875,9.708877563476562,-0.7698906660079956,-0.42293140292167664
1683135821900380400,10.41138037109375,9.78126049041748,-1.3483555316925049,0.3403790295124054
1683135821918218800,10.42921875,9.790233612060547,-0.5497509837150574,-0.39900317788124084
1683135821936059000,10.447058837890625,9.577272415161133,-1.334596872329712,0.16331014037132263
1683135821953897700,10.464897705078124,9.893723487854004,-0.7022934556007385,-0.15972091257572174
1683135821971735800,10.48273583984375,9.5264253616333,-1.0618150234222412,-0.028115665540099144
1683135821989575400,10.500575439453126,9.830911636352539,-0.7884350419044495,0.04486542567610741
1683135822007413500,10.51841357421875,9.713065147399902,-0.9565308690071106,-0.32721850275993347
1683135822025253000,10.536253173828126,9.734601020812988,-1.171286702156067,0.2925225794315338
1683135822043076900,10.554076904296876,9.671191215515137,-0.6071787476539612,-0.48035913705825806
1683135822060920300,10.57192041015625,9.701101303100586,-1.3441680669784546,0.25423741340637207
1683135822078758700,10.589758544921875,9.870393753051758,-0.625723123550415,-0.32662028074264526
1683135822096597800,10.60759765625,9.539586067199707,-1.1623135805130005,0.1579262912273407
1683135822114435600,10.625435546875,9.903294563293457,-0.7310073375701904,-0.12622138857841492
1683135822132275200,10.643275146484376,9.698110580444336,-1.1096714735031128,-0.16031911969184875
1683135822150116900,10.661116943359374,9.730413436889648,-0.9511470198631287,0.2063809484243393
1683135822167957800,10.678957763671875,9.65683364868164,-0.7363911867141724,-0.4468596279621124
1683135822185792000,10.6967919921875,9.791430473327637,-1.333998680114746,0.27397820353507996
1683135822203633000,10.7146328125,9.732806205749512,-0.631106972694397,-0.4468596279621124
1683135822221474000,10.73247412109375,9.54915714263916,-1.1958130598068237,0.22492532432079315
1683135822239306500,10.750306396484374,9.865608215332031,-0.5970092415809631,-0.2793620526790619
1683135822257147400,10.7681474609375,9.625727653503418,-1.205384373664856,-0.013160524889826775
1683135822274990300,10.785990234375,9.698110580444336,-0.745364248752594,0.03469592705368996
1683135822292828200,10.803828125,9.69930648803711,-0.8997012972831726,-0.40378883481025696
1683135822310678000,10.821677978515625,9.839286804199219,-1.2095718383789062,0.26440688967704773
1683135822328503300,10.83950341796875,9.600004196166992,-0.6604190468788147,-0.4666004180908203
1683135822346351400,10.857351318359376,9.739386558532715,-1.200000524520874,0.2877369225025177
1683135822364191200,10.875191162109376,9.880562782287598,-0.6167500615119934,-0.3888336718082428
1683135822382030800,10.89303076171875,9.582656860351562,-1.3250255584716797,0.10588239878416061
1683135822399869700,10.91086962890625,9.741181373596191,-0.625723123550415,-0.0891326442360878
1683135822417709000,10.928708984375,9.646066665649414,-1.0336993932724,-0.2799602448940277
1683135822435542500,10.94654248046875,9.772886276245117,-1.0803594589233398,0.18783657252788544
1683135822453386500,10.964386474609375,9.55214786529541,-0.6747759580612183,-0.47617170214653015
1683135822471221500,10.982221435546874,9.853045463562012,-1.2143574953079224,0.2883351147174835
1683135822489062700,11.000062744140624,9.804591178894043,-0.6598208546638489,-0.4983053207397461
1683135822506903600,11.017903564453125,9.624530792236328,-1.3441680669784546,0.23988047242164612
1683135822524739300,11.0357392578125,9.827920913696289,-0.592223584651947,-0.23629122972488403
1683135822542583300,11.053583251953125,9.65503978729248,-1.2005987167358398,-0.13160525262355804
1683135822560418600,11.07141845703125,9.797411918640137,-0.9224331378936768,0.10648060590028763
1683135822578258400,11.089258544921876,9.565906524658203,-0.7992027401924133,-0.4378865361213684
1683135822596098600,11.1070986328125,9.939187049865723,-1.2239288091659546,0.2602194547653198
1683135822613936000,11.12493603515625,9.69511890411377,-0.7369893789291382,-0.5419743061065674
1683135822631775700,11.142775634765625,9.691530227661133,-1.2574282884597778,0.29730820655822754
1683135822649614000,11.160614013671875,9.832706451416016,-0.534795880317688,-0.3840480446815491
1683135822667453200,11.178453125,9.620942115783691,-1.339382529258728,-0.0029910283628851175
1683135822685291300,11.196291259765625,9.836296081542969,-0.7836494445800781,-0.05503492057323456
1683135822703131000,11.214130859375,9.607781410217285,-0.9954141974449158,-0.27038896083831787
1683135822720971000,11.231970947265625,9.915857315063477,-1.0558329820632935,0.24107688665390015
1683135822738809300,11.249809326171874,9.590433120727539,-0.760917603969574,-0.5234299302101135
1683135822756642800,11.267642822265625,9.791430473327637,-1.2239288091659546,0.3355933725833893
1683135822774474800,11.285474853515625,9.818947792053223,-0.6215356588363647,-0.4366901218891144
1683135822792324900,11.303324951171875,9.610772132873535,-1.454237937927246,0.10648060590028763
1683135822810163500,11.32116357421875,9.855438232421875,-0.6400800347328186,-0.12681959569454193
1683135822828003800,11.33900390625,9.617352485656738,-1.1102696657180786,-0.18005990982055664
1683135822845830100,11.356830078125,9.949356079101562,-0.9026923179626465,0.0933200865983963
1683135822863680800,11.3746806640625,9.651450157165527,-0.8949156403541565,-0.355932354927063
1683135822881519000,11.39251904296875,9.886545181274414,-1.1467602252960205,0.32183465361595154
1683135822899359700,11.41035986328125,9.747760772705078,-0.6502495408058167,-0.5276173949241638
1683135822917197800,11.42819775390625,9.681360244750977,-1.454237937927246,0.25423741340637207
1683135822935034600,11.44603466796875,9.884750366210938,-0.5539384484291077,-0.2315055876970291
1683135822952877000,11.463876953125,9.588040351867676,-1.2580264806747437,-0.0323031060397625
1683135822970713900,11.4817138671875,9.907482147216797,-0.836291491985321,0.0023928226437419653
1683135822988553500,11.499553466796876,9.579665184020996,-0.9613165259361267,-0.23748764395713806
1683135823006392000,11.51739208984375,9.8207426071167,-0.9511470198631287,0.22612173855304718
1683135823024219400,11.535219482421875,9.723235130310059,-0.7363911867141724,-0.45583271980285645
1683135823042069500,11.553069580078125,9.757332801818848,-1.4105689525604248,0.33080771565437317
1683135823059906600,11.570906494140624,9.790233612060547,-0.5497509837150574,-0.39900317788124084
1683135823077750500,11.58875048828125,9.56351375579834,-1.3202399015426636,0.12023933976888657
1683135823095587000,11.606587158203125,9.888937950134277,-0.7549355626106262,-0.13100704550743103
1683135823113409000,11.624408935546874,9.56471061706543,-1.0426725149154663,-0.05623133108019829
1683135823131261200,11.64226123046875,9.830911636352539,-0.8171489238739014,0.0975075215101242
1683135823149104600,11.660104736328124,9.665806770324707,-0.8901300430297852,-0.3846462368965149
1683135823166939600,11.677939697265625,9.748359680175781,-1.2478569746017456,0.3068794906139374
1683135823184783600,11.69578369140625,9.690333366394043,-0.5880361795425415,-0.4660021960735321
1683135823202620200,11.7136201171875,9.69631576538086,-1.339382529258728,0.23988047242164612
1683135823220458200,11.731458251953125,9.908679008483887,-0.6496513485908508,-0.3026920557022095
1683135823238297600,11.749297607421875,9.516255378723145,-1.1288141012191772,0.09092725813388824
1683135823256137000,11.767136962890625,9.869794845581055,-0.7501499056816101,-0.0933200865983963
1683135823273976000,11.78497607421875,9.698110580444336,-1.0761719942092896,-0.2225325107574463
1683135823291814700,11.802814697265624,9.744172096252441,-1.0133603811264038,0.22552353143692017
1683135823309654300,11.820654296875,9.642477035522461,-0.6885347366333008,-0.45643091201782227
1683135823327492000,11.8384921875,9.767501831054688,-1.3387842178344727,0.29790642857551575
1683135823345331500,11.85633154296875,9.751948356628418,-0.6119644045829773,-0.4420739710330963
1683135823363169800,11.874169677734375,9.56351375579834,-1.186241865158081,0.19142581522464752
1683135823380995800,11.891995849609375,9.903892517089844,-0.625723123550415,-0.21714866161346436
1683135823398848000,11.909847900390625,9.640084266662598,-1.181456208229065,-0.06999006122350693
1683135823416685000,11.92768505859375,9.68375301361084,-0.7836494445800781,0.0771685317158699
1683135823434515000,11.945514892578124,9.665806770324707,-0.8614161610603333,-0.42293140292167664
1683135823452366800,11.963366943359375,9.820143699645996,-1.26699960231781,0.26440688967704773
1683135823470203100,11.981203125,9.619147300720215,-0.5928218364715576,-0.44745782017707825
1683135823488043000,11.99904296875,9.667601585388184,-1.2335001230239868,0.2871387302875519
1683135823505880800,12.016880859375,9.7998046875,-0.6023930907249451,-0.3936193287372589
1683135823523712000,12.0347119140625,9.53061294555664,-1.2675977945327759,0.048454657196998596
1683135823541563600,12.052563720703125,9.774680137634277,-0.6975077986717224,-0.06041877344250679
1683135823559398400,12.0703984375,9.693922996520996,-1.0001999139785767,-0.3128615617752075
1683135823577237000,12.088237060546875,9.787242889404297,-1.1330015659332275,0.19262222945690155
1683135823595076400,12.106076416015625,9.556933403015137,-0.6364908218383789,-0.48574298620224
1683135823612901400,12.1239013671875,9.820143699645996,-1.1904292106628418,0.29790642857551575
1683135823630753800,12.14175390625,9.847063064575195,-0.6358926296234131,-0.46480581164360046
1683135823648593000,12.159593017578125,9.620343208312988,-1.3728820085525513,0.18723836541175842
1683135823666430200,12.17743017578125,9.799206733703613,-0.6017948985099792,-0.20338992774486542
1683135823684273200,12.195273193359375,9.65503978729248,-1.1240284442901611,-0.18424734473228455
1683135823702109700,12.213109619140624,9.835099220275879,-0.9846464991569519,0.1501496136188507
1683135823719948300,12.2309482421875,9.589835166931152,-0.7848458290100098,-0.45164528489112854
1683135823737769200,12.248769287109376,9.920044898986816,-1.2335001230239868,0.2793620526790619
1683135823755626200,12.266626220703126,9.738189697265625,-0.7369893789291382,-0.5419743061065674
1683135823773461000,12.2844609375,9.638887405395508,-1.2717852592468262,0.27756741642951965
1683135823791304200,12.30230419921875,9.884750366210938,-0.5682953596115112,-0.3170489966869354
1683135823809143300,12.320143310546875,9.644869804382324,-1.3010972738265991,-0.05563312768936157
1683135823826981600,12.337981689453125,9.840482711791992,-0.8841479420661926,0.030508488416671753
1683135823844816400,12.35581640625,9.5802640914917,-0.9044869542121887,-0.3517449200153351
1683135823862655000,12.373655029296875,9.94397258758545,-1.098903775215149,0.24107688665390015
1683135823880499000,12.3914990234375,9.633503913879395,-0.7034898400306702,-0.50907301902771
1683135823898336500,12.40933642578125,9.738788604736328,-1.262213945388794,0.3643072545528412
1683135823916177400,12.427177490234374,9.828518867492676,-0.5401797294616699,-0.42711883783340454
1683135823934015200,12.44501513671875,9.582656860351562,-1.3920245170593262,0.06819544732570648
1683135823951853000,12.46285302734375,9.88415241241455,-0.711864709854126,-0.0933200865983963
1683135823969694000,12.48069384765625,9.602995872497559,-1.0091729164123535,-0.21355941891670227
1683135823987533300,12.498533203125,9.93978500366211,-1.012762188911438,0.19322042167186737
1683135824005371100,12.51637109375,9.613762855529785,-0.8327022790908813,-0.4420739710330963
1683135824023202800,12.534202880859375,9.81535816192627,-1.1808580160140991,0.3355933725833893
1683135824041049000,12.552049072265625,9.780662536621094,-0.6358926296234131,-0.4941178858280182
1683135824058888200,12.56988818359375,9.653244972229004,-1.44945228099823,0.24466611444950104
1683135824076726800,12.587726806640624,9.856036186218262,-0.5826523303985596,-0.1986042857170105
1683135824094554600,12.6055546875,9.602396965026855,-1.210768222808838,-0.0891326442360878
1683135824112404000,12.623404052734376,9.916455268859863,-0.8745766878128052,0.035892341285943985
1683135824130243800,12.641243896484376,9.617950439453125,-0.9236295223236084,-0.3086741268634796
1683135824148082200,12.659082275390626,9.939187049865723,-1.0893324613571167,0.3122633695602417
1683135824165917000,12.6769169921875,9.732806205749512,-0.6406782865524292,-0.46061834692955017
1683135824183760000,12.694759765625,9.710074424743652,-1.4105689525604248,0.29730820655822754
1683135824201598000,12.712597900390625,9.827920913696289,-0.5539384484291077,-0.3128615617752075
1683135824219438300,12.730438232421875,9.611370086669922,-1.3058829307556152,0.04426721855998039
1683135824237278200,12.7482783203125,9.964311599731445,-0.8219345808029175,-0.05922235921025276
1683135824255116000,12.766115966796875,9.574281692504883,-0.9708877801895142,-0.1423729509115219
1683135824272937200,12.783937255859374,9.797411918640137,-0.898504912853241,0.1782652884721756
1683135824290792400,12.80179248046875,9.689735412597656,-0.7794619798660278,-0.45164528489112854
1683135824308634400,12.81963427734375,9.776474952697754,-1.3483555316925049,0.3403790295124054
1683135824326456800,12.837456787109375,9.7998046875,-0.5688936114311218,-0.4127618968486786
1683135824344309000,12.85530908203125,9.605986595153809,-1.3298112154006958,0.16331014037132263
1683135824362151700,12.873151611328124,9.91286563873291,-0.6879364848136902,-0.15493527054786682
1683135824379988700,12.89098876953125,9.531210899353027,-1.0426725149154663,-0.023330021649599075
1683135824397815000,12.90881494140625,9.840482711791992,-0.7740781307220459,0.04486542567610741
1683135824415661800,12.926661865234376,9.722636222839355,-0.966102123260498,-0.31764721870422363
1683135824433502200,12.944502197265624,9.744172096252441,-1.1425727605819702,0.2925225794315338
1683135824451346700,12.9623466796875,9.661619186401367,-0.6167500615119934,-0.4707878530025482
1683135824469183200,12.980183349609375,9.681958198547363,-1.3387842178344727,0.2829512655735016
1683135824487022000,12.99802197265625,9.866206169128418,-0.6209374666213989,-0.3601198196411133
1683135824504860400,13.0158603515625,9.558728218078613,-1.1670992374420166,0.1579262912273407
1683135824522696200,13.0336962890625,9.888937950134277,-0.7070791125297546,-0.13100704550743103
1683135824540537300,13.051537353515625,9.712467193603516,-1.1096714735031128,-0.1698904037475586
1683135824558378000,13.0693779296875,9.744770050048828,-0.9463613629341125,0.19202402234077454
1683135824576217300,13.08721728515625,9.675976753234863,-0.7268198728561401,-0.42293140292167664
1683135824594056000,13.105055908203125,9.81954574584961,-1.3100703954696655,0.2883351147174835
1683135824611892700,13.122892822265625,9.742377281188965,-0.6406782865524292,-0.4372883439064026
1683135824629739500,13.140739501953124,9.544371604919434,-1.181456208229065,0.22971096634864807
1683135824647568400,13.158568359375,9.875179290771484,-0.6113662123680115,-0.3074777126312256
1683135824665411300,13.176411376953125,9.644869804382324,-1.2245270013809204,0.005982056725770235
1683135824683250000,13.19425,9.712467193603516,-0.7310073375701904,0.04905286431312561
1683135824701088800,13.2120888671875,9.68494987487793,-0.8805587291717529,-0.40378883481025696
1683135824718927600,13.229927734375,9.824930191040039,-1.2047861814498901,0.259621262550354
1683135824736763000,13.247762939453125,9.580862045288086,-0.6317051649093628,-0.48574298620224
1683135824754595000,13.265594970703125,9.743574142456055,-1.2191431522369385,0.2925225794315338
1683135824772445200,13.283445068359375,9.861420631408691,-0.6119644045829773,-0.3888336718082428
1683135824790283500,13.301283447265625,9.56351375579834,-1.3106685876846313,0.08195417374372482
1683135824808123000,13.319122802734375,9.779465675354004,-0.6448656916618347,-0.13220344483852386
1683135824825961200,13.336961181640625,9.655637741088867,-1.0187442302703857,-0.2560320198535919
1683135824843800600,13.354800537109375,9.806385040283203,-1.089930772781372,0.19262222945690155
1683135824861637400,13.372637451171874,9.547362327575684,-0.6652047038078308,-0.4905286431312561
1683135824879467500,13.390467529296876,9.872187614440918,-1.2047861814498901,0.3026920557022095
1683135824897316900,13.40831689453125,9.780662536621094,-0.6550351977348328,-0.5132604837417603
1683135824915156200,13.42615625,9.624530792236328,-1.3441680669784546,0.2590230405330658
1683135824932989700,13.44398974609375,9.851250648498535,-0.5874379873275757,-0.23629122972488403
1683135824950834200,13.461834228515626,9.65503978729248,-1.186241865158081,-0.12263216078281403
1683135824968673800,13.479673828125,9.787840843200684,-0.9176474809646606,0.09212367236614227
1683135824986510000,13.497510009765625,9.547362327575684,-0.7896314859390259,-0.4426721930503845
1683135825004335400,13.51533544921875,9.948758125305176,-1.2143574953079224,0.2602194547653198
1683135825022193000,13.53319287109375,9.690333366394043,-0.7561319470405579,-0.5084748268127441
1683135825040028200,13.551028076171875,9.681958198547363,-1.290927767753601,0.30209386348724365
1683135825057868000,13.568867919921875,9.837491989135742,-0.5491527915000916,-0.3696911036968231
1683135825075706000,13.5867060546875,9.616155624389648,-1.3298112154006958,0.020338991656899452
1683135825093546500,13.60454638671875,9.855438232421875,-0.7836494445800781,-0.040677983313798904
1683135825111368200,13.6223681640625,9.622735977172852,-0.9565308690071106,-0.2799602448940277
1683135825129212000,13.6402119140625,9.94397258758545,-1.079761266708374,0.23629122972488403
1683135825147053800,13.6580537109375,9.580862045288086,-0.7848458290100098,-0.5234299302101135
1683135825164901000,13.675901123046875,9.796216011047363,-1.2143574953079224,0.32123643159866333
1683135825182736100,13.693736083984374,9.828518867492676,-0.597607433795929,-0.43190449476242065
1683135825200579000,13.7115791015625,9.601201057434082,-1.4063814878463745,0.12083754688501358
1683135825218419000,13.7294189453125,9.855438232421875,-0.6687939167022705,-0.13639089465141296
1683135825236255500,13.74725537109375,9.616754531860352,-1.1048858165740967,-0.16091732680797577
1683135825254090500,13.765090576171875,9.930811882019043,-0.9032905697822571,0.06939185410737991
1683135825271932000,13.782931884765626,9.641879081726074,-0.8901300430297852,-0.3607180118560791
1683135825289774300,13.8007744140625,9.862616539001465,-1.1324033737182617,0.35054850578308105
1683135825307602200,13.818602294921876,9.738189697265625,-0.6502495408058167,-0.537188708782196
1683135825325453300,13.836453369140624,9.7005033493042,-1.44945228099823,0.259621262550354
1683135825343290400,13.854290283203126,9.89432144165039,-0.5874379873275757,-0.24107688665390015
1683135825361128400,13.87212841796875,9.592227935791016,-1.2436695098876953,-0.02273181453347206
1683135825378967800,13.8899677734375,9.945169448852539,-0.8410771489143372,-0.01196411345154047
1683135825396806700,13.907806640625,9.594022750854492,-0.9469595551490784,-0.22791635990142822
1683135825414642700,13.925642578125,9.801599502563477,-0.9218349456787109,0.2350948303937912
1683135825432484600,13.943484619140625,9.747162818908691,-0.7172485589981079,-0.4366901218891144
1683135825450323000,13.961322998046874,9.786046028137207,-1.4057832956314087,0.3595215976238251
1683135825468162800,13.979162841796875,9.80937671661377,-0.5587241053581238,-0.3846462368965149
1683135825486001200,13.997001220703124,9.553942680358887,-1.3154542446136475,0.12023933976888657
1683135825503835100,14.014835205078125,9.908080101013184,-0.7262216806411743,-0.15972091257572174
1683135825521679000,14.03267919921875,9.54078197479248,-1.033101201057434,-0.061016976833343506
1683135825539503900,14.05050390625,9.821340560913086,-0.8219345808029175,0.10169496387243271
1683135825557348600,14.0683486328125,9.713065147399902,-0.8943174481391907,-0.3846462368965149
1683135825575185700,14.086185546875,9.757930755615234,-1.2335001230239868,0.2829512655735016
1683135825593023700,14.104023681640625,9.699904441833496,-0.597607433795929,-0.4468596279621124
1683135825610862600,14.121862548828124,9.686744689941406,-1.3202399015426636,0.2350948303937912
1683135825628705800,14.139705810546875,9.899106979370117,-0.6592226624488831,-0.2835494875907898
1683135825646540800,14.157540771484374,9.535398483276367,-1.1383854150772095,0.1052841991186142
1683135825664379100,14.175379150390626,9.88415241241455,-0.7262216806411743,-0.08853443711996078
1683135825682218200,14.19321826171875,9.717252731323242,-1.0666006803512573,-0.20817556977272034
1683135825700057600,14.2110576171875,9.749555587768555,-0.9798609018325806,0.2111666053533554
1683135825717896400,14.228896484375,9.628120422363281,-0.6837490797042847,-0.4707878530025482
1683135825735741200,14.2467412109375,9.767501831054688,-1.3483555316925049,0.2835494875907898
1683135825753573600,14.26457373046875,9.780662536621094,-0.6119644045829773,-0.45583271980285645
1683135825771412700,14.282412841796875,9.544371604919434,-1.1479566097259521,0.20578274130821228
1683135825789250600,14.30025048828125,9.865608215332031,-0.6161518096923828,-0.24107688665390015
1683135825807093000,14.318093017578125,9.630513191223145,-1.2197413444519043,-0.03170489892363548
1683135825824931600,14.335931640625,9.678967475891113,-0.7932206988334656,0.0771685317158699
1683135825842776000,14.353776123046876,9.68494987487793,-0.8614161610603333,-0.4181457459926605
1683135825860618000,14.371617919921874,9.848259925842285,-1.2574282884597778,0.26440688967704773
1683135825878457900,14.389457763671874,9.633503913879395,-0.6167500615119934,-0.45643091201782227
1683135825896291000,14.407291015625,9.686744689941406,-1.2047861814498901,0.2925225794315338
1683135825914135600,14.425135498046876,9.847063064575195,-0.592223584651947,-0.37926238775253296
1683135825931974100,14.44297412109375,9.57787036895752,-1.296311616897583,0.058624155819416046
1683135825949812500,14.4608125,9.750752449035645,-0.6496513485908508,-0.07477571070194244
1683135825967652900,14.47865283203125,9.66520881652832,-0.9996016621589661,-0.29431718587875366
1683135825985491200,14.4964912109375,9.805787086486816,-1.1425727605819702,0.2021935135126114
1683135826003329300,14.514329345703125,9.53360366821289,-0.6508477330207825,-0.48574298620224
1683135826021157000,14.5321572265625,9.833903312683105,-1.2095718383789062,0.3074777126312256
1683135826039007700,14.5500078125,9.828518867492676,-0.6406782865524292,-0.48394837975502014
1683135826056847000,14.56784716796875,9.648459434509277,-1.3728820085525513,0.21595224738121033
1683135826074685400,14.585685546875,9.827322959899902,-0.592223584651947,-0.20817556977272034
1683135826092522000,14.60352197265625,9.65503978729248,-1.1341979503631592,-0.18424734473228455
1683135826110366500,14.621366455078125,9.839884757995605,-0.9798609018325806,0.14057832956314087
1683135826128195800,14.63919580078125,9.57607650756836,-0.7561319470405579,-0.45224347710609436
1683135826146035500,14.657035400390624,9.952945709228516,-1.2191431522369385,0.2793620526790619
1683135826163877400,14.67487744140625,9.719047546386719,-0.7465606927871704,-0.5659025311470032
1683135826181713000,14.692712890625,9.67238712310791,-1.262213945388794,0.2829512655735016
1683135826199558400,14.710558349609375,9.875777244567871,-0.5491527915000916,-0.3314059376716614
1683135826217397200,14.728397216796875,9.625727653503418,-1.3058829307556152,-0.01734796352684498
1683135826235235800,14.74623583984375,9.845269203186035,-0.8219345808029175,0.001794616924598813
1683135826253067000,14.76406689453125,9.608379364013672,-0.9332008361816406,-0.31345975399017334
1683135826270912500,14.78191259765625,9.94397258758545,-1.079761266708374,0.2602194547653198
1683135826288750600,14.79975048828125,9.632905960083008,-0.7704889178276062,-0.5419743061065674
1683135826306594600,14.817594482421875,9.753145217895508,-1.262213945388794,0.3451646566390991
1683135826324430300,14.835430419921876,9.795019149780273,-0.5880361795425415,-0.42711883783340454
1683135826342269400,14.85326953125,9.610772132873535,-1.425524115562439,0.0729810893535614
1683135826360108300,14.8711083984375,9.879366874694824,-0.7022934556007385,-0.11246266216039658
1683135826377947400,14.888947509765625,9.598209381103516,-1.052243709564209,-0.18005990982055664
1683135826395785700,14.90678564453125,9.93978500366211,-0.9361918568611145,0.1501496136188507
1683135826413625600,14.92462548828125,9.656235694885254,-0.841675341129303,-0.3798605799674988
1683135826431464000,14.9424638671875,9.876974105834961,-1.1754741668701172,0.35533416271209717
1683135826449303000,14.960302978515625,9.752547264099121,-0.6358926296234131,-0.5228317379951477
1683135826467141600,14.9781416015625,9.69093132019043,-1.44945228099823,0.22612173855304718
1683135826484981000,14.99598095703125,9.903892517089844,-0.6113662123680115,-0.21236300468444824
1683135826502815000,15.01381494140625,9.588040351867676,-1.181456208229065,-0.07058826833963394
1683135826520658400,15.031658447265626,9.92124080657959,-0.8506484627723694,0.02153540402650833
1683135826538497300,15.049497314453125,9.584450721740723,-0.9475577473640442,-0.28953152894973755
1683135826556320800,15.06732080078125,9.815957069396973,-0.9888339638710022,0.2638086974620819
1683135826574175200,15.08517529296875,9.751948356628418,-0.722034215927124,-0.45104706287384033
1683135826592013300,15.103013427734375,9.78126049041748,-1.4488540887832642,0.3314059376716614
1683135826609854000,15.12085400390625,9.814162254333496,-0.5539384484291077,-0.37028929591178894
1683135826627692000,15.138692138671875,9.57787036895752,-1.296311616897583,0.09631111472845078
1683135826645530400,15.1565302734375,9.950552940368652,-0.778863787651062,-0.13100704550743103
1683135826663357400,15.174357421875,9.57906723022461,-1.0235298871994019,-0.06580262631177902
1683135826681198600,15.192198486328126,9.840482711791992,-0.8267202377319336,0.11126625537872314
1683135826699048000,15.2100478515625,9.651450157165527,-0.8566305041313171,-0.4325026869773865
1683135826716886800,15.22788671875,9.814760208129883,-1.3196417093276978,0.3170489966869354
1683135826734722800,15.245722900390625,9.723833084106445,-0.5784648656845093,-0.45643091201782227
1683135826752567000,15.263567138671876,9.686744689941406,-1.334596872329712,0.21595224738121033
1683135826770403300,15.2814033203125,9.913464546203613,-0.6544370055198669,-0.2548356056213379
1683135826788241200,15.2992412109375,9.506684303283691,-1.114457130432129,0.07178468257188797
1683135826806082000,15.31708203125,9.850652694702148,-0.7262216806411743,-0.06939185410737991
1683135826823919900,15.334919921875,9.741181373596191,-1.0618150234222412,-0.23629122972488403
1683135826841759500,15.352759521484375,9.768099784851074,-1.0564311742782593,0.23030917346477509
1683135826859597800,15.370597900390624,9.628120422363281,-0.6550351977348328,-0.4612165689468384
1683135826877437000,15.38843701171875,9.791430473327637,-1.3483555316925049,0.2787638306617737
1683135826895275500,15.406275634765626,9.78544807434082,-0.6502495408058167,-0.43190449476242065
1683135826913108500,15.4241083984375,9.553942680358887,-1.1383854150772095,0.19142581522464752
1683135826930953000,15.441952880859375,9.89432144165039,-0.6065805554389954,-0.20757736265659332
1683135826948790000,15.4597900390625,9.673583984375,-1.186241865158081,-0.07956135272979736
1683135826966634200,15.47763427734375,9.678967475891113,-0.8075776696205139,0.08673982322216034
1683135826984470800,15.495470703125,9.675378799438477,-0.851844847202301,-0.42293140292167664
1683135827002308000,15.51330810546875,9.857831001281738,-1.26699960231781,0.2787638306617737
1683135827020148200,15.531148193359375,9.642477035522461,-0.6167500615119934,-0.45643091201782227
1683135827037975800,15.548975830078126,9.653244972229004,-1.2239288091659546,0.2727817893028259
1683135827055826400,15.566826416015624,9.827920913696289,-0.597607433795929,-0.3840480446815491
1683135827073664800,15.584664794921874,9.582656860351562,-1.296311616897583,0.039481572806835175
1683135827091503900,15.60250390625,9.789037704467773,-0.7022934556007385,-0.046061836183071136
1683135827109342500,15.620342529296876,9.6795654296875,-0.9900303483009338,-0.3128615617752075
1683135827127181300,15.638181396484375,9.820143699645996,-1.1617153882980347,0.2356930375099182
1683135827145020700,15.656020751953125,9.556933403015137,-0.641276478767395,-0.5000999569892883
1683135827162859300,15.673859375,9.829715728759766,-1.171286702156067,0.3074777126312256
1683135827180697900,15.69169775390625,9.833304405212402,-0.6406782865524292,-0.46061834692955017
1683135827198537500,15.709537353515625,9.648459434509277,-1.3728820085525513,0.19202402234077454
1683135827216375800,15.727375732421875,9.817750930786133,-0.6161518096923828,-0.19381862878799438
1683135827234210800,15.7452109375,9.664610862731934,-1.0863415002822876,-0.20338992774486542
1683135827252053500,15.763053466796874,9.81117057800293,-1.0037890672683716,0.1495514214038849
1683135827269888500,15.780888427734375,9.571290969848633,-0.7417750358581543,-0.4666004180908203
1683135827287724800,15.798724853515624,9.948160171508789,-1.2239288091659546,0.28893333673477173
1683135827305570800,15.81657080078125,9.737591743469238,-0.7363911867141724,-0.5228317379951477
1683135827323406300,15.83440625,9.662816047668457,-1.3052847385406494,0.27816563844680786
1683135827341251800,15.852251953125,9.847063064575195,-0.5635097622871399,-0.3032902777194977
1683135827359085800,15.8700859375,9.640084266662598,-1.2628121376037598,-0.04127619042992592
1683135827376926200,15.88792626953125,9.864411354064941,-0.865005373954773,0.02153540402650833
1683135827394766600,15.9057666015625,9.598808288574219,-0.914058268070221,-0.3278166949748993
1683135827412604000,15.92360400390625,9.939187049865723,-1.0941181182861328,0.2602194547653198
1683135827430443000,15.941443115234375,9.647262573242188,-0.7657032608985901,-0.5324030518531799
1683135827448278800,15.95927880859375,9.729216575622559,-1.2526426315307617,0.3355933725833893
1683135827466121200,15.977121337890624,9.795019149780273,-0.5641079545021057,-0.39421752095222473
1683135827483958000,15.9949580078125,9.597013473510742,-1.358525037765503,0.04426721855998039
1683135827501797400,16.01279736328125,9.89850902557373,-0.7166503667831421,-0.09810572862625122
1683135827519626500,16.03062646484375,9.583852767944336,-1.0049854516983032,-0.20877377688884735
1683135827537478000,16.048477783203126,9.930213928222656,-0.9553344249725342,0.16929219663143158
1683135827555312000,16.06631201171875,9.6466646194458,-0.8374879360198975,-0.4181457459926605
1683135827573159700,16.08415966796875,9.848259925842285,-1.1904292106628418,0.3595215976238251
1683135827590993700,16.10199365234375,9.761520385742188,-0.6406782865524292,-0.5084748268127441
1683135827608829200,16.1198291015625,9.695717811584473,-1.454237937927246,0.22612173855304718
1683135827626673400,16.13767333984375,9.899106979370117,-0.6065805554389954,-0.19322042167186737
1683135827644509400,16.155509521484376,9.588040351867676,-1.1766705513000488,-0.0891326442360878
1683135827662348800,16.173348876953124,9.926026344299316,-0.8697910308837891,0.031106693670153618
1683135827680186000,16.19118603515625,9.613164901733398,-0.9332008361816406,-0.2991028428077698
1683135827698027800,16.20902783203125,9.868000984191895,-1.012762188911438,0.2787638306617737
1683135827715865300,16.226865234375,9.756733894348145,-0.7028916478157043,-0.4462614357471466
1683135827733700900,16.244700927734375,9.757332801818848,-1.439282774925232,0.3122633695602417
1683135827751548000,16.2625478515625,9.847063064575195,-0.5491527915000916,-0.34636107087135315
1683135827769381000,16.280381103515627,9.611370086669922,-1.272383451461792,0.06819544732570648
1683135827787220700,16.298220703125,9.955338478088379,-0.7884350419044495,-0.10707881301641464
1683135827805060400,16.316060302734375,9.57906723022461,-1.0091729164123535,-0.1136590763926506
1683135827822899200,16.333899169921875,9.821340560913086,-0.8410771489143372,0.14476576447486877
1683135827840738300,16.35173828125,9.675378799438477,-0.8470591902732849,-0.4612165689468384
1683135827858577000,16.369576904296874,9.79083251953125,-1.3435698747634888,0.29790642857551575
1683135827876410400,16.387410400390625,9.738189697265625,-0.5545366406440735,-0.4468596279621124
1683135827894255000,16.405255126953126,9.710672378540039,-1.339382529258728,0.21655045449733734
1683135827912093200,16.42309326171875,9.91286563873291,-0.6735795736312866,-0.24526432156562805
1683135827929929200,16.44092919921875,9.497113227844238,-1.1001001596450806,0.05742774158716202
1683135827947771600,16.458771728515625,9.850652694702148,-0.7166503667831421,-0.05024927482008934
1683135827965610200,16.4766103515625,9.741181373596191,-1.0235298871994019,-0.25064817070961
1683135827983446500,16.494446533203124,9.753743171691895,-1.0947163105010986,0.23988047242164612
1683135828001289000,16.5122890625,9.609575271606445,-0.6460621356964111,-0.48514479398727417
1683135828019128000,16.530128173828125,9.762716293334961,-1.357926845550537,0.26919254660606384
1683135828036965600,16.547965576171876,9.790233612060547,-0.6215356588363647,-0.46061834692955017
1683135828054804700,16.5658046875,9.539586067199707,-1.1383854150772095,0.17706887423992157
1683135828072643600,16.5836435546875,9.888937950134277,-0.6448656916618347,-0.18843477964401245
1683135828090482700,16.601482666015624,9.683155059814453,-1.1958130598068237,-0.11246266216039658
1683135828108320000,16.619320068359375,9.668798446655273,-0.8315058946609497,0.09631111472845078
1683135828126158800,16.637158935546875,9.675378799438477,-0.8231309652328491,-0.42293140292167664
1683135828144001500,16.65500146484375,9.848259925842285,-1.3100703954696655,0.2787638306617737
1683135828161838000,16.672838134765627,9.699904441833496,-0.6215356588363647,-0.4612165689468384
1683135828179676700,16.6906767578125,9.64367389678955,-1.2143574953079224,0.2919243574142456
1683135828197516300,16.708516357421875,9.827920913696289,-0.597607433795929,-0.3936193287372589
1683135828215354400,16.726354248046874,9.601799011230469,-1.2915260791778564,0.020338991656899452
1683135828233176600,16.744176513671874,9.765109062194824,-0.7262216806411743,-0.026919255033135414
1683135828251031300,16.76203125,9.66520881652832,-0.9469595551490784,-0.3320041298866272
1683135828268874000,16.7798740234375,9.805787086486816,-1.1473584175109863,0.22612173855304718
1683135828286708500,16.79770849609375,9.538389205932617,-0.6460621356964111,-0.4953143000602722
1683135828304542700,16.815542724609376,9.796216011047363,-1.2047861814498901,0.30209386348724365
1683135828322386700,16.83338671875,9.847063064575195,-0.6502495408058167,-0.46480581164360046
1683135828340228400,16.851228271484374,9.648459434509277,-1.4015958309173584,0.17347964644432068
1683135828358065700,16.869065673828125,9.77527904510498,-0.6496513485908508,-0.18424734473228455
1683135828375905300,16.8869052734375,9.659825325012207,-1.1102696657180786,-0.21774685382843018
1683135828393743400,16.904743408203124,9.844670295715332,-0.9750752449035645,0.1782652884721756
1683135828411582700,16.922582763671876,9.57607650756836,-0.7130611538887024,-0.4570291340351105
1683135828429409500,16.940409423828125,9.934401512145996,-1.2143574953079224,0.29371899366378784
1683135828447260700,16.9582607421875,9.752547264099121,-0.7076773047447205,-0.5461617708206177
1683135828465098800,16.9760986328125,9.667601585388184,-1.2765709161758423,0.2638086974620819
1683135828482938600,16.993938720703124,9.851848602294922,-0.5778666734695435,-0.28893333673477173
1683135828500776400,17.0117763671875,9.64965534210205,-1.2436695098876953,-0.05563312768936157
1683135828518615800,17.02961572265625,9.869196891784668,-0.8554341197013855,0.04007977992296219
1683135828536455400,17.047455322265623,9.603593826293945,-0.8662018179893494,-0.31824541091918945
1683135828554294000,17.0652939453125,9.939187049865723,-1.079761266708374,0.29371899366378784
1683135828572131300,17.08313134765625,9.643074989318848,-0.7417750358581543,-0.5563312768936157
1683135828589970200,17.10097021484375,9.710074424743652,-1.2526426315307617,0.349352091550827
1683135828607798500,17.118798583984375,9.814162254333496,-0.5688936114311218,-0.3846462368965149
1683135828625639400,17.136639404296876,9.605986595153809,-1.4021940231323242,0.03469592705368996
1683135828643475500,17.154475341796875,9.893723487854004,-0.7310073375701904,-0.08374879509210587
1683135828661331500,17.17233154296875,9.57906723022461,-1.0001999139785767,-0.21355941891670227
1683135828679165400,17.19016552734375,9.954142570495605,-0.9553344249725342,0.16929219663143158
1683135828697005300,17.20800537109375,9.651450157165527,-0.8470591902732849,-0.4133601188659668
1683135828714843400,17.225843505859373,9.857831001281738,-1.1904292106628418,0.3643072545528412
1683135828732679200,17.24367919921875,9.7669038772583,-0.6119644045829773,-0.5132604837417603
1683135828750521000,17.26152099609375,9.69093132019043,-1.4733805656433105,0.21655045449733734
1683135828768360700,17.279360595703125,9.89850902557373,-0.625723123550415,-0.18364913761615753
1683135828786187000,17.29718701171875,9.588040351867676,-1.1479566097259521,-0.0849452018737793
1683135828804038400,17.315038330078124,9.902098655700684,-0.8793623447418213,0.05024927482008934
1683135828821879300,17.33287939453125,9.613164901733398,-0.9427721500396729,-0.31824541091918945
1683135828839716000,17.350716064453124,9.820143699645996,-1.0372886657714844,0.26919254660606384
1683135828857554700,17.3685546875,9.737591743469238,-0.6885347366333008,-0.46061834692955017
1683135828875390700,17.386390625,9.757332801818848,-1.4638092517852783,0.3026920557022095
1683135828893224000,17.404223876953125,9.823135375976562,-0.5635097622871399,-0.3367897868156433
1683135828911071700,17.42207177734375,9.616155624389648,-1.2532408237457275,0.08733802288770676
1683135828928910000,17.43991015625,9.950552940368652,-0.7932206988334656,-0.11186445504426956
1683135828946749400,17.45774951171875,9.574281692504883,-1.0091729164123535,-0.09451649338006973
1683135828964582100,17.47558203125,9.797411918640137,-0.8315058946609497,0.13998012244701385
1683135828982427400,17.493427490234374,9.680164337158203,-0.8327022790908813,-0.4420739710330963
1683135829000263400,17.511263427734374,9.800403594970703,-1.3244273662567139,0.3026920557022095
1683135829018093600,17.529093505859375,9.733404159545898,-0.5688936114311218,-0.45643091201782227
1683135829035932200,17.54693212890625,9.681958198547363,-1.3202399015426636,0.20159530639648438
1683135829053771800,17.564771728515623,9.93679428100586,-0.6687939167022705,-0.259621262550354
1683135829071619600,17.58261962890625,9.501898765563965,-1.1288141012191772,0.048454657196998596
1683135829089450500,17.600450439453127,9.821938514709473,-0.7166503667831421,-0.05563312768936157
1683135829107292400,17.61829248046875,9.731609344482422,-1.0426725149154663,-0.26979073882102966
1683135829125127700,17.636127685546874,9.791430473327637,-1.113858938217163,0.25004997849464417
1683135829142965200,17.65396533203125,9.614361763000488,-0.6454638838768005,-0.4426721930503845
1683135829160811000,17.67181103515625,9.767501831054688,-1.353141188621521,0.26440688967704773
1683135829178646300,17.689646240234374,9.804591178894043,-0.631106972694397,-0.4414757788181305
1683135829196482800,17.70748291015625,9.539586067199707,-1.1479566097259521,0.1818545162677765
1683135829214321200,17.725321044921873,9.879964828491211,-0.6305087804794312,-0.18364913761615753
1683135829232164600,17.74316455078125,9.697511672973633,-1.1718848943710327,-0.11724831163883209
1683135829250005200,17.761005126953126,9.678369522094727,-0.836291491985321,0.12023933976888657
1683135829267836000,17.7788359375,9.647262573242188,-0.8039883971214294,-0.4372883439064026
1683135829285676500,17.796676513671876,9.848259925842285,-1.2957134246826172,0.27397820353507996
1683135829303517400,17.814517333984377,9.68076229095459,-0.6071787476539612,-0.4612165689468384
1683135829321355500,17.83235546875,9.620343208312988,-1.2239288091659546,0.2871387302875519
1683135829339193000,17.850193115234376,9.827920913696289,-0.5880361795425415,-0.37926238775253296
1683135829357046300,17.86804638671875,9.616155624389648,-1.301695466041565,0.0011964113218709826
1683135829374882800,17.8858828125,9.77408218383789,-0.7597211599349976,-0.01734796352684498
1683135829392717800,17.9037177734375,9.68913745880127,-0.9332008361816406,-0.32243284583091736
1683135829410559200,17.921559326171874,9.824930191040039,-1.1808580160140991,0.24047867953777313
1683135829428400000,17.939400146484374,9.55214786529541,-0.641276478767395,-0.4953143000602722
1683135829446238200,17.95723828125,9.78664493560791,-1.1808580160140991,0.32123643159866333
1683135829464076500,17.97507666015625,9.856635093688965,-0.6502495408058167,-0.4695914387702942
1683135829481916400,17.99291650390625,9.65803050994873,-1.3776676654815674,0.1782652884721756
1683135829499751700,18.010751708984376,9.822537422180176,-0.6113662123680115,-0.15553347766399384
1683135829517597000,18.028596923828125,9.659825325012207,-1.0863415002822876,-0.20817556977272034
1683135829535426800,18.0464267578125,9.8207426071167,-1.0133603811264038,0.16869398951530457
1683135829553260800,18.0642607421875,9.55214786529541,-0.7513462901115417,-0.4618147611618042
1683135829571110100,18.082110107421876,9.948758125305176,-1.200000524520874,0.2793620526790619
1683135829588955400,18.099955322265625,9.747760772705078,-0.7178468108177185,-0.537188708782196
1683135829606783000,18.117782958984375,9.653244972229004,-1.3298112154006958,0.27337998151779175
1683135829624627200,18.135627197265624,9.851848602294922,-0.5682953596115112,-0.2793620526790619
1683135829642465500,18.153465576171875,9.673583984375,-1.2436695098876953,-0.05563312768936157
1683135829660304000,18.171303955078123,9.859625816345215,-0.8602197170257568,0.04007977992296219
1683135829678144500,18.18914453125,9.594022750854492,-0.8757730722427368,-0.3278166949748993
1683135829695982800,18.20698291015625,9.948758125305176,-1.0941181182861328,0.29371899366378784
1683135829713821400,18.224821533203126,9.647262573242188,-0.7465606927871704,-0.5324030518531799
1683135829731649300,18.242649169921876,9.705288887023926,-1.26699960231781,0.3445664644241333
1683135829749500200,18.260500244140626,9.81356430053711,-0.5593222975730896,-0.3655036687850952
1683135829767338200,18.278338134765626,9.611370086669922,-1.3830515146255493,0.02512463741004467
1683135829785174800,18.2961748046875,9.897911071777344,-0.7597211599349976,-0.07896314561367035
1683135829803017500,18.314017578125,9.570094108581543,-1.0145567655563354,-0.21355941891670227
1683135829820854000,18.33185400390625,9.920642852783203,-0.9272187948226929,0.15972091257572174
1683135829838694100,18.349694091796874,9.680164337158203,-0.851844847202301,-0.4181457459926605
1683135829856527400,18.36752734375,9.814760208129883,-1.2047861814498901,0.3643072545528412
1683135829874368000,18.385367919921876,9.762118339538574,-0.6071787476539612,-0.5084748268127441
1683135829892210000,18.4032099609375,9.69631576538086,-1.4398809671401978,0.19262222945690155
1683135829910046200,18.421046142578124,9.908080101013184,-0.6305087804794312,-0.16929219663143158
1683135829927890700,18.438890625,9.611968994140625,-1.1527422666549683,-0.061016976833343506
1683135829945726700,18.456726806640624,9.930811882019043,-0.8554341197013855,0.040677983313798904
1683135829963565600,18.474565673828124,9.613164901733398,-0.9427721500396729,-0.2847459018230438
1683135829981403400,18.4924033203125,9.805787086486816,-1.0277173519134521,0.2877369225025177
1683135829999244300,18.510244384765624,9.737591743469238,-0.6837490797042847,-0.4749752879142761
1683135830017079800,18.528079833984375,9.7669038772583,-1.4398809671401978,0.3026920557022095
1683135830034924000,18.545924072265624,9.832706451416016,-0.5778666734695435,-0.34636107087135315
1683135830052756700,18.5637568359375,9.606584548950195,-1.2580264806747437,0.09631111472845078
1683135830070598400,18.581598388671875,9.950552940368652,-0.7884350419044495,-0.13100704550743103
1683135830088433200,18.59943310546875,9.602995872497559,-1.0235298871994019,-0.09930214285850525
1683135830106270200,18.617270263671877,9.80219841003418,-0.8554341197013855,0.14476576447486877
1683135830124113200,18.635113037109374,9.708877563476562,-0.8662018179893494,-0.43190449476242065
1683135830141957400,18.652957275390627,9.772287368774414,-1.3196417093276978,0.2835494875907898
1683135830159789000,18.6707890625,9.719047546386719,-0.544965386390686,-0.45643091201782227
1683135830177636000,18.688635986328126,9.67238712310791,-1.277169108390808,0.19202402234077454
1683135830195459800,18.7064599609375,9.93679428100586,-0.6783652305603027,-0.27397820353507996
1683135830213295000,18.724295166015626,9.511469841003418,-1.114457130432129,0.04366901144385338
1683135830231151400,18.7421513671875,9.831509590148926,-0.7070791125297546,-0.06041877344250679
1683135830248987400,18.7599873046875,9.741181373596191,-1.028315544128418,-0.2745763957500458
1683135830266824200,18.77782421875,9.768099784851074,-1.0995019674301147,0.2590230405330658
1683135830284667600,18.795667724609373,9.609575271606445,-0.6119644045829773,-0.44745782017707825
1683135830302504400,18.81350439453125,9.781859397888184,-1.3387842178344727,0.26440688967704773
1683135830320342500,18.831342529296876,9.814162254333496,-0.631106972694397,-0.4366901218891144
1683135830338182100,18.84918212890625,9.492327690124512,-1.1670992374420166,0.17706887423992157
1683135830356020000,18.86702001953125,9.875179290771484,-0.6305087804794312,-0.19800607860088348
1683135830373855500,18.88485546875,9.697511672973633,-1.1910275220870972,-0.14117653667926788
1683135830391695400,18.9026953125,9.654440879821777,-0.865005373954773,0.129810631275177
1683135830409540900,18.920540771484376,9.65683364868164,-0.7657032608985901,-0.45643091201782227
1683135830427375900,18.9383759765625,9.872187614440918,-1.2861422300338745,0.26500511169433594
1683135830445215200,18.95621533203125,9.690333366394043,-0.6358926296234131,-0.4707878530025482
1683135830463053600,18.974053466796875,9.620343208312988,-1.2245270013809204,0.2919243574142456
1683135830480893200,18.99189306640625,9.856635093688965,-0.6071787476539612,-0.364905446767807
1683135830498731800,19.009731689453126,9.640084266662598,-1.3010972738265991,-0.0077766734175384045
1683135830516571100,19.027571044921874,9.78843879699707,-0.7501499056816101,-0.01734796352684498
1683135830534409000,19.045408935546874,9.675378799438477,-0.9092726111412048,-0.34636107087135315
1683135830552245800,19.063245849609373,9.810572624206543,-1.171286702156067,0.24047867953777313
1683135830570090200,19.08109033203125,9.538389205932617,-0.641276478767395,-0.4905286431312561
1683135830587926300,19.09892626953125,9.767501831054688,-1.200000524520874,0.32602208852767944
1683135830605764900,19.116764892578125,9.851848602294922,-0.6454638838768005,-0.46002015471458435
1683135830623599600,19.134599609375,9.648459434509277,-1.4015958309173584,0.16869398951530457
1683135830641442800,19.15244287109375,9.803394317626953,-0.6592226624488831,-0.15074782073497772
1683135830659281700,19.17028173828125,9.636494636535645,-1.0480563640594482,-0.2273181527853012
1683135830677120000,19.1881201171875,9.835099220275879,-1.042074203491211,0.19262222945690155
1683135830694945800,19.20594580078125,9.556933403015137,-0.7226324677467346,-0.4570291340351105
1683135830712796400,19.22379638671875,9.943374633789062,-1.2191431522369385,0.3128615617752075
1683135830730629600,19.241629638671874,9.761520385742188,-0.7082754969596863,-0.5324030518531799
1683135830748474600,19.259474609375,9.64367389678955,-1.3154542446136475,0.25423741340637207
1683135830766316300,19.27731640625,9.827920913696289,-0.5778666734695435,-0.2554338276386261
1683135830784153600,19.295153564453123,9.64965534210205,-1.210768222808838,-0.0891326442360878
1683135830801989000,19.312989013671874,9.873384475708008,-0.898504912853241,0.06400800496339798
1683135830819835400,19.33083544921875,9.594022750854492,-0.8422735929489136,-0.32303106784820557
1683135830837670400,19.34867041015625,9.94397258758545,-1.0701899528503418,0.3074777126312256
1683135830855508700,19.3665087890625,9.671191215515137,-0.7322037220001221,-0.5419743061065674
1683135830873348400,19.384348388671874,9.695717811584473,-1.3052847385406494,0.35413774847984314
1683135830891186700,19.402186767578126,9.856635093688965,-0.5539384484291077,-0.34576287865638733
1683135830909025800,19.42002587890625,9.639486312866211,-1.4021940231323242,0.01615155301988125
1683135830926861600,19.437861572265625,9.893125534057617,-0.7692924737930298,-0.04546362906694412
1683135830944702000,19.455701904296873,9.555737495422363,-0.9762716293334961,-0.23270200192928314
1683135830962541800,19.473541748046873,9.954142570495605,-0.9409775137901306,0.2027917206287384
1683135830980381400,19.49138134765625,9.689735412597656,-0.8279166221618652,-0.42293140292167664
1683135830998212000,19.509212158203123,9.81954574584961,-1.2335001230239868,0.3643072545528412
1683135831016052500,19.527052490234375,9.7669038772583,-0.5736792087554932,-0.4893322288990021
1683135831033900500,19.544900634765625,9.67238712310791,-1.454237937927246,0.17347964644432068
1683135831051736800,19.56273681640625,9.91286563873291,-0.6496513485908508,-0.16929219663143158
1683135831069574000,19.580573974609376,9.578469276428223,-1.1335997581481934,-0.07537391036748886
1683135831087415600,19.59841552734375,9.90688419342041,-0.8554341197013855,0.059820566326379776
1683135831105252900,19.6162529296875,9.622735977172852,-0.9284151792526245,-0.3278166949748993
1683135831123092000,19.634092041015624,9.768099784851074,-1.0325030088424683,0.29730820655822754
1683135831140931000,19.65193115234375,9.742377281188965,-0.6741777658462524,-0.47976094484329224
1683135831158766300,19.669766357421874,9.762118339538574,-1.4446666240692139,0.2835494875907898
1683135831176612600,19.687612548828124,9.837491989135742,-0.5730810165405273,-0.32243284583091736
1683135831194448000,19.70544775390625,9.630513191223145,-1.2197413444519043,0.06340979784727097
1683135831212286200,19.7232861328125,9.960124015808105,-0.8075776696205139,-0.10229317098855972
1683135831230125300,19.741125244140626,9.602995872497559,-1.0187442302703857,-0.11844471842050552
1683135831247949600,19.758949462890627,9.787840843200684,-0.8602197170257568,0.16869398951530457
1683135831265798700,19.776798583984377,9.704092025756836,-0.8279166221618652,-0.45104706287384033
1683135831283638800,19.794638671875,9.800403594970703,-1.357926845550537,0.29312077164649963
1683135831301484000,19.812484130859374,9.751948356628418,-0.5545366406440735,-0.4325026869773865
1683135831319319600,19.830319580078125,9.686744689941406,-1.2580264806747437,0.20159530639648438
1683135831337159000,19.848158935546873,9.955936431884766,-0.6783652305603027,-0.25004997849464417
1683135831354997000,19.8659970703125,9.497113227844238,-1.1575279235839844,0.014955141581594944
1683135831372833000,19.8838330078125,9.793225288391113,-0.711864709854126,-0.046061836183071136
1683135831390673700,19.901673583984376,9.750752449035645,-1.0043872594833374,-0.29850462079048157
1683135831408509000,19.919509033203123,9.80100154876709,-1.1425727605819702,0.2548356056213379
1683135831426355500,19.93735546875,9.595218658447266,-0.6215356588363647,-0.4426721930503845
1683135831444191700,19.955191650390624,9.78664493560791,-1.3244273662567139,0.259621262550354
1683135831462029800,19.97302978515625,9.827920913696289,-0.6215356588363647,-0.4127618968486786
1683135831479858000,19.99085791015625,9.497113227844238,-1.1575279235839844,0.1579262912273407
1683135831497707800,20.008707763671875,9.860821723937988,-0.6017948985099792,-0.19381862878799438
1683135831515547600,20.026547607421875,9.70229721069336,-1.1676974296569824,-0.16510476171970367
1683135831533385500,20.044385498046875,9.683155059814453,-0.9032905697822571,0.12023933976888657
1683135831551222500,20.062222412109374,9.661619186401367,-0.7465606927871704,-0.4612165689468384
1683135831569066200,20.080066162109375,9.881759643554688,-1.290927767753601,0.2745763957500458
1683135831586901000,20.09790087890625,9.709476470947266,-0.6263213157653809,-0.47557350993156433
1683135831604737500,20.115737548828125,9.591629981994629,-1.2340983152389526,0.28235307335853577
1683135831622580200,20.133580322265626,9.847063064575195,-0.5880361795425415,-0.3367897868156433
1683135831640418800,20.151418701171874,9.659226417541504,-1.2867404222488403,-0.03170489892363548
1683135831658257700,20.169257568359374,9.769296646118164,-0.8075776696205139,0.001794616924598813
1683135831676097500,20.18709765625,9.670592308044434,-0.9044869542121887,-0.37028929591178894
1683135831693935600,20.204935546875,9.834501266479492,-1.195214867591858,0.26440688967704773
1683135831711772700,20.222772705078125,9.552745819091797,-0.6604190468788147,-0.5335994362831116
1683135831729605600,20.240605712890623,9.748359680175781,-1.1808580160140991,0.32602208852767944
1683135831747452000,20.258451904296876,9.866206169128418,-0.631106972694397,-0.43190449476242065
1683135831765291500,20.27629150390625,9.653244972229004,-1.3872389793395996,0.14476576447486877
1683135831783129900,20.2941298828125,9.812965393066406,-0.6544370055198669,-0.12203395366668701
1683135831800968700,20.31196875,9.65085220336914,-1.0480563640594482,-0.23210379481315613
1683135831818807600,20.3298076171875,9.830313682556152,-1.0612168312072754,0.19740787148475647
1683135831836646400,20.347646484375,9.55214786529541,-0.7369893789291382,-0.4666004180908203
1683135831854477000,20.36547705078125,9.93380355834961,-1.200000524520874,0.3128615617752075
1683135831872324600,20.38332470703125,9.775876998901367,-0.6885347366333008,-0.5318048596382141
1683135831890162700,20.40116259765625,9.615557670593262,-1.3441680669784546,0.2350948303937912
1683135831908002600,20.41900244140625,9.832706451416016,-0.5491527915000916,-0.24167509377002716
1683135831925840400,20.43684033203125,9.68794059753418,-1.2005987167358398,-0.07477571070194244
1683135831943676200,20.45467626953125,9.887741088867188,-0.9032905697822571,0.07357929646968842
1683135831961521700,20.472521728515623,9.589237213134766,-0.8470591902732849,-0.32303106784820557
1683135831979357200,20.490357177734374,9.94397258758545,-1.0941181182861328,0.32662028074264526
1683135831997195800,20.50819580078125,9.699904441833496,-0.7178468108177185,-0.5276173949241638
1683135832015032600,20.526032470703125,9.695717811584473,-1.3148560523986816,0.3445664644241333
1683135832032871700,20.54387158203125,9.842277526855469,-0.5491527915000916,-0.31764721870422363
1683135832050712800,20.561712890625,9.630513191223145,-1.3543375730514526,0.001794616924598813
1683135832068548400,20.57954833984375,9.912267684936523,-0.7884350419044495,-0.05503492057323456
1683135832086393300,20.597393310546874,9.56052303314209,-0.9762716293334961,-0.2183450609445572
1683135832104217000,20.615217041015626,9.91107177734375,-0.9272187948226929,0.1788634955883026
1683135832122068200,20.633068115234376,9.689735412597656,-0.8327022790908813,-0.4133601188659668
1683135832139904000,20.650904052734376,9.814760208129883,-1.2382856607437134,0.37866419553756714
1683135832157749000,20.6687490234375,9.77109146118164,-0.5880361795425415,-0.4701896607875824
1683135832175584300,20.686584228515624,9.653244972229004,-1.425524115562439,0.17347964644432068
1683135832193423600,20.704423583984376,9.908080101013184,-0.6592226624488831,-0.15493527054786682
1683135832211262000,20.722261962890624,9.588040351867676,-1.114457130432129,-0.08015955984592438
1683135832229101000,20.74010107421875,9.911669731140137,-0.836291491985321,0.0687936544418335
1683135832246940000,20.75793994140625,9.641879081726074,-0.9092726111412048,-0.3326023519039154
1683135832264778800,20.77577880859375,9.791430473327637,-1.0660024881362915,0.29730820655822754
1683135832282617600,20.79361767578125,9.737591743469238,-0.6789634227752686,-0.4701896607875824
1683135832300457000,20.81145703125,9.757930755615234,-1.4398809671401978,0.2787638306617737
1683135832318294300,20.829294189453126,9.837491989135742,-0.5928218364715576,-0.32721850275993347
1683135832336135000,20.847135009765626,9.611370086669922,-1.2005987167358398,0.06819544732570648
1683135832353967900,20.8649677734375,9.945767402648926,-0.8075776696205139,-0.12622138857841492
1683135832371812000,20.88281201171875,9.631111145019531,-1.0666006803512573,-0.13220344483852386
1683135832389651200,20.900651123046874,9.787840843200684,-0.8745766878128052,0.17347964644432068
1683135832407490000,20.918489990234374,9.69930648803711,-0.8183453679084778,-0.45164528489112854
1683135832425325300,20.9363251953125,9.77707290649414,-1.3824533224105835,0.26919254660606384
1683135832443166500,20.95416650390625,9.719047546386719,-0.5593222975730896,-0.45643091201782227
1683135832461009200,20.972009033203125,9.681958198547363,-1.2819547653198242,0.17347964644432068
1683135832478844000,20.989843994140625,9.965508460998535,-0.711864709854126,-0.2548356056213379
1683135832496684500,21.0076845703125,9.521040916442871,-1.1096714735031128,0.010169495828449726
1683135832514523000,21.02552294921875,9.793225288391113,-0.7214360237121582,-0.03170489892363548
1683135832532361200,21.043361328125,9.745966911315918,-1.0001999139785767,-0.3080759048461914
1683135832550197800,21.06119775390625,9.77707290649414,-1.1617153882980347,0.25004997849464417
1683135832568041500,21.07904150390625,9.580862045288086,-0.6125625967979431,-0.45224347710609436
1683135832585878300,21.096878173828124,9.791430473327637,-1.3052847385406494,0.259621262550354
1683135832603713800,21.1147138671875,9.80937671661377,-0.6119644045829773,-0.42711883783340454
1683135832621558300,21.132558349609376,9.482755661010742,-1.181456208229065,0.14356936514377594
1683135832639394000,21.15039404296875,9.865608215332031,-0.6209374666213989,-0.19322042167186737
1683135832657234000,21.16823388671875,9.731011390686035,-1.1772687435150146,-0.18364913761615753
1683135832675067400,21.1860673828125,9.692726135253906,-0.9463613629341125,0.14416755735874176
1683135832692910800,21.203910888671874,9.637691497802734,-0.7226324677467346,-0.45164528489112854
1683135832710749400,21.22174951171875,9.90568733215332,-1.2813565731048584,0.26979073882102966
1683135832728576000,21.239575927734375,9.756733894348145,-0.6550351977348328,-0.4701896607875824
1683135832746428200,21.25742822265625,9.596415519714355,-1.2197413444519043,0.2919243574142456
1683135832764266500,21.2752666015625,9.861420631408691,-0.5874379873275757,-0.3320041298866272
1683135832782105000,21.29310498046875,9.673583984375,-1.301695466041565,-0.06999006122350693
1683135832799943400,21.310943359375,9.764511108398438,-0.7980063557624817,0.020338991656899452
1683135832817772000,21.32877197265625,9.6466646194458,-0.8709874153137207,-0.3846462368965149
1683135832835622000,21.346621826171877,9.829715728759766,-1.195214867591858,0.2548356056213379
1683135832853460200,21.364460205078124,9.552745819091797,-0.6508477330207825,-0.5096712112426758
1683135832871299300,21.38229931640625,9.729216575622559,-1.1856436729431152,0.32123643159866333
1683135832889138200,21.40013818359375,9.837491989135742,-0.6406782865524292,-0.46061834692955017
1683135832906977300,21.417977294921876,9.644271850585938,-1.3968101739883423,0.13519448041915894
1683135832924815600,21.435815673828124,9.817750930786133,-0.6927221417427063,-0.0891326442360878
1683135832942655200,21.4536552734375,9.641280174255371,-1.0145567655563354,-0.2512463629245758
1683135832960493000,21.4714931640625,9.848857879638672,-1.046859860420227,0.21655045449733734
1683135832978331600,21.48933154296875,9.55214786529541,-0.7082754969596863,-0.48095735907554626
1683135832996159700,21.50715966796875,9.92423152923584,-1.1904292106628418,0.3361915946006775
1683135833014010600,21.5250107421875,9.790233612060547,-0.6502495408058167,-0.5180460810661316
1683135833031848700,21.5428486328125,9.624530792236328,-1.3537393808364868,0.22073788940906525
1683135833049687000,21.56068701171875,9.818349838256836,-0.5778666734695435,-0.21296121180057526
1683135833067527200,21.578527099609374,9.683155059814453,-1.1766705513000488,-0.10827522724866867
1683135833085365800,21.59636572265625,9.916455268859863,-0.9176474809646606,0.09272187948226929
1683135833103203800,21.614203857421874,9.589835166931152,-0.8470591902732849,-0.3278166949748993
1683135833121042400,21.63204248046875,9.910472869873047,-1.1132607460021973,0.34576287865638733
1683135833138882800,21.6498828125,9.699904441833496,-0.7322037220001221,-0.5419743061065674
1683135833156711000,21.6677109375,9.667003631591797,-1.3387842178344727,0.3445664644241333
1683135833174559500,21.6855595703125,9.823135375976562,-0.5395814776420593,-0.31764721870422363
1683135833192398800,21.70339892578125,9.592227935791016,-1.3543375730514526,-0.02273181453347206
1683135833210233600,21.721233642578124,9.912267684936523,-0.8075776696205139,-0.035892341285943985
1683135833228079400,21.739079345703125,9.565308570861816,-0.9427721500396729,-0.23748764395713806
1683135833245914400,21.756914306640624,9.954142570495605,-0.9649057388305664,0.2267199456691742
1683135833263754200,21.774754150390624,9.708877563476562,-0.7992027401924133,-0.42771705985069275
1683135833281592300,21.79259228515625,9.776474952697754,-1.2813565731048584,0.3930211067199707
1683135833299431700,21.810431640625,9.790233612060547,-0.5880361795425415,-0.4414757788181305
1683135833317270300,21.828270263671875,9.653244972229004,-1.4063814878463745,0.1495514214038849
1683135833335109600,21.846109619140623,9.91286563873291,-0.6735795736312866,-0.12143574655056
1683135833352947500,21.863947509765627,9.57906723022461,-1.0618150234222412,-0.10408778488636017
1683135833370785500,21.88178564453125,9.873384475708008,-0.8554341197013855,0.09272187948226929
1683135833388626700,21.899626708984375,9.651450157165527,-0.9044869542121887,-0.37507495284080505
1683135833406464500,21.917464599609374,9.762716293334961,-1.1569297313690186,0.33080771565437317
1683135833424302800,21.935302734375,9.738189697265625,-0.6167500615119934,-0.4749752879142761
1683135833442139600,21.9531396484375,9.734002113342285,-1.4446666240692139,0.27397820353507996
1683135833459983600,21.970983642578126,9.879964828491211,-0.6161518096923828,-0.2602194547653198
1683135833477819600,21.988819580078125,9.620942115783691,-1.1479566097259521,0.03469592705368996
1683135833495658000,22.006657958984373,9.974481582641602,-0.7980063557624817,-0.08315058797597885
1683135833513495000,22.0244951171875,9.65503978729248,-1.0187442302703857,-0.15134602785110474
1683135833531327700,22.04232763671875,9.792028427124023,-0.9128618240356445,0.2063809484243393
1683135833549175600,22.060175537109377,9.685547828674316,-0.7752745151519775,-0.4707878530025482
1683135833567014000,22.078013916015625,9.80518913269043,-1.3387842178344727,0.2883351147174835
1683135833584853000,22.09585302734375,9.795019149780273,-0.5784648656845093,-0.4462614357471466
1683135833602687700,22.113687744140623,9.66819953918457,-1.2484551668167114,0.18723836541175842
1683135833620518700,22.1315185546875,9.946365356445312,-0.7022934556007385,-0.19800607860088348
1683135833638367700,22.14936767578125,9.516854286193848,-1.1102696657180786,-0.03290131315588951
1683135833656197400,22.167197265625,9.722038269042969,-0.7501499056816101,0.005982056725770235
1683135833674046500,22.18504638671875,9.756135940551758,-0.9475577473640442,-0.34636107087135315
1683135833691883000,22.202883056640626,9.810572624206543,-1.2287144660949707,0.259621262550354
1683135833709727000,22.22072705078125,9.580862045288086,-0.6029912829399109,-0.4331009089946747
1683135833727552800,22.238552734375,9.748957633972168,-1.2574282884597778,0.2309073805809021
1683135833745401900,22.25640185546875,9.866206169128418,-0.6502495408058167,-0.40797626972198486
1683135833763236400,22.274236328125,9.539586067199707,-1.181456208229065,0.1339980661869049
1683135833781067500,22.292067626953123,9.851250648498535,-0.6209374666213989,-0.11724831163883209
1683135833798919200,22.309919189453126,9.741181373596191,-1.1198409795761108,-0.25064817070961
1683135833816757200,22.32775732421875,9.720842361450195,-1.01814603805542,0.20159530639648438
1683135833834597600,22.34559765625,9.632905960083008,-0.6556333899497986,-0.45643091201782227
1683135833852433400,22.363433349609377,9.862616539001465,-1.3052847385406494,0.26500511169433594
1683135833870274000,22.381274169921873,9.780662536621094,-0.6550351977348328,-0.45104706287384033
1683135833888098600,22.3990986328125,9.558130264282227,-1.2819547653198242,0.24885354936122894
1683135833905942500,22.416942626953126,9.832706451416016,-0.5832505226135254,-0.31764721870422363
1683135833923787300,22.434787353515624,9.692726135253906,-1.2394821643829346,-0.12203395366668701
1683135833941632300,22.45263232421875,9.806983947753906,-0.8937192559242249,0.0687936544418335
1683135833959467800,22.4704677734375,9.637691497802734,-0.8327022790908813,-0.4085744619369507
1683135833977307100,22.48830712890625,9.862616539001465,-1.2191431522369385,0.2883351147174835
1683135833995145200,22.506145263671876,9.623932838439941,-0.6699903607368469,-0.50907301902771
1683135834012980000,22.52397998046875,9.710672378540039,-1.176072359085083,0.3158525824546814
