time,seconds_elapsed,z,y,x
1683135811687700200,0.1987001953125,-0.07157611846923828,0.23971354961395264,-0.23015734553337097
1683135811705538800,0.216538818359375,-0.07137680053710938,-0.06414556503295898,0.22879663109779358
1683135811723377400,0.23437744140625,0.05958080291748047,0.3288145065307617,-0.17840850353240967
1683135811741215000,0.252215087890625,-0.030745506286621094,-0.07139670848846436,0.12869861721992493
1683135811759056000,0.270055908203125,0.008170127868652344,0.28572535514831543,-0.02198130637407303
1683135811776893700,0.287893798828125,-0.11469268798828125,0.0185544490814209,-0.035403117537498474
1683135811794732800,0.30573291015625,0.10473155975341797,0.091164231300354,0.1430020034313202
1683135811812570400,0.3235703125,-0.11724281311035156,0.21533167362213135,-0.1699180155992508
1683135811830409500,0.341409423828125,0.035048484802246094,0.05656611919403076,0.21506094932556152
1683135811848253000,0.3592529296875,0.023159027099609375,0.26974552869796753,-0.20734050869941711
1683135811866088000,0.377087890625,-0.05710792541503906,-0.10565590858459473,0.17142212390899658
1683135811883923000,0.3949228515625,0.03312492370605469,0.3359485864639282,-0.1080828383564949
1683135811901765600,0.412765625,-0.07271575927734375,-0.06312918663024902,0.012912459671497345
1683135811919602700,0.430602783203125,0.0656747817993164,0.15393078327178955,0.08050639927387238
1683135811937439000,0.44843896484375,-0.1429300308227539,0.15899300575256348,-0.12582549452781677
1683135811955280000,0.46627978515625,0.14583778381347656,0.0589907169342041,0.19624517858028412
1683135811973103400,0.484103271484375,-0.011739730834960938,0.21248674392700195,-0.1752358376979828
1683135811990954500,0.50195458984375,-0.10470771789550781,-0.06055927276611328,0.2069876790046692
1683135812008796700,0.519796630859375,0.04546833038330078,0.3419293165206909,-0.10890857130289078
1683135812026637300,0.53763720703125,-0.04475593566894531,-0.09042954444885254,0.05486522987484932
1683135812044473600,0.5554736328125,0.06945610046386719,0.2042783498764038,0.0019996091723442078
1683135812062299600,0.573299560546875,-0.13159942626953125,0.06433701515197754,-0.05244220793247223
1683135812080152000,0.591152099609375,0.11473369598388672,0.13591015338897705,0.1396167129278183
1683135812097989000,0.608989013671875,-0.0647134780883789,0.16659140586853027,-0.1687438189983368
1683135812115825200,0.6268251953125,-0.03616046905517578,-0.02440035343170166,0.22861367464065552
1683135812133665300,0.644665283203125,0.04971122741699219,0.3095979690551758,-0.1312795877456665
1683135812151505700,0.662505615234375,-0.09157657623291016,-0.14651918411254883,0.09482911229133606
1683135812169344000,0.680343994140625,0.055106163024902344,0.24744927883148193,-0.027552448213100433
1683135812187182300,0.698182373046875,-0.1042184829711914,0.046486616134643555,0.013240277767181396
1683135812205021400,0.716021484375,0.12961864471435547,0.17700040340423584,0.08943910151720047
1683135812222860500,0.733860595703125,-0.09067726135253906,0.12325692176818848,-0.10222397744655609
1683135812240698400,0.751698486328125,0.02394866943359375,0.02673935890197754,0.1945207417011261
1683135812258537500,0.769537353515625,0.02945709228515625,0.2566244602203369,-0.18263228237628937
1683135812276375800,0.787375732421875,-0.0813589096069336,-0.13892662525177002,0.15991391241550446
1683135812294215000,0.80521484375,0.06400012969970703,0.29485344886779785,-0.07841145992279053
1683135812312053000,0.823052978515625,-0.0679769515991211,-0.04766082763671875,0.0908631682395935
1683135812329888300,0.84088818359375,0.0771484375,0.2302861213684082,0.012867741286754608
1683135812347734300,0.858734375,-0.08350181579589844,0.08628129959106445,-0.028596319258213043
1683135812365571000,0.876571044921875,0.059638023376464844,0.09855133295059204,0.18231327831745148
1683135812383401200,0.894401123046875,-0.033562660217285156,0.23020994663238525,-0.14539074897766113
1683135812401246500,0.91224658203125,-0.019802093505859375,-0.10532748699188232,0.19987069070339203
1683135812419084800,0.930084716796875,0.057860374450683594,0.30385100841522217,-0.15628305077552795
1683135812436924000,0.947923828125,-0.07543182373046875,-0.047947049140930176,0.13792645931243896
1683135812454757600,0.965757568359375,0.09208488464355469,0.2264091968536377,-0.06946217268705368
1683135812472601000,0.98360107421875,-0.050506591796875,0.04127788543701172,0.055656079202890396
1683135812490440000,1.00143994140625,0.032446861267089844,0.21417099237442017,0.07723575085401535
1683135812508277500,1.019277587890625,-0.058536529541015625,0.1439422369003296,-0.130036860704422
1683135812526117400,1.037117431640625,0.014424324035644531,-0.04043090343475342,0.205879807472229
1683135812543956700,1.054956787109375,0.017765045166015625,0.29749226570129395,-0.165313720703125
1683135812561794600,1.072794677734375,-0.049350738525390625,-0.07082271575927734,0.1862991601228714
1683135812579633700,1.090633544921875,0.05493736267089844,0.28548550605773926,-0.1063496544957161
1683135812597471500,1.108471435546875,-0.10854625701904297,0.012515664100646973,0.12715497612953186
1683135812615310600,1.126310546875,0.020913124084472656,0.28558796644210815,0.00017756223678588867
1683135812633138700,1.144138671875,-0.043089866638183594,0.07765424251556396,-0.07077518105506897
1683135812650988800,1.16198876953125,0.047453880310058594,0.02135324478149414,0.15527744591236115
1683135812668823000,1.179822998046875,-0.08171272277832031,0.24029290676116943,-0.19324198365211487
1683135812686668300,1.197668212890625,-0.02426433563232422,-0.04141879081726074,0.20226794481277466
1683135812704499000,1.2154990234375,0.060744285583496094,0.28886985778808594,-0.1824088990688324
1683135812722343000,1.233343017578125,-0.09644794464111328,-0.0397038459777832,0.19319310784339905
1683135812740180700,1.2511806640625,0.03238868713378906,0.30310702323913574,-0.06415946781635284
1683135812758016500,1.2690166015625,-0.037932395935058594,-0.030165672302246094,0.004214778542518616
1683135812775857000,1.28685693359375,0.03119373321533203,0.14714157581329346,0.12296036630868912
1683135812793697300,1.304697265625,-0.12185001373291016,0.1916499137878418,-0.15914158523082733
1683135812811535400,1.322535400390625,0.04829120635986328,-0.020904183387756348,0.20402991771697998
1683135812829362200,1.340362060546875,-0.0054683685302734375,0.2585880756378174,-0.21485522389411926
1683135812847216000,1.358216064453125,-0.11737918853759766,-0.02585780620574951,0.22327779233455658
1683135812865052000,1.376052001953125,0.05116558074951172,0.3414825201034546,-0.14275413751602173
1683135812882887000,1.393886962890625,-0.03106212615966797,-0.05827021598815918,0.07903745770454407
1683135812900732000,1.41173193359375,-0.015108108520507812,0.23563063144683838,0.05646490305662155
1683135812918567400,1.4295673828125,-0.09848308563232422,0.0980762243270874,-0.1289098709821701
1683135812936406500,1.447406494140625,0.09534454345703125,0.017365574836730957,0.17789578437805176
1683135812954232600,1.465232666015625,-0.054923057556152344,0.23140186071395874,-0.19057907164096832
1683135812972083700,1.483083740234375,-0.06969642639160156,-0.013516783714294434,0.2340889871120453
1683135812989919200,1.500919189453125,0.02628803253173828,0.33113235235214233,-0.18595126271247864
1683135813007764000,1.518763916015625,-0.06086254119873047,-0.11816942691802979,0.12443022429943085
1683135813025594400,1.536594482421875,0.013628959655761719,0.26521754264831543,-0.015127554535865784
1683135813043437800,1.554437744140625,-0.08749675750732422,0.03907787799835205,-0.08217580616474152
1683135813061268700,1.572268798828125,0.07183170318603516,0.0701906681060791,0.1411011517047882
1683135813079115300,1.590115234375,-0.1417560577392578,0.20931684970855713,-0.19964006543159485
1683135813096954000,1.6079541015625,0.027240753173828125,0.016946911811828613,0.22363100945949554
1683135813114794000,1.6257939453125,0.06784725189208984,0.2909894585609436,-0.18848219513893127
1683135813132630300,1.64363037109375,-0.06537342071533203,-0.1275796890258789,0.1782764047384262
1683135813150469000,1.66146923828125,-0.010643959045410156,0.331636905670166,-0.08593817055225372
1683135813168304600,1.6793046875,-0.08551311492919922,-0.03711366653442383,-0.0038666129112243652
1683135813186148000,1.697148193359375,0.07308483123779297,0.14469611644744873,0.1017656996846199
1683135813203984600,1.714984619140625,-0.13484859466552734,0.17248207330703735,-0.14212647080421448
1683135813221826300,1.732826416015625,0.09279060363769531,0.026584148406982422,0.20132514834403992
1683135813239663000,1.7506630859375,-0.02213764190673828,0.2330869436264038,-0.20769710838794708
1683135813257504300,1.768504150390625,-0.08762836456298828,-0.07410323619842529,0.20087593793869019
1683135813275343600,1.786343505859375,0.04277324676513672,0.3250693082809448,-0.12025680392980576
1683135813293176600,1.804176513671875,-0.047405242919921875,-0.09968972206115723,0.05614721029996872
1683135813311017700,1.822017822265625,0.05142498016357422,0.17929869890213013,0.03950876370072365
1683135813328854000,1.83985400390625,-0.15529918670654297,0.11531305313110352,-0.0979125052690506
1683135813346686700,1.857686767578125,0.11836814880371094,0.09307092428207397,0.16867142915725708
1683135813364534300,1.8755341796875,-0.05839729309082031,0.18233990669250488,-0.17546266317367554
1683135813382372400,1.893372314453125,-0.030837059020996094,-0.02155601978302002,0.23220160603523254
1683135813400211200,1.911211181640625,0.058554649353027344,0.32174819707870483,-0.15200674533843994
1683135813418050300,1.92905029296875,-0.08356189727783203,-0.1223442554473877,0.10200734436511993
1683135813435889000,1.946888916015625,0.03491973876953125,0.25281524658203125,-0.04241737723350525
1683135813453727000,1.96472705078125,-0.09650897979736328,0.024610400199890137,-0.008581884205341339
1683135813471548000,1.9825478515625,0.12718868255615234,0.1498926877975464,0.10719742625951767
1683135813489406000,2.000406005859375,-0.09690570831298828,0.13975369930267334,-0.14838580787181854
1683135813507243800,2.018243896484375,0.008545875549316406,0.031552910804748535,0.21807649731636047
1683135813525079300,2.036079345703125,0.04262256622314453,0.2753943204879761,-0.16590014100074768
1683135813542922800,2.0539228515625,-0.09265804290771484,-0.14503705501556396,0.14673000574111938
1683135813560759000,2.071759033203125,0.047606468200683594,0.29205137491226196,-0.07033070176839828
1683135813578598400,2.089598388671875,-0.06311321258544922,-0.015839219093322754,0.05338648706674576
1683135813596426500,2.107426513671875,0.10236358642578125,0.20386135578155518,0.031698621809482574
1683135813614275300,2.125275390625,-0.10696125030517578,0.10308837890625,-0.06533370912075043
1683135813632114000,2.143114013671875,0.06524848937988281,0.06511962413787842,0.19132250547409058
1683135813649950200,2.1609501953125,-0.0008993148803710938,0.23254179954528809,-0.17567217350006104
1683135813667794200,2.178794189453125,-0.05051136016845703,-0.11089515686035156,0.19044166803359985
1683135813685611500,2.196611572265625,0.058948516845703125,0.2924332618713379,-0.11358755081892014
1683135813703468300,2.21446826171875,-0.08075809478759766,-0.053786635398864746,0.10283902287483215
1683135813721303300,2.23230322265625,0.06746959686279297,0.21687722206115723,-0.023718059062957764
1683135813739145700,2.250145751953125,-0.09383392333984375,0.05935466289520264,0.0014363974332809448
1683135813756983800,2.26798388671875,0.0356292724609375,0.17482304573059082,0.12138538062572479
1683135813774824200,2.28582421875,-0.03181934356689453,0.16499561071395874,-0.13678643107414246
1683135813792665300,2.303665283203125,-0.0073089599609375,-0.09638500213623047,0.2043057382106781
1683135813810497000,2.3214970703125,0.022462844848632812,0.29411429166793823,-0.1491779386997223
1683135813828341200,2.33934130859375,-0.07225322723388672,-0.09412384033203125,0.14933061599731445
1683135813846178600,2.357178466796875,0.07413387298583984,0.24110853672027588,-0.08810829371213913
1683135813864016600,2.3750166015625,-0.0769662857055664,0.02836477756500244,0.0956890732049942
1683135813881855000,2.39285498046875,0.029234886169433594,0.22824621200561523,0.05588468909263611
1683135813899690800,2.410690673828125,-0.08395576477050781,0.11133813858032227,-0.10777316987514496
1683135813917535200,2.42853515625,0.04442787170410156,-0.030735254287719727,0.18118727207183838
1683135813935371300,2.446371337890625,0.0010280609130859375,0.2704325318336487,-0.17758920788764954
1683135813953197300,2.464197265625,-0.04014396667480469,-0.07977509498596191,0.19148631393909454
1683135813971048000,2.4820478515625,0.048455238342285156,0.27085065841674805,-0.12464743852615356
1683135813988887300,2.49988720703125,-0.11532211303710938,-0.0019975900650024414,0.16143137216567993
1683135814006726000,2.517725830078125,0.02230358123779297,0.2763415575027466,-0.031292930245399475
1683135814024564200,2.535564208984375,-0.01620006561279297,0.017067909240722656,-0.008903302252292633
1683135814042402800,2.55340283203125,0.026825904846191406,0.08601444959640503,0.1383037269115448
1683135814060241400,2.571241455078125,-0.1112985610961914,0.19269299507141113,-0.16382309794425964
1683135814078080300,2.589080322265625,0.015438079833984375,-0.05722808837890625,0.19956433773040771
1683135814095918600,2.606918701171875,0.016040802001953125,0.2796250581741333,-0.20807130634784698
1683135814113753000,2.624753173828125,-0.07905864715576172,-0.02139294147491455,0.21573525667190552
1683135814131596300,2.64259619140625,0.0438690185546875,0.2992743253707886,-0.09010603278875351
1683135814149435100,2.66043505859375,-0.04691123962402344,-0.05056798458099365,0.038063324987888336
1683135814167273000,2.67827294921875,-0.011124610900878906,0.2054818868637085,0.09267912060022354
1683135814185112000,2.696112060546875,-0.09850692749023438,0.14389634132385254,-0.13917452096939087
1683135814202937300,2.713937255859375,0.06545734405517578,-0.026565909385681152,0.20190943777561188
1683135814220789800,2.731789794921875,-0.02592182159423828,0.23329532146453857,-0.1952909231185913
1683135814238627000,2.749626953125,-0.11534309387207031,-0.027982592582702637,0.22212904691696167
1683135814256468200,2.76746826171875,0.020707130432128906,0.331743061542511,-0.19325879216194153
1683135814274305800,2.785305908203125,-0.03832530975341797,-0.0902475118637085,0.13219469785690308
1683135814292144400,2.803144287109375,-0.0033550262451171875,0.2837614417076111,0.025521978735923767
1683135814309979400,2.8209794921875,-0.09772396087646484,0.04983925819396973,-0.1140863224864006
1683135814327824600,2.83882470703125,0.07151508331298828,0.0498354434967041,0.17820557951927185
1683135814345660400,2.856660400390625,-0.1150503158569336,0.20934230089187622,-0.2065739780664444
1683135814363499500,2.87449951171875,0.010920524597167969,0.012906074523925781,0.24555358290672302
1683135814381337600,2.892337646484375,0.06850147247314453,0.2933610677719116,-0.1910872757434845
1683135814399176400,2.910176513671875,-0.07228660583496094,-0.11892545223236084,0.17212826013565063
1683135814417014300,2.92801416015625,-0.013486862182617188,0.3318278193473816,-0.06598617881536484
1683135814434850000,2.94585009765625,-0.08953571319580078,-0.015163064002990723,-0.022665493190288544
1683135814452688400,2.9636884765625,0.05161285400390625,0.09133589267730713,0.11587812006473541
1683135814470531300,2.98153125,-0.1542520523071289,0.1843564510345459,-0.17234990000724792
1683135814488359700,2.999359619140625,0.06982612609863281,0.027369260787963867,0.20517560839653015
1683135814506209800,3.017209716796875,-0.0196990966796875,0.2561987638473511,-0.21760441362857819
1683135814524043800,3.035043701171875,-0.0763711929321289,-0.10989642143249512,0.2058229297399521
1683135814541886000,3.052885986328125,0.015938758850097656,0.33431094884872437,-0.11532796174287796
1683135814559726000,3.07072607421875,-0.05852508544921875,-0.08946144580841064,0.04548914358019829
1683135814577564400,3.088564453125,0.04688549041748047,0.17113935947418213,0.06296391040086746
1683135814595387600,3.1063876953125,-0.14650344848632812,0.12313210964202881,-0.11249609291553497
1683135814613228300,3.124228271484375,0.1465587615966797,0.03269398212432861,0.16468986868858337
1683135814631082000,3.14208203125,-0.053600311279296875,0.18645668029785156,-0.18884822726249695
1683135814648918500,3.15991845703125,-0.06024646759033203,-0.035559654235839844,0.20436351001262665
1683135814666756400,3.17775634765625,0.04181957244873047,0.32256782054901123,-0.16033536195755005
1683135814684594400,3.195594482421875,-0.07643985748291016,-0.13726067543029785,0.08785419166088104
1683135814702433500,3.21343359375,0.022039413452148438,0.2350696325302124,-0.025706425309181213
1683135814720273000,3.23127294921875,-0.10087013244628906,0.026047348976135254,-0.017504625022411346
1683135814738110500,3.2491103515625,0.112152099609375,0.11185085773468018,0.13499948382377625
1683135814755935700,3.266935791015625,-0.1055135726928711,0.14551979303359985,-0.16508418321609497
1683135814773776600,3.284776611328125,-0.006854057312011719,0.010877251625061035,0.22149088978767395
1683135814791616500,3.302616455078125,0.03396320343017578,0.2735176086425781,-0.16404038667678833
1683135814809455900,3.320455810546875,-0.09816646575927734,-0.1674865484237671,0.12393970787525177
1683135814827305500,3.338305419921875,0.037484169006347656,0.2685163617134094,-0.07699336856603622
1683135814845143300,3.356143310546875,-0.0844888687133789,-0.010852813720703125,0.023939132690429688
1683135814862982000,3.37398193359375,0.10834121704101562,0.1904606819152832,0.05390781909227371
1683135814880819200,3.391819091796875,-0.11320877075195312,0.09029185771942139,-0.07615865767002106
1683135814898660400,3.409660400390625,0.06671714782714844,0.05867493152618408,0.19236606359481812
1683135814916498200,3.427498291015625,0.0034885406494140625,0.22304916381835938,-0.172629714012146
1683135814934337300,3.445337158203125,-0.07134342193603516,-0.1280968189239502,0.2063574641942978
1683135814952174600,3.463174560546875,0.0653085708618164,0.2875629663467407,-0.10585076361894608
1683135814970011000,3.481010986328125,-0.08206367492675781,-0.07336926460266113,0.09409605711698532
1683135814987855600,3.498855712890625,0.059345245361328125,0.20586860179901123,-0.01778208464384079
1683135815005691600,3.516691650390625,-0.09348583221435547,0.05300331115722656,-0.017782017588615417
1683135815023529500,3.534529541015625,0.06037712097167969,0.15430736541748047,0.12919387221336365
1683135815041366800,3.55236669921875,-0.039412498474121094,0.15664780139923096,-0.14924442768096924
1683135815059209200,3.570209228515625,-0.02158832550048828,-0.11062812805175781,0.21220111846923828
1683135815077032200,3.5880322265625,0.016884803771972656,0.2954280376434326,-0.154215469956398
1683135815094872300,3.605872314453125,-0.08037090301513672,-0.10011672973632812,0.15828749537467957
1683135815112715000,3.623715087890625,0.07084465026855469,0.23348450660705566,-0.08237110823392868
1683135815130550300,3.64155029296875,-0.0695486068725586,0.02419579029083252,0.10077881813049316
1683135815148391000,3.659390869140625,0.031826019287109375,0.230432391166687,0.04934938997030258
1683135815166230000,3.67722998046875,-0.08793258666992188,0.09410107135772705,-0.10334409773349762
1683135815184068000,3.695068115234375,0.022638320922851562,-0.03715813159942627,0.18412649631500244
1683135815201908500,3.712908447265625,-0.024987220764160156,0.24561536312103271,-0.18199104070663452
1683135815219742500,3.730742431640625,-0.04620170593261719,-0.09164953231811523,0.191164031624794
1683135815237583000,3.7485830078125,0.04661273956298828,0.27629321813583374,-0.1366642564535141
1683135815255421200,3.766421142578125,-0.11950874328613281,-0.01721060276031494,0.16225525736808777
1683135815273259800,3.784259765625,0.021981239318847656,0.26560431718826294,-0.03966939449310303
1683135815291104500,3.8021044921875,-0.03187847137451172,0.0003311634063720703,0.008786194026470184
1683135815308943000,3.819943115234375,0.017086029052734375,0.08946895599365234,0.14803895354270935
1683135815326779000,3.83777880859375,-0.12385177612304688,0.18376106023788452,-0.1630086749792099
1683135815344615700,3.85561572265625,0.00045013427734375,-0.07439780235290527,0.19148379564285278
1683135815362465300,3.87346533203125,-0.0021581649780273438,0.26825904846191406,-0.2181105613708496
1683135815380303400,3.891303466796875,-0.07587718963623047,-0.033284783363342285,0.22260653972625732
1683135815398142500,3.909142578125,0.044086456298828125,0.29637253284454346,-0.09715981036424637
1683135815415978000,3.92697802734375,-0.049902915954589844,-0.05800735950469971,0.06088712066411972
1683135815433821000,3.944821044921875,-0.01896190643310547,0.21531540155410767,0.08247819542884827
1683135815451659000,3.962658935546875,-0.10127735137939453,0.10850071907043457,-0.13511690497398376
1683135815469498000,3.980498046875,0.06589889526367188,-0.03248131275177002,0.19970571994781494
1683135815487336000,3.9983359375,-0.0428619384765625,0.22553199529647827,-0.18097716569900513
1683135815505174800,4.0161748046875,-0.1082906723022461,-0.029935598373413086,0.21786567568778992
1683135815523008300,4.03400830078125,0.023630142211914062,0.31004852056503296,-0.1883464902639389
1683135815540851700,4.051851806640625,-0.057498931884765625,-0.09929513931274414,0.14859682321548462
1683135815558690800,4.06969091796875,-0.01626300811767578,0.2752307653427124,0.008319646120071411
1683135815576530000,4.087530029296875,-0.07985591888427734,0.025742411613464355,-0.09183962643146515
1683135815594367200,4.1053671875,0.06385993957519531,0.04545480012893677,0.15848812460899353
1683135815612206600,4.12320654296875,-0.13436031341552734,0.18591320514678955,-0.20033138990402222
1683135815630042000,4.1410419921875,0.015431404113769531,-0.00812220573425293,0.23429474234580994
1683135815647887000,4.15888720703125,0.07099723815917969,0.2745441198348999,-0.1940007358789444
1683135815665722400,4.176722412109375,-0.07461261749267578,-0.12787723541259766,0.1809849739074707
1683135815683561200,4.194561279296875,-0.021697044372558594,0.3292196989059448,-0.08533768355846405
1683135815701399800,4.21239990234375,-0.08150100708007812,-0.048847198486328125,-0.011766508221626282
1683135815719238700,4.23023876953125,0.04136085510253906,0.10730242729187012,0.11070376634597778
1683135815737077200,4.2480771484375,-0.15332508087158203,0.1605449914932251,-0.15807272493839264
1683135815754915800,4.265915771484375,0.08976364135742188,0.018906235694885254,0.2140001505613327
1683135815772751600,4.283751708984375,-0.013568878173828125,0.21846413612365723,-0.20733526349067688
1683135815790593800,4.30159375,-0.07364273071289062,-0.08900690078735352,0.2286420613527298
1683135815808432600,4.3194326171875,0.025150299072265625,0.31691670417785645,-0.12298465520143509
1683135815826271000,4.33727099609375,-0.06749153137207031,-0.12295567989349365,0.06015839800238609
1683135815844102000,4.355101806640625,0.021699905395507812,0.17022132873535156,0.03105214238166809
1683135815861939700,4.372939697265625,-0.145721435546875,0.09662723541259766,-0.11407003551721573
1683135815879786500,4.390786376953125,0.131439208984375,0.044663429260253906,0.1491565704345703
1683135815897625600,4.40862548828125,-0.07143878936767578,0.1713796854019165,-0.18709033727645874
1683135815915464400,4.42646435546875,-0.038451194763183594,-0.03170132637023926,0.22620511054992676
1683135815933291800,4.444291748046875,0.04119586944580078,0.3049064874649048,-0.1507197618484497
1683135815951141400,4.462141357421875,-0.09051322937011719,-0.159079909324646,0.10809376090765
1683135815968979500,4.4799794921875,0.01978015899658203,0.24461102485656738,-0.03741771727800369
1683135815986808300,4.497808349609375,-0.09415435791015625,0.0006204843521118164,-0.006248749792575836
1683135816004658200,4.515658203125,0.11413002014160156,0.09741806983947754,0.11526850610971451
1683135816022496500,4.53349658203125,-0.11902236938476562,0.13931405544281006,-0.16608116030693054
1683135816040335600,4.551335693359375,0.011781692504882812,0.009319186210632324,0.20657001435756683
1683135816058174000,4.569174072265625,0.028451919555664062,0.25397151708602905,-0.180306077003479
1683135816076008400,4.587008544921875,-0.1093130111694336,-0.1574345827102661,0.14314961433410645
1683135816093851100,4.60485107421875,0.03785514831542969,0.25900983810424805,-0.06934706121683121
1683135816111690200,4.622690185546875,-0.07913398742675781,-0.046745896339416504,0.04353717342019081
1683135816129528600,4.640528564453125,0.10709762573242188,0.18856585025787354,0.03930068761110306
1683135816147367700,4.65836767578125,-0.10851860046386719,0.0649183988571167,-0.058414436876773834
1683135816165201400,4.676201416015625,0.07319259643554688,0.047470927238464355,0.1870000660419464
1683135816183044900,4.694044921875,-0.018207550048828125,0.19296252727508545,-0.17954327166080475
1683135816200883500,4.711883544921875,-0.07490348815917969,-0.12703895568847656,0.19144690036773682
1683135816218721000,4.729720947265625,0.047951698303222656,0.2866100072860718,-0.11941350996494293
1683135816236561700,4.747561767578125,-0.08465099334716797,-0.09993469715118408,0.0972188338637352
1683135816254387000,4.765386962890625,0.051219940185546875,0.19853997230529785,-0.027091123163700104
1683135816272238600,4.783238525390625,-0.1003561019897461,0.0430675745010376,-0.0031751692295074463
1683135816290074600,4.80107470703125,0.056944847106933594,0.15680336952209473,0.12628814578056335
1683135816307918300,4.81891845703125,-0.03892326354980469,0.1463547945022583,-0.14374372363090515
1683135816325754600,4.836754638671875,-0.019834518432617188,-0.10824966430664062,0.210286945104599
1683135816343593200,4.85459326171875,0.014304161071777344,0.2899678945541382,-0.16237658262252808
1683135816361432000,4.87243212890625,-0.0890350341796875,-0.12440848350524902,0.1711161583662033
1683135816379271000,4.89027099609375,0.05588245391845703,0.21709489822387695,-0.09593750536441803
1683135816397106200,4.908106201171875,-0.0759744644165039,0.0113142728805542,0.1079302579164505
1683135816414943700,4.92594384765625,0.031341552734375,0.2075120210647583,0.03706616163253784
1683135816432781000,4.943781005859375,-0.09402179718017578,0.07648134231567383,-0.0990876629948616
1683135816450628400,4.96162841796875,0.034195899963378906,-0.031290292739868164,0.184664785861969
1683135816468466000,4.9794658203125,-0.011575698852539062,0.24472582340240479,-0.18162547051906586
1683135816486296600,4.997296630859375,-0.0449981689453125,-0.12014222145080566,0.20993927121162415
1683135816504142300,5.015142333984375,0.031864166259765625,0.2666945457458496,-0.13188976049423218
1683135816521973200,5.03297314453125,-0.11760520935058594,-0.02533137798309326,0.17056092619895935
1683135816539818200,5.050818359375,0.02058887481689453,0.2610812187194824,-0.0424899160861969
1683135816557656300,5.06865625,-0.034056663513183594,-0.015170931816101074,0.004394493997097015
1683135816575498500,5.08649853515625,0.008457183837890625,0.07940566539764404,0.13739386200904846
1683135816593341200,5.104341064453125,-0.10708045959472656,0.17060136795043945,-0.17024752497673035
1683135816611172900,5.1221728515625,-0.004192352294921875,-0.0847703218460083,0.19584929943084717
1683135816629014000,5.140013916015625,-0.015225410461425781,0.2604633569717407,-0.206598162651062
1683135816646846000,5.157845947265625,-0.07627677917480469,-0.05999720096588135,0.2205696403980255
1683135816664685600,5.175685546875,0.04757499694824219,0.2798699140548706,-0.10441650450229645
1683135816682533400,5.193533447265625,-0.054241180419921875,-0.06994378566741943,0.06770646572113037
1683135816700366300,5.211366455078125,-0.01654338836669922,0.19999337196350098,0.0672135129570961
1683135816718206500,5.22920654296875,-0.10513877868652344,0.08692467212677002,-0.13980405032634735
1683135816736041000,5.247041015625,0.0484161376953125,-0.05249130725860596,0.19531147181987762
1683135816753884000,5.2648837890625,-0.03716850280761719,0.21406733989715576,-0.19116955995559692
1683135816771728600,5.282728759765625,-0.11094188690185547,-0.0528256893157959,0.2223266065120697
1683135816789561600,5.3005615234375,0.011585235595703125,0.2894340753555298,-0.1860668957233429
1683135816807397000,5.318397216796875,-0.056450843811035156,-0.09798574447631836,0.14659792184829712
1683135816825241000,5.336240966796875,-0.026213645935058594,0.2637443542480469,0.012187391519546509
1683135816843077400,5.354077392578125,-0.08485698699951172,0.016630172729492188,-0.0891198217868805
1683135816860915000,5.3719150390625,0.04871082305908203,0.034606993198394775,0.1600012183189392
1683135816878755600,5.389755615234375,-0.13383769989013672,0.1818692684173584,-0.20563703775405884
1683135816896597000,5.407596923828125,0.018218994140625,-0.017824769020080566,0.24048131704330444
1683135816914420700,5.425420654296875,0.05688667297363281,0.268782377243042,-0.18349063396453857
1683135816932268500,5.4432685546875,-0.08220195770263672,-0.1421034336090088,0.1909029185771942
1683135816950113300,5.46111328125,-0.023656845092773438,0.32918649911880493,-0.08079604059457779
1683135816967947300,5.478947265625,-0.09019660949707031,-0.06662547588348389,-0.009119272232055664
1683135816985787100,5.496787109375,0.035857200622558594,0.0908154845237732,0.10584430396556854
1683135817003626000,5.5146259765625,-0.16193103790283203,0.14821875095367432,-0.16509874165058136
1683135817021464300,5.53246435546875,0.09012508392333984,0.005659937858581543,0.20681160688400269
1683135817039303700,5.5503037109375,-0.015418052673339844,0.21789538860321045,-0.2170886993408203
1683135817057142500,5.568142578125,-0.08750152587890625,-0.11874449253082275,0.2297976315021515
1683135817074981400,5.5859814453125,0.0073413848876953125,0.3199635148048401,-0.13400408625602722
1683135817092815000,5.603815185546875,-0.04465770721435547,-0.1190793514251709,0.061675310134887695
1683135817110658300,5.621658203125,0.01045989990234375,0.1715679168701172,0.04058021306991577
1683135817128482000,5.63948193359375,-0.15431880950927734,0.08658969402313232,-0.10701818019151688
1683135817146338800,5.6573388671875,0.14087677001953125,0.02475154399871826,0.1572147011756897
1683135817164174000,5.675174072265625,-0.08104133605957031,0.16157257556915283,-0.19017352163791656
1683135817182012200,5.69301220703125,-0.06029033660888672,-0.04011547565460205,0.22595568001270294
1683135817199853300,5.710853271484375,0.039531707763671875,0.3024728298187256,-0.16907568275928497
1683135817217690400,5.7286904296875,-0.07738780975341797,-0.18361163139343262,0.11963731795549393
1683135817235530200,5.7465302734375,0.0036764144897460938,0.22141766548156738,-0.039020344614982605
1683135817253363700,5.76436376953125,-0.09908294677734375,-0.00792074203491211,-0.01672307401895523
1683135817271207000,5.78220703125,0.11389636993408203,0.08857131004333496,0.11612004786729813
1683135817289046000,5.8000458984375,-0.1329183578491211,0.1347813606262207,-0.1693807691335678
1683135817306883800,5.8178837890625,0.015446662902832031,-0.012883782386779785,0.21480834484100342
1683135817324723500,5.835723388671875,0.02482128143310547,0.22386890649795532,-0.17719516158103943
1683135817342560000,5.85356005859375,-0.10752391815185547,-0.16984570026397705,0.15586888790130615
1683135817360403500,5.871403564453125,0.030414581298828125,0.2689990997314453,-0.08056066930294037
1683135817378238000,5.889238037109375,-0.07628250122070312,-0.05099773406982422,0.02727290242910385
1683135817396079000,5.9070791015625,0.10794830322265625,0.17005908489227295,0.04181183874607086
1683135817413917200,5.924917236328125,-0.11771965026855469,0.06300222873687744,-0.06930918246507645
1683135817431756000,5.942756103515625,0.07300662994384766,0.023894548416137695,0.18846571445465088
1683135817449594400,5.960594482421875,-0.01594257354736328,0.1920555830001831,-0.18235038220882416
1683135817467430000,5.978429931640625,-0.07518863677978516,-0.15417122840881348,0.20243674516677856
1683135817485274600,5.996274658203125,0.0557708740234375,0.2705429792404175,-0.10836592316627502
1683135817503105800,6.014105712890625,-0.08929824829101562,-0.11590301990509033,0.09374231100082397
1683135817520948700,6.03194873046875,0.05000591278076172,0.1733185052871704,-0.02183607965707779
1683135817538787800,6.049787841796875,-0.10941123962402344,0.016243696212768555,-0.009335353970527649
1683135817556627000,6.067626953125,0.06694507598876953,0.13402044773101807,0.12311194092035294
1683135817574454300,6.085454345703125,-0.046853065490722656,0.13375866413116455,-0.13383272290229797
1683135817592300800,6.10330078125,-0.02069091796875,-0.12468886375427246,0.20544910430908203
1683135817610146000,6.12114599609375,0.0039215087890625,0.26640838384628296,-0.1602584421634674
1683135817627981600,6.138981689453125,-0.09412765502929688,-0.1548609733581543,0.1497756689786911
1683135817645821000,6.156821044921875,0.0573883056640625,0.2186288833618164,-0.07910551130771637
1683135817663658800,6.17465869140625,-0.07359981536865234,0.0033735036849975586,0.10475742816925049
1683135817681498000,6.192498046875,0.0257720947265625,0.19870436191558838,0.04705211520195007
1683135817699337000,6.2103369140625,-0.09799766540527344,0.08699774742126465,-0.10394386947154999
1683135817717175800,6.22817578125,0.020048141479492188,-0.054700374603271484,0.19062097370624542
1683135817735014100,6.24601416015625,-0.019616127014160156,0.22918784618377686,-0.18940970301628113
1683135817752852700,6.263852783203125,-0.048073768615722656,-0.12189912796020508,0.1858343780040741
1683135817770679800,6.2816796875,0.041245460510253906,0.26071804761886597,-0.12969428300857544
1683135817788530700,6.29953076171875,-0.11710262298583984,-0.043296098709106445,0.15955893695354462
1683135817806369300,6.317369384765625,0.027309417724609375,0.2333611249923706,-0.04368296265602112
1683135817824196000,6.335196044921875,-0.023641586303710938,-0.016636133193969727,0.0007648468017578125
1683135817842047500,6.353047607421875,0.015748023986816406,0.07148444652557373,0.13131660223007202
1683135817859882200,6.37088232421875,-0.12242603302001953,0.1523228883743286,-0.16979755461215973
1683135817877727000,6.38872705078125,-0.013466835021972656,-0.10186266899108887,0.2037702202796936
1683135817895558100,6.40655810546875,-0.005185127258300781,0.2479771375656128,-0.20356863737106323
1683135817913402000,6.424402099609375,-0.06592655181884766,-0.0745694637298584,0.2336558997631073
1683135817931241000,6.442240966796875,0.07271575927734375,0.23328256607055664,-0.1238802969455719
1683135817949077800,6.460077880859375,-0.041473388671875,0.05126655101776123,-0.04551871865987778
1683135817966905000,6.477905029296875,-0.037018775939941406,0.3993455767631531,-0.09870491176843643
1683135817984759800,6.495759765625,-0.1289234161376953,0.026207804679870605,-0.05909033864736557
1683135818002595600,6.513595703125,-0.0060482025146484375,-0.003547191619873047,0.2331191599369049
1683135818020434000,6.531433837890625,-0.05281829833984375,-0.048116087913513184,0.030073203146457672
1683135818038272800,6.549272705078125,-0.07444477081298828,-0.1329364776611328,0.25825685262680054
1683135818056112600,6.567112548828125,0.0698232650756836,0.11054754257202148,-0.10209721326828003
1683135818073951200,6.584951171875,-0.04421234130859375,-0.0022739171981811523,0.02003147453069687
1683135818091786000,6.602785888671875,-0.008574485778808594,0.375555157661438,-0.16857069730758667
1683135818109618200,6.6206181640625,-0.08036327362060547,0.06759744882583618,-0.1754668951034546
1683135818127470300,6.63847021484375,-0.012866020202636719,0.22115808725357056,0.04947948455810547
1683135818145301000,6.656301025390625,-0.16846466064453125,0.02219712734222412,-0.09944489598274231
1683135818163144000,6.67414404296875,-0.021268844604492188,-0.07453322410583496,0.3088623285293579
1683135818180971300,6.69197119140625,0.03976249694824219,0.008920550346374512,0.01284424215555191
1683135818198822100,6.709822265625,-0.0623016357421875,-0.1340709924697876,0.233598530292511
1683135818216656100,6.72765625,0.036136627197265625,0.29154008626937866,-0.13064825534820557
1683135818234485000,6.745485107421875,-0.07960224151611328,-0.07877004146575928,-0.021828874945640564
1683135818252338200,6.763338134765625,0.03432464599609375,0.12226700782775879,0.057499997317790985
1683135818270166000,6.781166015625,-0.15424823760986328,0.10688996315002441,-0.1605347990989685
1683135818288019200,6.799019287109375,0.07322883605957031,-0.01687467098236084,0.18867246806621552
1683135818305854000,6.81685400390625,-0.02693462371826172,0.2098848819732666,-0.2197927087545395
1683135818323693600,6.834693603515625,-0.07231903076171875,-0.10817420482635498,0.22989365458488464
1683135818341532000,6.852531982421875,0.010889053344726562,0.3136403560638428,-0.12904608249664307
1683135818359370500,6.87037060546875,-0.06629753112792969,-0.15405738353729248,0.07351208478212357
1683135818377209900,6.8882099609375,-0.0007410049438476562,0.17839837074279785,0.045237816870212555
1683135818395048400,6.90604833984375,-0.12824249267578125,0.055562496185302734,-0.11733605712652206
1683135818412887300,6.92388720703125,0.15660953521728516,-0.026698946952819824,0.16040468215942383
1683135818430730000,6.94172998046875,-0.0545806884765625,0.12701523303985596,-0.22938883304595947
1683135818448552700,6.959552734375,-0.02983856201171875,0.17700159549713135,0.03388581424951553
1683135818466398700,6.977398681640625,0.015956878662109375,0.31697797775268555,-0.209324449300766
1683135818484239000,6.995239013671875,-0.1757211685180664,-0.022232651710510254,0.15274503827095032
1683135818502084000,7.013083984375,-0.03594017028808594,0.14817297458648682,0.049141623079776764
1683135818519919400,7.03091943359375,-0.11487293243408203,-0.2144984006881714,0.15636976063251495
1683135818537758700,7.0487587890625,0.1573648452758789,-0.0347750186920166,0.1531759798526764
1683135818555583700,7.066583740234375,-0.06167316436767578,-0.045162320137023926,-0.05601903796195984
1683135818573425000,7.0844248046875,0.07898426055908203,0.13193172216415405,0.05813613533973694
1683135818591269000,7.10226904296875,0.031632423400878906,0.25478625297546387,-0.2604983448982239
1683135818609102800,7.120102783203125,-0.1702747344970703,0.11055165529251099,0.001410938799381256
1683135818626946600,7.137946533203125,-0.02351665496826172,0.31968557834625244,-0.09095209091901779
1683135818644780000,7.155780029296875,-0.10660743713378906,-0.13287103176116943,0.08863237500190735
1683135818662618000,7.1736181640625,0.06586647033691406,0.035275816917419434,0.1576884686946869
1683135818680467500,7.191467529296875,-0.11614418029785156,-0.16250860691070557,0.10849983990192413
1683135818698298000,7.209298095703125,0.1106424331665039,0.0462152361869812,0.17201396822929382
1683135818716136000,7.227135986328125,0.036350250244140625,0.12041711807250977,-0.15749584138393402
1683135818733980700,7.244980712890625,-0.10909175872802734,-0.03536546230316162,0.12173140048980713
1683135818751811800,7.262811767578125,0.02696990966796875,0.268593430519104,-0.08271296322345734
1683135818769651200,7.280651123046875,-0.0932168960571289,-0.15247488021850586,0.08325570076704025
1683135818787491000,7.298490966796875,0.04423236846923828,0.1944226622581482,-0.02702789008617401
1683135818805341700,7.316341796875,-0.09649848937988281,-0.0010535717010498047,-0.013780079782009125
1683135818823179000,7.334178955078125,0.07486152648925781,0.1212613582611084,0.12527456879615784
1683135818841017900,7.352017822265625,-0.05377197265625,0.11760097742080688,-0.15330924093723297
1683135818858856700,7.369856689453125,-0.03882789611816406,-0.12117302417755127,0.20372232794761658
1683135818876695300,7.3876953125,0.012516021728515625,0.26206445693969727,-0.1598626971244812
1683135818894522600,7.405522705078125,-0.08392143249511719,-0.17341387271881104,0.14871260523796082
1683135818912360000,7.42335986328125,0.04889965057373047,0.22027891874313354,-0.07186947017908096
1683135818930213400,7.44121337890625,-0.07857990264892578,-0.02797091007232666,0.1027073860168457
1683135818948050200,7.45905029296875,0.02308177947998047,0.18366646766662598,0.04874169081449509
1683135818965889500,7.4768896484375,-0.10586261749267578,0.0734790563583374,-0.09569143503904343
1683135818983727900,7.494727783203125,0.012174606323242188,-0.04529702663421631,0.19531863927841187
1683135819001567200,7.512567138671875,-0.01578521728515625,0.21474719047546387,-0.1866368055343628
1683135819019405300,7.5304052734375,-0.062088966369628906,-0.1496593952178955,0.18892508745193481
1683135819037239300,7.5482392578125,0.02631092071533203,0.25343215465545654,-0.12783083319664001
1683135819055083500,7.56608349609375,-0.11078166961669922,-0.03844738006591797,0.14901447296142578
1683135819072932400,7.583932373046875,0.01528167724609375,0.21489262580871582,-0.04084720462560654
1683135819090760400,7.601760498046875,-0.036812782287597656,-0.022774100303649902,0.011670254170894623
1683135819108599800,7.619599853515625,-0.004459381103515625,0.08614122867584229,0.1371506303548813
1683135819126435800,7.637435791015625,-0.11092472076416016,0.14563524723052979,-0.16579890251159668
1683135819144280300,7.6552802734375,-0.02811145782470703,-0.13296949863433838,0.20441271364688873
1683135819162115600,7.673115478515625,-0.018027305603027344,0.2503725290298462,-0.21227304637432098
1683135819179955200,7.690955078125,-0.059594154357910156,-0.07711184024810791,0.2099008858203888
1683135819197793800,7.708793701171875,0.01846599578857422,0.261987566947937,-0.10289426892995834
1683135819215633000,7.7266328125,-0.06490516662597656,-0.08555817604064941,0.06592187285423279
1683135819233466600,7.744466552734375,-0.03404426574707031,0.1982741355895996,0.0777198001742363
1683135819251310000,7.76231005859375,-0.10016822814941406,0.07006466388702393,-0.12515230476856232
1683135819269149000,7.78014892578125,0.031432151794433594,-0.06534075736999512,0.19773027300834656
1683135819286988000,7.797988037109375,-0.07682132720947266,0.19495081901550293,-0.1990049034357071
1683135819304826000,7.815826171875,-0.09062385559082031,-0.07142961025238037,0.22175756096839905
1683135819322649600,7.833649658203125,0.014031410217285156,0.2729138135910034,-0.19370831549167633
1683135819340504300,7.85150439453125,-0.0662689208984375,-0.1123436689376831,0.16191676259040833
1683135819358341600,7.869341552734375,-0.04410362243652344,0.26664847135543823,0.0031194016337394714
1683135819376183300,7.887183349609375,-0.07322406768798828,-0.02262282371520996,-0.09441941231489182
1683135819394020600,7.9050205078125,0.03724098205566406,0.023778676986694336,0.15086424350738525
1683135819411859200,7.922859130859375,-0.14184856414794922,0.16005933284759521,-0.20535717904567719
1683135819429698800,7.94069873046875,0.028430938720703125,-0.060721635818481445,0.22097712755203247
1683135819447536400,7.958536376953125,0.023590087890625,0.2398601770401001,-0.189193457365036
1683135819465375700,7.976375732421875,-0.09769344329833984,-0.1353975534439087,0.17884761095046997
1683135819483214300,7.99421435546875,-0.03602409362792969,0.31004106998443604,-0.10582466423511505
1683135819501054200,8.01205419921875,-0.080841064453125,-0.09736156463623047,0.0014386624097824097
1683135819518891800,8.029891845703125,0.01943206787109375,0.09605777263641357,0.0982896238565445
1683135819536731000,8.04773095703125,-0.1533184051513672,0.10977411270141602,-0.170522540807724
1683135819554564900,8.06556494140625,0.10253524780273438,-0.039885759353637695,0.19687524437904358
1683135819572404000,8.083404052734375,-0.020656585693359375,0.20553505420684814,-0.2256515622138977
1683135819590247400,8.101247314453126,-0.07788658142089844,-0.10933446884155273,0.22961823642253876
1683135819608085800,8.119085693359375,0.004942893981933594,0.28906410932540894,-0.14103659987449646
1683135819625926100,8.136926025390625,-0.06530570983886719,-0.16716301441192627,0.07232718169689178
1683135819643761000,8.154760986328125,-0.0024242401123046875,0.16911530494689941,0.02431253343820572
1683135819661605400,8.17260546875,-0.12662315368652344,0.0475231409072876,-0.11985388398170471
1683135819679440600,8.190440673828125,0.12401103973388672,-0.0015501976013183594,0.13353478908538818
1683135819697269800,8.208269775390624,-0.10565185546875,0.14815187454223633,-0.19144292175769806
1683135819715119900,8.226119873046875,-0.030531883239746094,-0.04899638891220093,0.23265576362609863
1683135819732942300,8.2439423828125,0.03356170654296875,0.2761427164077759,-0.17402029037475586
1683135819750801000,8.26180078125,-0.1050577163696289,-0.1966618299484253,0.13994979858398438
1683135819768632600,8.279632568359375,-0.00046253204345703125,0.22650885581970215,-0.056648001074790955
1683135819786478000,8.29747802734375,-0.09269237518310547,-0.044815659523010254,0.002750992774963379
1683135819804313000,8.31531298828125,0.08042621612548828,0.07262349128723145,0.11052479594945908
1683135819822141000,8.333140869140625,-0.14377975463867188,0.09880167245864868,-0.16657915711402893
1683135819839991000,8.350990966796875,0.03376483917236328,-0.014432072639465332,0.19606566429138184
1683135819857830400,8.368830322265625,0.007893562316894531,0.2082080841064453,-0.1849549412727356
1683135819875664000,8.386663818359375,-0.11728954315185547,-0.1803228259086609,0.18561294674873352
1683135819893507600,8.404507568359374,0.009304046630859375,0.25639569759368896,-0.09166638553142548
1683135819911346200,8.42234619140625,-0.06200981140136719,-0.11028897762298584,0.05400564894080162
1683135819929185800,8.440185791015624,0.07468509674072266,0.14631450176239014,0.01719570904970169
1683135819947025000,8.45802490234375,-0.1107025146484375,0.043100714683532715,-0.05649547278881073
1683135819964863200,8.47586328125,0.09178829193115234,0.02847754955291748,0.17730823159217834
1683135819982698200,8.4936982421875,-0.032097816467285156,0.16803205013275146,-0.18043094873428345
1683135820000539600,8.51153955078125,-0.064910888671875,-0.14779287576675415,0.19832634925842285
1683135820018377200,8.529377197265624,0.03014087677001953,0.2659952640533447,-0.13810959458351135
1683135820036221700,8.5472216796875,-0.0967245101928711,-0.15810340642929077,0.10361898690462112
1683135820054057200,8.56505712890625,0.039437294006347656,0.16842275857925415,-0.03163062781095505
1683135820071886600,8.582886474609374,-0.10088539123535156,-0.00020802021026611328,0.019578881561756134
1683135820089734700,8.600734619140624,0.036345481872558594,0.15375202894210815,0.10577379912137985
1683135820107573500,8.618573486328126,-0.06732654571533203,0.10005247592926025,-0.12347420305013657
1683135820125412400,8.636412353515626,-0.01444244384765625,-0.11059308052062988,0.21811479330062866
1683135820143251500,8.65425146484375,-0.021780014038085938,0.23850536346435547,-0.1710219383239746
1683135820161089800,8.67208984375,-0.10241222381591797,-0.15154939889907837,0.17405898869037628
1683135820178929200,8.68992919921875,0.03290367126464844,0.2222699522972107,-0.09673790633678436
1683135820196763400,8.707763427734376,-0.08742904663085938,-0.04989302158355713,0.10483884811401367
1683135820214607400,8.725607421875,0.024381637573242188,0.19658857583999634,0.004662796854972839
1683135820232445700,8.74344580078125,-0.07728195190429688,0.03581589460372925,-0.07064953446388245
1683135820250283500,8.761283447265624,0.010462760925292969,-0.002638876438140869,0.18418601155281067
1683135820268124200,8.779124267578124,-0.07290840148925781,0.16887950897216797,-0.18887153267860413
1683135820285962500,8.79696240234375,-0.04944896697998047,-0.1572272777557373,0.20943933725357056
1683135820303800800,8.81480078125,0.034094810485839844,0.24093323945999146,-0.1481088399887085
1683135820321639000,8.832638916015625,-0.0945138931274414,-0.07069075107574463,0.17730958759784698
1683135820339480000,8.85047998046875,0.02010822296142578,0.2138403058052063,-0.07791644334793091
1683135820357318100,8.868318115234375,-0.04925251007080078,-0.07134455442428589,0.022653214633464813
1683135820375156500,8.886156494140625,0.0031223297119140625,0.12979120016098022,0.10744830965995789
1683135820392995000,8.9039951171875,-0.11025619506835938,0.1113579273223877,-0.15980151295661926
1683135820410834400,8.92183447265625,0.011816024780273438,-0.12589681148529053,0.1976037174463272
1683135820428674300,8.93967431640625,-0.058135032653808594,0.215731680393219,-0.2232626974582672
1683135820446510600,8.957510498046876,-0.08059310913085938,-0.0807654857635498,0.2198219746351242
1683135820464335400,8.97533544921875,0.035030364990234375,0.2606884837150574,-0.1380004733800888
1683135820482189600,8.993189453125,-0.05981159210205078,-0.10945248603820801,0.10644388943910599
1683135820500026000,9.011026123046875,-0.04418468475341797,0.22072124481201172,0.01478990912437439
1683135820517869800,9.028869873046874,-0.07961273193359375,0.007697999477386475,-0.11589455604553223
1683135820535706400,9.046706298828125,0.050445556640625,-0.04284578561782837,0.17270317673683167
1683135820553545200,9.064545166015625,-0.1254138946533203,0.1721804141998291,-0.18989792466163635
1683135820571382800,9.0823828125,-0.03125,-0.08426856994628906,0.22040536999702454
1683135820589211600,9.100211669921874,-0.007884979248046875,0.2614355683326721,-0.20079028606414795
1683135820607062000,9.11806201171875,-0.10626506805419922,-0.13840454816818237,0.16373366117477417
1683135820624900400,9.135900390625,-0.023934364318847656,0.2646835446357727,-0.049866341054439545
1683135820642733300,9.1537333984375,-0.051570892333984375,-0.0789375901222229,-0.04160817712545395
1683135820660580600,9.17158056640625,0.01609325408935547,0.050752997398376465,0.12357331812381744
1683135820678417000,9.1894169921875,-0.16304683685302734,0.15665441751480103,-0.18803811073303223
1683135820696256000,9.207256103515626,0.06716156005859375,-0.060090839862823486,0.20228934288024902
1683135820714095000,9.22509521484375,-0.0029230117797851562,0.22226864099502563,-0.2093583196401596
1683135820731933700,9.24293359375,-0.0816202163696289,-0.14634215831756592,0.21077732741832733
1683135820749770000,9.26077001953125,0.0003337860107421875,0.2842139005661011,-0.1315130591392517
1683135820767614200,9.2786142578125,-0.06878662109375,-0.1400526762008667,0.022257506847381592
1683135820785450500,9.296450439453125,0.026639938354492188,0.11078131198883057,0.05585888773202896
1683135820803288800,9.314288818359374,-0.13635540008544922,0.06764090061187744,-0.14379601180553436
1683135820821109500,9.332109619140626,0.10010147094726562,-0.04120355844497681,0.18194976449012756
1683135820838966500,9.349966552734376,-0.07652759552001953,0.1676730513572693,-0.21394100785255432
1683135820856806100,9.36780615234375,-0.056838035583496094,-0.08792847394943237,0.22302383184432983
1683135820874645800,9.385645751953126,0.04474449157714844,0.2599402070045471,-0.16522380709648132
1683135820892482600,9.403482666015625,-0.07768630981445312,-0.19651901721954346,0.10465290397405624
1683135820910322200,9.421322265625,0.014011383056640625,0.1705973744392395,-0.01590096205472946
1683135820928158700,9.43915869140625,-0.1264209747314453,-0.00038379430770874023,-0.06716405600309372
1683135820946002200,9.457002197265625,0.10831451416015625,0.04378467798233032,0.11756253987550735
1683135820963834000,9.474834228515626,-0.12012100219726562,0.1314947009086609,-0.17470160126686096
1683135820981678000,9.492677978515625,0.015187263488769531,-0.04824864864349365,0.23216471076011658
1683135820999517000,9.510516845703124,0.013916969299316406,0.23578131198883057,-0.19001120328903198
1683135821017355500,9.52835546875,-0.1187896728515625,-0.1924716830253601,0.14328500628471375
1683135821035195000,9.54619482421875,0.02335071563720703,0.23668760061264038,-0.072721466422081
1683135821053033200,9.564033203125,-0.07349586486816406,-0.08489209413528442,0.019536733627319336
1683135821070872000,9.5818720703125,0.07363414764404297,0.10808724164962769,0.06185922771692276
1683135821088706300,9.599706298828124,-0.11740398406982422,0.062213897705078125,-0.09867208451032639
1683135821106554400,9.617554443359374,0.06373786926269531,0.0033066272735595703,0.1855202615261078
1683135821124389000,9.63538916015625,-0.012370109558105469,0.17380225658416748,-0.2006475031375885
1683135821142213600,9.653213623046875,-0.07758903503417969,-0.17288732528686523,0.2141333520412445
1683135821160067600,9.671067626953125,0.042804718017578125,0.26215630769729614,-0.10766343772411346
1683135821177906700,9.68890673828125,-0.0761709213256836,-0.14651364088058472,0.08216850459575653
1683135821195744300,9.706744140625,0.03957843780517578,0.1497545838356018,-0.010557174682617188
1683135821213570600,9.724570556640625,-0.1019287109375,0.01253288984298706,-0.032070569694042206
1683135821231422000,9.742421875,0.09864044189453125,0.07805377244949341,0.14275091886520386
1683135821249261000,9.760260986328126,-0.046996116638183594,0.112354576587677,-0.1485900580883026
1683135821267100000,9.778099853515625,-0.032001495361328125,-0.13964080810546875,0.20625635981559753
1683135821284926200,9.79592626953125,0.020467758178710938,0.24447184801101685,-0.16290077567100525
1683135821302775000,9.813775146484375,-0.08925151824951172,-0.1744672656059265,0.15299507975578308
1683135821320616400,9.831616455078125,0.046868324279785156,0.18653684854507446,-0.06496166437864304
1683135821338454500,9.84945458984375,-0.07248497009277344,-0.030670106410980225,0.08713565766811371
1683135821356291800,9.867291748046876,0.02944469451904297,0.1643349528312683,0.036461763083934784
1683135821374133000,9.885133056640624,-0.09618568420410156,0.0553242564201355,-0.111773781478405
1683135821391969000,9.902968994140625,0.015254974365234375,-0.0728299617767334,0.19145435094833374
1683135821409813000,9.92081298828125,-0.02659893035888672,0.20512646436691284,-0.1910610795021057
1683135821427651000,9.938651123046874,-0.02983379364013672,-0.16629517078399658,0.20408445596694946
1683135821445488000,9.956488037109375,0.03944873809814453,0.23612529039382935,-0.12972377240657806
1683135821463327200,9.9743271484375,-0.10367965698242188,-0.05963921546936035,0.15513134002685547
1683135821481161000,9.992160888671876,0.01712322235107422,0.20792686939239502,-0.05322246998548508
1683135821499006000,10.010005859375,-0.02893829345703125,-0.037464439868927,0.011122249066829681
1683135821516841200,10.02784130859375,0.013096809387207031,0.07907795906066895,0.1235235184431076
1683135821534681600,10.045681640625,-0.10602664947509766,0.12772268056869507,-0.18100270628929138
1683135821552521700,10.063521728515624,-0.010318756103515625,-0.12799805402755737,0.198719322681427
1683135821570361000,10.081361083984374,-0.015305519104003906,0.23157763481140137,-0.2005404233932495
1683135821588200400,10.099200439453124,-0.06056976318359375,-0.08272325992584229,0.2126648724079132
1683135821606023400,10.1170234375,0.03194236755371094,0.2588333487510681,-0.11077413707971573
1683135821623867000,10.134866943359375,-0.049736976623535156,-0.11558318138122559,0.07824934273958206
1683135821641719300,10.15271923828125,-0.04032325744628906,0.18235206604003906,0.03574718162417412
1683135821659554000,10.170553955078125,-0.0836191177368164,0.03604936599731445,-0.12150834500789642
1683135821677393700,10.1883935546875,0.05756378173828125,-0.06599622964859009,0.18261753022670746
1683135821695233000,10.20623291015625,-0.09277153015136719,0.1927773356437683,-0.18463236093521118
1683135821713068800,10.22406884765625,-0.051822662353515625,-0.08584684133529663,0.22388145327568054
1683135821730909400,10.241909423828124,0.020566940307617188,0.23956060409545898,-0.19994278252124786
1683135821748748300,10.259748291015624,-0.08402347564697266,-0.1356966495513916,0.17675530910491943
1683135821766591700,10.277591796875,-0.02344036102294922,0.2640836238861084,-0.034879423677921295
1683135821784413200,10.2954130859375,-0.05194854736328125,-0.07777190208435059,-0.056799545884132385
1683135821802260000,10.313260009765624,0.016953468322753906,0.017902910709381104,0.1351853609085083
1683135821820108000,10.33110791015625,-0.15778732299804688,0.1388738751411438,-0.1995292603969574
1683135821837944300,10.3489443359375,0.06090068817138672,-0.07676684856414795,0.2075781524181366
1683135821855778600,10.366778564453124,0.016004562377929688,0.21541690826416016,-0.20697517693042755
1683135821873621800,10.384621826171875,-0.08608150482177734,-0.1714191436767578,0.1946144998073578
1683135821891459800,10.4024599609375,-0.031594276428222656,0.2769070863723755,-0.1240973100066185
1683135821909301000,10.420301025390625,-0.056331634521484375,-0.1367148756980896,0.009406857192516327
1683135821927138800,10.438138916015625,0.03145885467529297,0.10096210241317749,0.06858241558074951
1683135821944977200,10.45597705078125,-0.1320209503173828,0.08716505765914917,-0.14329910278320312
1683135821962812700,10.473812744140625,0.13109779357910156,-0.04893440008163452,0.19623108208179474
1683135821980654000,10.491654052734376,-0.0616912841796875,0.15356045961380005,-0.2156398892402649
1683135821998496000,10.50949609375,-0.053356170654296875,-0.08832573890686035,0.22469587624073029
1683135822016330000,10.527330078125,0.056209564208984375,0.25661903619766235,-0.1630842089653015
1683135822034175200,10.54517529296875,-0.06627273559570312,-0.19162797927856445,0.10267897695302963
1683135822051997200,10.5629970703125,0.01676464080810547,0.1503150463104248,-0.00617004930973053
1683135822069839400,10.58083935546875,-0.11405563354492188,-0.002225935459136963,-0.0804007425904274
1683135822087678000,10.598677978515624,0.11695289611816406,0.02894347906112671,0.12248224765062332
1683135822105515300,10.616515380859376,-0.11046314239501953,0.1204679012298584,-0.1766764223575592
1683135822123357200,10.634357177734374,0.00576019287109375,-0.06562769412994385,0.23425410687923431
1683135822141198800,10.65219873046875,0.006487846374511719,0.22690868377685547,-0.19707272946834564
1683135822159036400,10.670036376953124,-0.11330413818359375,-0.20655709505081177,0.14415764808654785
1683135822176874500,10.68787451171875,0.027029037475585938,0.23090219497680664,-0.06971851736307144
1683135822194711800,10.7057119140625,-0.08275794982910156,-0.06458711624145508,0.01674812287092209
1683135822212549600,10.723549560546875,0.09232902526855469,0.09180140495300293,0.062262289226055145
1683135822230389000,10.741388916015625,-0.12373924255371094,0.05348634719848633,-0.11136165261268616
1683135822248228000,10.75922802734375,0.07619762420654297,-0.01861739158630371,0.19616392254829407
1683135822266069000,10.777069091796875,0.0028104782104492188,0.1697654128074646,-0.19098013639450073
1683135822283905800,10.79490576171875,-0.08405780792236328,-0.1913355588912964,0.20020988583564758
1683135822301757000,10.8127568359375,0.041922569274902344,0.2558364272117615,-0.10877536237239838
1683135822319595500,10.830595458984375,-0.07845878601074219,-0.1416616439819336,0.06373409926891327
1683135822337433000,10.84843310546875,0.03839588165283203,0.12876886129379272,-0.010671854019165039
1683135822355272700,10.866272705078124,-0.095977783203125,0.009810686111450195,-0.04090224206447601
1683135822373106200,10.884106201171875,0.08427238464355469,0.07525348663330078,0.14870691299438477
1683135822390950100,10.9019501953125,-0.02968120574951172,0.1254987120628357,-0.1614575982093811
1683135822408786200,10.9197861328125,-0.023632049560546875,-0.18207836151123047,0.21535786986351013
1683135822426631000,10.937630859375,0.035892486572265625,0.24042534828186035,-0.15038403868675232
1683135822444466400,10.955466552734375,-0.07552146911621094,-0.18992692232131958,0.14051726460456848
1683135822462305300,10.97330517578125,0.0629434585571289,0.1797071099281311,-0.07420974224805832
1683135822480145000,10.991144775390625,-0.08039093017578125,-0.025007247924804688,0.06499915570020676
1683135822497984000,11.00898388671875,0.034270286560058594,0.15059542655944824,0.05368322879076004
1683135822515822000,11.026822021484374,-0.09136295318603516,0.06667417287826538,-0.11277653276920319
1683135822533661400,11.044661376953124,0.013514518737792969,-0.10160297155380249,0.20186012983322144
1683135822551496000,11.062495849609375,-0.008654594421386719,0.20641428232192993,-0.18994298577308655
1683135822569343500,11.080343505859375,-0.05944538116455078,-0.16228723526000977,0.19878482818603516
1683135822587177500,11.098177490234375,0.039786338806152344,0.2451159954071045,-0.12643373012542725
1683135822605016800,11.116016845703125,-0.11036109924316406,-0.056918561458587646,0.14898371696472168
1683135822622851600,11.1338515625,0.021276473999023438,0.1830872893333435,-0.030830971896648407
1683135822640695000,11.151695068359375,-0.026009559631347656,-0.03750580549240112,-0.006530851125717163
1683135822658533600,11.16953369140625,0.0077056884765625,0.04515647888183594,0.1394670009613037
1683135822676369400,11.187369384765624,-0.10214805603027344,0.14511024951934814,-0.17743942141532898
1683135822694210000,11.2052099609375,-0.023850440979003906,-0.14481395483016968,0.21231622993946075
1683135822712050200,11.22305029296875,-0.016852378845214844,0.21560996770858765,-0.2034720778465271
1683135822729885700,11.2408857421875,-0.058485984802246094,-0.0903397798538208,0.22323393821716309
1683135822747727000,11.25872705078125,0.039702415466308594,0.23085588216781616,-0.10516346991062164
1683135822765567000,11.27656689453125,-0.04061698913574219,-0.09153646230697632,0.06063758581876755
1683135822783406000,11.294406005859376,-0.035068511962890625,0.16244930028915405,0.06993617862462997
1683135822801244200,11.312244140625,-0.08813762664794922,0.04950523376464844,-0.14169135689735413
1683135822819083500,11.33008349609375,0.055466651916503906,-0.0938672423362732,0.18913491070270538
1683135822836922400,11.34792236328125,-0.060744285583496094,0.1838049292564392,-0.19746911525726318
1683135822854762000,11.365761962890625,-0.09787654876708984,-0.086456298828125,0.2183069884777069
1683135822872599800,11.383599853515625,0.019777297973632812,0.24052929878234863,-0.19373580813407898
1683135822890439400,11.401439453125,-0.056611061096191406,-0.14325004816055298,0.15486326813697815
1683135822908276500,11.4192763671875,-0.03355693817138672,0.23561829328536987,-0.006485164165496826
1683135822926119200,11.437119140625,-0.06285667419433594,-0.052233099937438965,-0.08275157958269119
1683135822943950800,11.454950927734375,0.04613304138183594,-0.004226803779602051,0.15584394335746765
1683135822961794600,11.472794677734376,-0.13610172271728516,0.1404629349708557,-0.20491093397140503
1683135822979621600,11.49062158203125,0.0403900146484375,-0.0691823959350586,0.2226714789867401
1683135822997471700,11.5084716796875,0.05580425262451172,0.21562445163726807,-0.2049945890903473
1683135823015306800,11.526306640625,-0.07604217529296875,-0.18636292219161987,0.1825866997241974
1683135823033140000,11.544139892578125,-0.027284622192382812,0.2880682945251465,-0.11301925778388977
1683135823050989300,11.5619892578125,-0.06194019317626953,-0.1205071210861206,0.0038122832775115967
1683135823068825600,11.57982568359375,0.027101516723632812,0.07414263486862183,0.09165753424167633
1683135823086669800,11.597669921875,-0.13614559173583984,0.10431510210037231,-0.1637449860572815
1683135823104506000,11.615506103515624,0.11160564422607422,-0.0702366828918457,0.20626264810562134
1683135823122333000,11.6333330078125,-0.03311729431152344,0.17260295152664185,-0.2171894609928131
1683135823140184300,11.651184326171874,-0.058403968811035156,-0.11878645420074463,0.23737990856170654
1683135823158022700,11.669022705078126,0.04030609130859375,0.26157939434051514,-0.14815443754196167
1683135823175861800,11.68686181640625,-0.05724048614501953,-0.18300306797027588,0.0858159139752388
1683135823193700600,11.70470068359375,0.013226509094238281,0.13468700647354126,0.018858380615711212
1683135823211539700,11.722539794921875,-0.12767696380615234,0.019571781158447266,-0.10846930742263794
1683135823229377800,11.740377685546875,0.1175069808959961,0.002621889114379883,0.13325119018554688
1683135823247217400,11.758217529296875,-0.09903621673583984,0.1295810341835022,-0.19301490485668182
1683135823265051400,11.776051513671876,-0.004069328308105469,-0.07552003860473633,0.23991850018501282
1683135823282895400,11.793895263671875,0.03061676025390625,0.2559831142425537,-0.18713685870170593
1683135823300734000,11.81173388671875,-0.10373783111572266,-0.20295363664627075,0.13912925124168396
1683135823318571300,11.8295712890625,0.03027629852294922,0.1984427571296692,-0.05781397223472595
1683135823336409600,11.84740966796875,-0.08854866027832031,-0.0619928240776062,0.013183832168579102
1683135823354251000,11.8652509765625,0.08660030364990234,0.049859821796417236,0.11005541682243347
1683135823372078000,11.883078125,-0.1218118667602539,0.07243645191192627,-0.1523069441318512
1683135823389926100,11.900926025390625,0.05861377716064453,-0.043837666511535645,0.1880205273628235
1683135823407770000,11.91877001953125,0.01165771484375,0.1794864535331726,-0.2140326350927353
1683135823425606700,11.936606689453125,-0.0925760269165039,-0.2049587368965149,0.1927865743637085
1683135823443444700,11.95444482421875,0.02324390411376953,0.2329401969909668,-0.10278946161270142
1683135823461284000,11.9722841796875,-0.06887531280517578,-0.13798916339874268,0.06241670623421669
1683135823479123000,11.990123046875,0.0641937255859375,0.1445210576057434,0.008735254406929016
1683135823496962800,12.007962890625,-0.09801101684570312,0.013455092906951904,-0.034509144723415375
1683135823514801000,12.02580078125,0.11315155029296875,0.01764225959777832,0.18408319354057312
1683135823532640000,12.043639892578126,-0.052570343017578125,0.14161401987075806,-0.1721489131450653
1683135823550475800,12.061475830078125,-0.04900932312011719,-0.15631693601608276,0.20952770113945007
1683135823568307700,12.0793076171875,0.034018516540527344,0.24004554748535156,-0.14963345229625702
1683135823586152400,12.09715234375,-0.09016990661621094,-0.1910117268562317,0.10465869307518005
1683135823603991600,12.114991455078124,0.052433013916015625,0.15277212858200073,-0.057842642068862915
1683135823621838300,12.13283837890625,-0.08160018920898438,-0.023351430892944336,0.036218442022800446
1683135823639673900,12.150673828125,0.02602386474609375,0.13570243120193481,0.07873645424842834
1683135823657512400,12.168512451171875,-0.06237506866455078,0.05219376087188721,-0.12614509463310242
1683135823675351300,12.186351318359375,0.0046062469482421875,-0.12115925550460815,0.22335726022720337
1683135823693175600,12.204175537109375,0.006894111633300781,0.2151165008544922,-0.16936804354190826
1683135823711028700,12.22202880859375,-0.08342647552490234,-0.1698319911956787,0.1840488612651825
1683135823728866000,12.239865966796875,0.03244495391845703,0.2059769630432129,-0.09326475113630295
1683135823746709800,12.257709716796874,-0.0990753173828125,-0.053620338439941406,0.10997994244098663
1683135823764528400,12.2755283203125,0.038410186767578125,0.17989963293075562,0.004427976906299591
1683135823782385200,12.29338525390625,-0.053722381591796875,0.002162933349609375,-0.055269889533519745
1683135823800220700,12.311220703125,0.011945724487304688,-0.021799564361572266,0.1688549518585205
1683135823818065400,12.3290654296875,-0.08176136016845703,0.15306121110916138,-0.19389531016349792
1683135823835901700,12.346901611328125,-0.04631519317626953,-0.14422112703323364,0.2100161612033844
1683135823853740500,12.364740478515625,0.03904151916503906,0.22202742099761963,-0.18221557140350342
1683135823871579000,12.382578857421874,-0.08447456359863281,-0.11104774475097656,0.1917886883020401
1683135823889406500,12.400406494140626,0.024913787841796875,0.21463292837142944,-0.08900374919176102
1683135823907257300,12.41825732421875,-0.03835868835449219,-0.10850149393081665,0.03242950886487961
1683135823925093400,12.43609326171875,0.0016431808471679688,0.11150407791137695,0.10607769340276718
1683135823942937600,12.4539375,-0.10700416564941406,0.08604347705841064,-0.1651766002178192
1683135823960773600,12.471773681640625,0.03291893005371094,-0.1374247670173645,0.2026785910129547
1683135823978612700,12.48961279296875,-0.045119285583496094,0.1983615756034851,-0.2201702892780304
1683135823996451600,12.50745166015625,-0.08956527709960938,-0.09257811307907104,0.2303370237350464
1683135824014290400,12.52529052734375,0.034470558166503906,0.23380285501480103,-0.1484474241733551
1683135824032128300,12.543128173828125,-0.05428314208984375,-0.13712143898010254,0.1127794086933136
1683135824049968400,12.560968505859375,-0.02925872802734375,0.19314879179000854,0.012909434735774994
1683135824067805700,12.5788056640625,-0.07785320281982422,-0.013438761234283447,-0.11370322853326797
1683135824085648400,12.5966484375,0.05398750305175781,-0.06969308853149414,0.1682310700416565
1683135824103485000,12.61448486328125,-0.13496112823486328,0.16896843910217285,-0.20212823152542114
1683135824121315000,12.632315185546876,-0.024747848510742188,-0.0825008749961853,0.22532238066196442
1683135824139163100,12.6501630859375,-0.0011157989501953125,0.24286270141601562,-0.20142242312431335
1683135824157001500,12.66800146484375,-0.08301830291748047,-0.17104220390319824,0.156945139169693
1683135824174840800,12.6858408203125,-0.0036916732788085938,0.23640406131744385,-0.05654415488243103
1683135824192675800,12.70367578125,-0.06090545654296875,-0.09767717123031616,-0.04459361732006073
1683135824210519000,12.72151904296875,0.023969650268554688,0.015541017055511475,0.12244077026844025
1683135824228356000,12.739356201171875,-0.1579761505126953,0.13994574546813965,-0.19458799064159393
1683135824246185500,12.757185546875,0.06749534606933594,-0.07226014137268066,0.2157987654209137
1683135824264035000,12.77503515625,0.017096519470214844,0.2011062502861023,-0.21229678392410278
1683135824281874700,12.792874755859375,-0.07092571258544922,-0.18268853425979614,0.217032790184021
1683135824299710000,12.8107099609375,0.017238616943359375,0.2698429226875305,-0.12345722317695618
1683135824317555200,12.82855517578125,-0.05709362030029297,-0.14075696468353271,0.025385722517967224
1683135824335377200,12.846377197265625,0.02373504638671875,0.06705570220947266,0.07165738195180893
1683135824353221000,12.86422119140625,-0.14469337463378906,0.07748216390609741,-0.15629220008850098
1683135824371054000,12.88205419921875,0.1154031753540039,-0.06736898422241211,0.18792469799518585
1683135824388908000,12.899907958984375,-0.0641021728515625,0.14644181728363037,-0.22607314586639404
1683135824406747100,12.9177470703125,-0.05260944366455078,-0.10944503545761108,0.22750481963157654
1683135824424585700,12.935585693359375,0.05156898498535156,0.23924362659454346,-0.16773194074630737
1683135824442424000,12.953424072265625,-0.07172584533691406,-0.19051873683929443,0.10889266431331635
1683135824460263200,12.97126318359375,0.015442848205566406,0.14544081687927246,-0.010612398386001587
1683135824478102300,12.989102294921874,-0.11411380767822266,-0.02793174982070923,-0.05564122647047043
1683135824495935200,13.006935302734375,0.10020160675048828,0.014824151992797852,0.13388791680335999
1683135824513780200,13.0247802734375,-0.12093925476074219,0.10554510354995728,-0.1827945113182068
1683135824531619000,13.042619140625,0.008356094360351562,-0.06821495294570923,0.23879191279411316
1683135824549458400,13.06045849609375,0.011999130249023438,0.2201569676399231,-0.18606604635715485
1683135824567297000,13.078297119140625,-0.12156867980957031,-0.21577423810958862,0.12878219783306122
1683135824585134300,13.09613427734375,0.029204368591308594,0.19706737995147705,-0.06817074120044708
1683135824602975700,13.113975830078125,-0.0798349380493164,-0.0845298171043396,0.0069036707282066345
1683135824620813600,13.1318134765625,0.08221435546875,0.07542639970779419,0.06699401140213013
1683135824638653000,13.14965283203125,-0.11588096618652344,0.060183823108673096,-0.10845877975225449
1683135824656491300,13.1674912109375,0.06390666961669922,-0.020819127559661865,0.19999736547470093
1683135824674325800,13.18532568359375,-0.018665313720703125,0.1505110263824463,-0.20817987620830536
1683135824692169700,13.203169677734374,-0.0821075439453125,-0.2198467254638672,0.21069836616516113
1683135824710005800,13.221005859375,0.049353599548339844,0.23575443029403687,-0.10614386945962906
1683135824727850000,13.23885009765625,-0.07601356506347656,-0.14566630125045776,0.0727052092552185
1683135824745686000,13.25668603515625,0.04770946502685547,0.13531428575515747,-0.006901822984218597
1683135824763524900,13.27452490234375,-0.09469985961914062,-0.005117535591125488,-0.043825604021549225
1683135824781353700,13.292353759765625,0.09345149993896484,0.06019747257232666,0.1525764763355255
1683135824799201500,13.310201416015625,-0.048603057861328125,0.10635530948638916,-0.1593325436115265
1683135824817043000,13.32804296875,-0.024358749389648438,-0.183293879032135,0.20110902190208435
1683135824834881000,13.345881103515625,0.02524089813232422,0.23245841264724731,-0.15677183866500854
1683135824852716500,13.363716552734376,-0.08749103546142578,-0.19036465883255005,0.1452377736568451
1683135824870558000,13.381557861328124,0.05304527282714844,0.15903258323669434,-0.0692935585975647
1683135824888385300,13.39938525390625,-0.07256698608398438,-0.04555469751358032,0.07390251010656357
1683135824906236200,13.417236083984376,0.025785446166992188,0.1349279284477234,0.05333875119686127
1683135824924072700,13.43507275390625,-0.09080791473388672,0.044506609439849854,-0.12673503160476685
1683135824941917000,13.4529169921875,0.02685070037841797,-0.11472541093826294,0.19652029871940613
1683135824959753200,13.470753173828125,-0.013530731201171875,0.20010888576507568,-0.1893196702003479
1683135824977591800,13.488591796875,-0.04006004333496094,-0.18400388956069946,0.19819548726081848
1683135824995426600,13.506426513671874,0.043122291564941406,0.21893209218978882,-0.12576310336589813
1683135825013257700,13.5242578125,-0.11153793334960938,-0.060330867767333984,0.1478649228811264
1683135825031094300,13.54209423828125,0.01634693145751953,0.19067615270614624,-0.030124172568321228
1683135825048946700,13.55994677734375,-0.02133941650390625,-0.04940998554229736,0.002073831856250763
1683135825066784300,13.5777841796875,0.011450767517089844,0.023667097091674805,0.14281213283538818
1683135825084629500,13.59562939453125,-0.10956287384033203,0.11356109380722046,-0.18436355888843536
1683135825102461400,13.61346142578125,-0.021445274353027344,-0.13955551385879517,0.20183449983596802
1683135825120292900,13.63129296875,0.00027561187744140625,0.20626229047775269,-0.2026432752609253
1683135825138130700,13.649130615234375,-0.061524391174316406,-0.09577023983001709,0.20700398087501526
1683135825155971800,13.666971923828125,0.035968780517578125,0.23754048347473145,-0.10268884897232056
1683135825173820700,13.684820556640625,-0.03521537780761719,-0.11035692691802979,0.04812868684530258
1683135825191656400,13.702656494140625,-0.018326759338378906,0.1436324119567871,0.06543973088264465
1683135825209501400,13.72050146484375,-0.08593463897705078,0.04510998725891113,-0.12511634826660156
1683135825227336400,13.73833642578125,0.06358146667480469,-0.12027889490127563,0.19135946035385132
1683135825245175800,13.75617578125,-0.06649303436279297,0.17104029655456543,-0.17893283069133759
1683135825263014700,13.7740146484375,-0.0840606689453125,-0.08093971014022827,0.22600522637367249
1683135825280840000,13.79183984375,0.027355194091796875,0.24429917335510254,-0.1978946328163147
1683135825298685000,13.809684814453124,-0.05627727508544922,-0.1579453945159912,0.1565229892730713
1683135825316522800,13.827522705078126,-0.036742210388183594,0.22360283136367798,-0.012881219387054443
1683135825334368000,13.845367919921875,-0.056868553161621094,-0.05142104625701904,-0.0954982340335846
1683135825352209400,13.86320947265625,0.05126476287841797,-0.019094109535217285,0.14452572166919708
1683135825370045200,13.881045166015625,-0.15580177307128906,0.14316481351852417,-0.20615911483764648
1683135825387890200,13.89889013671875,0.04537677764892578,-0.0858502984046936,0.22349613904953003
1683135825405726000,13.916725830078125,0.04728507995605469,0.1948150396347046,-0.20139126479625702
1683135825423565300,13.9345654296875,-0.07994461059570312,-0.19841474294662476,0.1979583501815796
1683135825441402600,13.952402587890624,-0.03780078887939453,0.26612913608551025,-0.10508733987808228
1683135825459244000,13.970244140625,-0.06314945220947266,-0.12038606405258179,0.004392541944980621
1683135825477079600,13.98807958984375,0.050960540771484375,0.047458112239837646,0.09105867892503738
1683135825494923500,14.005923583984375,-0.13614845275878906,0.08568793535232544,-0.15949323773384094
1683135825512755700,14.023755615234375,0.12064361572265625,-0.07308173179626465,0.2043536901473999
1683135825530584000,14.041583984375,-0.04095649719238281,0.1530049443244934,-0.23479868471622467
1683135825548428000,14.059427978515625,-0.07448196411132812,-0.13554859161376953,0.23404213786125183
1683135825566269000,14.07726904296875,0.04229164123535156,0.254080593585968,-0.14442211389541626
1683135825584102000,14.095101806640624,-0.05561065673828125,-0.19034850597381592,0.07322424650192261
1683135825601945000,14.112945068359375,0.003185272216796875,0.11081719398498535,0.013681285083293915
1683135825619782000,14.130781982421874,-0.1324014663696289,0.019834578037261963,-0.09168457239866257
1683135825637622000,14.1486220703125,0.12822818756103516,-0.011461019515991211,0.15922421216964722
1683135825655461400,14.16646142578125,-0.09371471405029297,0.10778313875198364,-0.18754440546035767
1683135825673298700,14.184298583984376,-0.012432098388671875,-0.08214765787124634,0.24845178425312042
1683135825691142100,14.20214208984375,0.0417327880859375,0.23275226354599,-0.19331637024879456
1683135825708978400,14.219978515625,-0.09620475769042969,-0.2194727063179016,0.13273008167743683
1683135825726817800,14.23781787109375,0.032942771911621094,0.1936802864074707,-0.06104176491498947
1683135825744660500,14.255660400390624,-0.0919961929321289,-0.06852757930755615,-0.0016156882047653198
1683135825762494500,14.273494384765625,0.11207199096679688,0.04815244674682617,0.09659968316555023
1683135825780332500,14.29133251953125,-0.12341785430908203,0.06332182884216309,-0.1268596351146698
1683135825798172700,14.309172607421875,0.0630035400390625,-0.03443098068237305,0.2044115662574768
1683135825816011500,14.327011474609375,0.017965316772460938,0.16023290157318115,-0.18988582491874695
1683135825833863000,14.34486279296875,-0.0848846435546875,-0.22513234615325928,0.21195000410079956
1683135825851696400,14.3626962890625,0.03981590270996094,0.22719228267669678,-0.09427133947610855
1683135825869540600,14.38054052734375,-0.0780935287475586,-0.14538848400115967,0.06193738803267479
1683135825887377000,14.398376953125,0.053691864013671875,0.12053394317626953,0.007861457765102386
1683135825905215700,14.4162158203125,-0.09296798706054688,-0.0010241270065307617,-0.05272306501865387
1683135825923044600,14.434044677734375,0.10131168365478516,0.021298468112945557,0.15683910250663757
1683135825940893400,14.4518935546875,-0.038453102111816406,0.1212809681892395,-0.17841684818267822
1683135825958733000,14.469733154296875,-0.029969215393066406,-0.18254435062408447,0.1980821192264557
1683135825976568800,14.48756884765625,0.03802013397216797,0.24243634939193726,-0.14878123998641968
1683135825994406100,14.50540625,-0.07136154174804688,-0.1837645173072815,0.13435766100883484
1683135826012247800,14.523247802734375,0.07197284698486328,0.15412062406539917,-0.058173857629299164
1683135826030087000,14.5410869140625,-0.07032966613769531,-0.04169118404388428,0.06794653087854385
1683135826047927000,14.558927001953125,0.0283660888671875,0.13820725679397583,0.07703070342540741
1683135826065769200,14.576769287109375,-0.07042503356933594,0.05579876899719238,-0.133021280169487
1683135826083600100,14.59460009765625,0.02100086212158203,-0.13204336166381836,0.21949359774589539
1683135826101444400,14.6124443359375,-0.006005287170410156,0.1916111707687378,-0.20343276858329773
1683135826119283200,14.630283203125,-0.06746387481689453,-0.18306410312652588,0.18383702635765076
1683135826137123800,14.648123779296874,0.05127906799316406,0.2174851894378662,-0.11282147467136383
1683135826154959400,14.66595947265625,-0.10378646850585938,-0.056211769580841064,0.14308702945709229
1683135826172796000,14.6837958984375,0.01197052001953125,0.17292249202728271,-0.0009994953870773315
1683135826190638800,14.701638916015625,-0.01874065399169922,-0.025025665760040283,-0.03035104274749756
1683135826208464600,14.719464599609376,0.02349567413330078,-0.00856029987335205,0.15278126299381256
1683135826226319000,14.737319091796875,-0.11421012878417969,0.14900165796279907,-0.18365666270256042
1683135826244155100,14.755155029296875,-0.022024154663085938,-0.158838152885437,0.2089216411113739
1683135826261993700,14.77299365234375,0.013897895812988281,0.2046796679496765,-0.1953519731760025
1683135826279821600,14.790821533203125,-0.08026695251464844,-0.09351038932800293,0.20428237318992615
1683135826297660000,14.808659912109375,0.039299964904785156,0.21729928255081177,-0.09071514755487442
1683135826315511300,14.82651123046875,-0.024789810180664062,-0.10742264986038208,0.028949767351150513
1683135826333341000,14.8443408203125,-0.025472640991210938,0.11608994007110596,0.09246885031461716
1683135826351193600,14.862193603515625,-0.09058189392089844,0.07083231210708618,-0.14148250222206116
1683135826369027600,14.880027587890625,0.05066967010498047,-0.13370877504348755,0.20578937232494354
1683135826386866400,14.897866455078125,-0.047257423400878906,0.17214292287826538,-0.19624178111553192
1683135826404700700,14.91570068359375,-0.10529708862304688,-0.1039656400680542,0.23368319869041443
1683135826422544100,14.933544189453125,0.018370628356933594,0.2423492670059204,-0.17810961604118347
1683135826440383200,14.95138330078125,-0.04290485382080078,-0.15765374898910522,0.14012032747268677
1683135826458220300,14.96922021484375,-0.04340171813964844,0.19962459802627563,0.011205479502677917
1683135826476046300,14.98704638671875,-0.06892967224121094,-0.02960371971130371,-0.10828131437301636
1683135826493900500,15.004900634765624,0.060097694396972656,-0.05466139316558838,0.16704970598220825
1683135826511738600,15.022738525390626,-0.12659931182861328,0.1428995132446289,-0.21391963958740234
1683135826529574400,15.040574462890625,0.026190757751464844,-0.08608967065811157,0.2326880693435669
1683135826547418000,15.058418212890626,0.058899879455566406,0.2115815281867981,-0.19429773092269897
1683135826565256000,15.076255859375,-0.06928253173828125,-0.19202804565429688,0.18848253786563873
1683135826583094500,15.094094482421875,-0.02958965301513672,0.2649526596069336,-0.08645107597112656
1683135826600933600,15.11193359375,-0.060482025146484375,-0.10522305965423584,0.0006190091371536255
1683135826618770200,15.129770263671874,0.048834800720214844,0.026619374752044678,0.11380952596664429
1683135826636614100,15.1476142578125,-0.14832115173339844,0.1039314866065979,-0.17087581753730774
1683135826654438400,15.1654384765625,0.09965801239013672,-0.07227253913879395,0.19756487011909485
1683135826672289300,15.183289306640624,-0.02959918975830078,0.16583067178726196,-0.24239178001880646
1683135826690128100,15.201128173828126,-0.0627889633178711,-0.15072840452194214,0.22960036993026733
1683135826707967200,15.21896728515625,0.02902698516845703,0.26559990644454956,-0.14496681094169617
1683135826725801000,15.236801025390625,-0.04157066345214844,-0.17788344621658325,0.07830126583576202
1683135826743644700,15.254644775390625,0.004683494567871094,0.10086393356323242,0.029557764530181885
1683135826761483800,15.27248388671875,-0.12965774536132812,0.04006087779998779,-0.10563812404870987
1683135826779312400,15.2903125,0.14330291748046875,-0.008891582489013672,0.1637335568666458
1683135826797162800,15.308162841796875,-0.08409976959228516,0.11504799127578735,-0.18902795016765594
1683135826815000600,15.32600048828125,-0.025228500366210938,-0.10306322574615479,0.24098695814609528
1683135826832835600,15.343835693359376,0.03626728057861328,0.2412378191947937,-0.1778787076473236
1683135826850677500,15.361677490234374,-0.09267616271972656,-0.21466225385665894,0.12214230000972748
1683135826868518000,15.379517822265624,0.024248123168945312,0.18200886249542236,-0.0517856627702713
1683135826886356200,15.397356201171876,-0.08804130554199219,-0.06905078887939453,-0.0011617541313171387
1683135826904191500,15.41519140625,0.10169506072998047,0.01718205213546753,0.11720883101224899
1683135826922034700,15.43303466796875,-0.12022209167480469,0.06818807125091553,-0.15600252151489258
1683135826939864000,15.450864013671875,0.055260658264160156,-0.056273818016052246,0.19937816262245178
1683135826957712600,15.468712646484375,0.017821311950683594,0.1721665859222412,-0.19309937953948975
1683135826975546000,15.486546142578124,-0.08822917938232422,-0.22789382934570312,0.19343233108520508
1683135826993390300,15.504390380859375,0.030747413635253906,0.22169357538223267,-0.0928541049361229
1683135827011228400,15.522228515625,-0.04839801788330078,-0.12963879108428955,0.05379081144928932
1683135827029067300,15.5400673828125,0.06566619873046875,0.12371623516082764,0.009350746870040894
1683135827046906600,15.55790673828125,-0.10253047943115234,0.0016399025917053223,-0.056976474821567535
1683135827064733700,15.575733642578125,0.10064697265625,0.0005207657814025879,0.17571288347244263
1683135827082584000,15.593583984375,-0.040508270263671875,0.12734901905059814,-0.1740010678768158
1683135827100422100,15.611422119140625,-0.03632545471191406,-0.18780642747879028,0.20830491185188293
1683135827118262500,15.629262451171876,0.03412628173828125,0.22715896368026733,-0.1484168916940689
1683135827136102100,15.64710205078125,-0.0865631103515625,-0.18386441469192505,0.12821753323078156
1683135827153940000,15.66493994140625,0.0717611312866211,0.14802873134613037,-0.04453708231449127
1683135827171765800,15.682765869140624,-0.07190322875976562,-0.036186039447784424,0.041831426322460175
1683135827189618400,15.700618408203125,0.019998550415039062,0.11934500932693481,0.08499838411808014
1683135827207457000,15.71845703125,-0.0692586898803711,0.05343616008758545,-0.1430882215499878
1683135827225295000,15.736295166015625,0.018392562866210938,-0.15500420331954956,0.21032410860061646
1683135827243134200,15.75413427734375,0.015825271606445312,0.20884275436401367,-0.19149214029312134
1683135827260973000,15.77197314453125,-0.07441043853759766,-0.18831366300582886,0.17619922757148743
1683135827278812700,15.789812744140624,0.036858558654785156,0.20002663135528564,-0.09952489286661148
1683135827296646400,15.807646484375,-0.10177803039550781,-0.062364816665649414,0.13001056015491486
1683135827314478600,15.825478515625,0.016492843627929688,0.18920159339904785,0.0018358156085014343
1683135827332329200,15.8433291015625,-0.020845413208007812,-0.04098784923553467,-0.04228062927722931
1683135827350165200,15.861165283203125,0.015485763549804688,-0.048737168312072754,0.1753740906715393
1683135827368009200,15.87900927734375,-0.09245014190673828,0.15055787563323975,-0.19397173821926117
1683135827385845800,15.896845703125,-0.028917312622070312,-0.16498029232025146,0.20060038566589355
1683135827403684400,15.914684326171875,0.027649879455566406,0.20674431324005127,-0.187959223985672
1683135827421522400,15.9325224609375,-0.0886697769165039,-0.09663581848144531,0.1969553381204605
1683135827439361800,15.95036181640625,0.04378986358642578,0.2091701626777649,-0.07756230235099792
1683135827457201400,15.968201416015624,-0.010182380676269531,-0.12599396705627441,0.023551076650619507
1683135827475040300,15.986040283203126,-0.0062351226806640625,0.06691139936447144,0.111188143491745
1683135827492874500,16.00387451171875,-0.11194896697998047,0.08555829524993896,-0.14589965343475342
1683135827510704600,16.02170458984375,0.05438995361328125,-0.14310318231582642,0.20254898071289062
1683135827528546300,16.03954638671875,-0.024288177490234375,0.165227472782135,-0.20054595172405243
1683135827546396000,16.05739599609375,-0.11336326599121094,-0.1087179183959961,0.2251763492822647
1683135827564234800,16.07523486328125,0.025681495666503906,0.24609869718551636,-0.18005216121673584
1683135827582072600,16.093072509765626,-0.028627395629882812,-0.15957742929458618,0.129375159740448
1683135827599912400,16.110912353515626,-0.051280975341796875,0.18461477756500244,0.015554040670394897
1683135827617751600,16.12875146484375,-0.06952095031738281,-0.015008866786956787,-0.11396848410367966
1683135827635588600,16.146588623046874,0.07001876831054688,-0.06272369623184204,0.17905469238758087
1683135827653431600,16.164431640625,-0.12851238250732422,0.14701485633850098,-0.19954445958137512
1683135827671268000,16.18226806640625,0.011911392211914062,-0.09517598152160645,0.23407551646232605
1683135827689095200,16.20009521484375,0.04585742950439453,0.2229071855545044,-0.19968736171722412
1683135827706946300,16.2179462890625,-0.07076454162597656,-0.2103123664855957,0.1679559350013733
1683135827724785000,16.235784912109374,-0.03213024139404297,0.22922074794769287,-0.07418306171894073
1683135827742623700,16.253623779296873,-0.06704902648925781,-0.099109947681427,-0.02580218017101288
1683135827760462600,16.271462646484373,0.052196502685546875,0.02027595043182373,0.11827957630157471
1683135827778300700,16.28930078125,-0.15207958221435547,0.10912144184112549,-0.17703548073768616
1683135827796131300,16.30713134765625,0.08800315856933594,-0.08204901218414307,0.21682551503181458
1683135827813974800,16.324974853515624,-0.0030202865600585938,0.171148419380188,-0.2306680679321289
1683135827831818200,16.342818359375,-0.06085014343261719,-0.15508943796157837,0.2305459976196289
1683135827849657300,16.3606572265625,0.02281951904296875,0.23884034156799316,-0.13424724340438843
1683135827867495700,16.37849560546875,-0.03990459442138672,-0.17492669820785522,0.055003877729177475
1683135827885334800,16.396334716796876,0.013677597045898438,0.09004080295562744,0.03691061958670616
1683135827903173400,16.41417333984375,-0.14610004425048828,0.03258877992630005,-0.12207402288913727
1683135827921013200,16.43201318359375,0.1313924789428711,-0.025579452514648438,0.1663077175617218
1683135827938851800,16.449851806640623,-0.07701492309570312,0.10758453607559204,-0.20378339290618896
1683135827956690700,16.467690673828123,-0.030483245849609375,-0.11559927463531494,0.2404743731021881
1683135827974517800,16.485517822265624,0.040470123291015625,0.22303497791290283,-0.17831562459468842
1683135827992368600,16.50336865234375,-0.09299755096435547,-0.22802382707595825,0.13026052713394165
1683135828010206200,16.521206298828126,0.03064727783203125,0.18314248323440552,-0.04466450214385986
1683135828028046800,16.539046875,-0.07976913452148438,-0.04945629835128784,0.00031707435846328735
1683135828045884700,16.556884765625,0.11528682708740234,0.03074514865875244,0.12787294387817383
1683135828063719700,16.5747197265625,-0.11910057067871094,0.06864267587661743,-0.1580916792154312
1683135828081560600,16.592560546875,0.03360748291015625,-0.06980443000793457,0.2149069905281067
1683135828099402000,16.610402099609374,0.025145530700683594,0.17210376262664795,-0.18719907104969025
1683135828117240600,16.628240478515625,-0.08998489379882812,-0.2234906554222107,0.18741007149219513
1683135828135074300,16.64607421875,0.035518646240234375,0.20714646577835083,-0.08827869594097137
1683135828152902700,16.663902587890625,-0.07631111145019531,-0.1286640167236328,0.048330727964639664
1683135828170757000,16.681757080078125,0.06878948211669922,0.10937488079071045,0.01563355326652527
1683135828188595200,16.69959521484375,-0.09305477142333984,0.0004627704620361328,-0.06373987346887589
1683135828206421000,16.7174208984375,0.07828807830810547,0.005118668079376221,0.18337298929691315
1683135828224273700,16.735273681640624,-0.028406143188476562,0.13691949844360352,-0.18089565634727478
1683135828242113300,16.75311328125,-0.02887725830078125,-0.1989121437072754,0.1999102532863617
1683135828259948800,16.77094873046875,0.031434059143066406,0.22873222827911377,-0.1314982771873474
1683135828277794000,16.7887939453125,-0.07030296325683594,-0.19290494918823242,0.12497903406620026
1683135828295629300,16.80662939453125,0.08114910125732422,0.13603466749191284,-0.050364889204502106
1683135828313468700,16.82446875,-0.05833911895751953,-0.017421603202819824,0.04181612655520439
1683135828331295700,16.842295654296876,0.036217689514160156,0.11850255727767944,0.09457750618457794
1683135828349146600,16.860146728515623,-0.07299613952636719,0.051835596561431885,-0.1467636227607727
1683135828366985000,16.87798486328125,0.007373809814453125,-0.1433933973312378,0.2024511694908142
1683135828384820000,16.895820068359374,0.009723663330078125,0.1982886791229248,-0.18528927862644196
1683135828402667000,16.9136669921875,-0.058938026428222656,-0.18062293529510498,0.1832682490348816
1683135828420502300,16.931502197265626,0.04297065734863281,0.17881226539611816,-0.10556957125663757
1683135828438339800,16.94933984375,-0.10735893249511719,-0.07812243700027466,0.12381057441234589
1683135828456175900,16.96717578125,0.012981414794921875,0.18989688158035278,0.003128521144390106
1683135828474019000,16.98501904296875,-0.031914710998535156,-0.02285599708557129,-0.07552286982536316
1683135828491858000,17.00285791015625,0.02340984344482422,-0.08175188302993774,0.16456393897533417
1683135828509695500,17.020695556640625,-0.10354995727539062,0.14696091413497925,-0.19697287678718567
1683135828527536400,17.038536376953125,-0.018123626708984375,-0.167247474193573,0.19840332865715027
1683135828545374200,17.056374267578125,0.021327972412109375,0.2025344967842102,-0.19852739572525024
1683135828563201300,17.074201171875,-0.0840291976928711,-0.11389964818954468,0.20259174704551697
1683135828581051100,17.092051025390624,0.037360191345214844,0.20062357187271118,-0.08326495438814163
1683135828598888200,17.10988818359375,-0.013123512268066406,-0.10728782415390015,0.02497456967830658
1683135828616720100,17.12772021484375,-0.011196136474609375,0.07155460119247437,0.10672413557767868
1683135828634557200,17.14555712890625,-0.1137857437133789,0.07592535018920898,-0.15579552948474884
1683135828652410000,17.16341015625,0.061438560485839844,-0.1305519938468933,0.2033633589744568
1683135828670246400,17.181246337890624,-0.010066032409667969,0.16798323392868042,-0.2114449292421341
1683135828688086800,17.199086669921876,-0.12329673767089844,-0.12222152948379517,0.2224235236644745
1683135828705913000,17.2169130859375,0.007895469665527344,0.2365177869796753,-0.18367446959018707
1683135828723760400,17.234760498046874,-0.020546913146972656,-0.16665416955947876,0.12006059288978577
1683135828741605000,17.252605224609376,-0.03772258758544922,0.17014867067337036,0.029308900237083435
1683135828759440600,17.270440673828126,-0.08340072631835938,-0.011703312397003174,-0.11814981698989868
1683135828777266700,17.2882666015625,0.07339859008789062,-0.06898391246795654,0.17970211803913116
1683135828795113500,17.306113525390625,-0.11069202423095703,0.13853776454925537,-0.2138526439666748
1683135828812947500,17.323947509765624,0.00032138824462890625,-0.09181106090545654,0.23816075921058655
1683135828830795800,17.341795654296874,0.06396865844726562,0.21006298065185547,-0.19584274291992188
1683135828848633300,17.35963330078125,-0.06246471405029297,-0.20290756225585938,0.16192930936813354
1683135828866477000,17.37747705078125,-0.03859901428222656,0.2547275424003601,-0.07401004433631897
1683135828884313300,17.395313232421874,-0.07701683044433594,-0.11779218912124634,-0.029314078390598297
1683135828902151700,17.413151611328125,0.047745704650878906,-0.008121132850646973,0.11835626512765884
1683135828919991000,17.430990966796877,-0.1460103988647461,0.11290603876113892,-0.17111411690711975
1683135828937817600,17.448817626953126,0.09340763092041016,-0.07889997959136963,0.20898878574371338
1683135828955669000,17.4666689453125,-0.029825210571289062,0.16423678398132324,-0.22938255965709686
1683135828973507600,17.484507568359376,-0.07665729522705078,-0.16759485006332397,0.22207604348659515
1683135828991347000,17.502346923828124,0.024239540100097656,0.24675923585891724,-0.1327129304409027
1683135829009185500,17.520185546875,-0.03470420837402344,-0.1740967035293579,0.057527024298906326
1683135829027011800,17.53801171875,0.024819374084472656,0.0789874792098999,0.04202905669808388
1683135829044852000,17.55585205078125,-0.15437602996826172,0.03638613224029541,-0.1206897720694542
1683135829062693600,17.573693603515625,0.1327037811279297,-0.022838354110717773,0.161551371216774
1683135829080531000,17.591531005859373,-0.06708049774169922,0.10835778713226318,-0.19961220026016235
1683135829098364000,17.609364013671875,-0.027246475219726562,-0.12333029508590698,0.24126489460468292
1683135829116209700,17.627209716796877,0.03846454620361328,0.2298693060874939,-0.17578920722007751
1683135829134052400,17.64505224609375,-0.08455181121826172,-0.2250821590423584,0.10500682890415192
1683135829151885000,17.662885009765624,0.032840728759765625,0.15821969509124756,-0.03410109877586365
1683135829169725200,17.68072509765625,-0.08979988098144531,-0.05369442701339722,-0.01208951324224472
1683135829187564300,17.698564208984376,0.10821056365966797,0.028866231441497803,0.13202856481075287
1683135829205405700,17.71640576171875,-0.10575103759765625,0.055440425872802734,-0.16666406393051147
1683135829223242800,17.73424267578125,0.02744293212890625,-0.07321757078170776,0.2186822146177292
1683135829241081000,17.7520810546875,0.024457931518554688,0.1691577434539795,-0.1867353320121765
1683135829258920200,17.769920166015623,-0.08509635925292969,-0.23873460292816162,0.18611624836921692
1683135829276760600,17.787760498046875,0.03230476379394531,0.20463144779205322,-0.08765105158090591
1683135829294595800,17.805595947265626,-0.05982208251953125,-0.12170654535293579,0.06613168120384216
1683135829312435200,17.823435302734374,0.0724029541015625,0.11504358053207397,0.01704496145248413
1683135829330282500,17.841282470703124,-0.08942031860351562,-0.002216160297393799,-0.06578019261360168
1683135829348118300,17.8591181640625,0.07571983337402344,-0.009835481643676758,0.18193602561950684
1683135829365963000,17.876962890625,-0.03142261505126953,0.1362742781639099,-0.17238952219486237
1683135829383801000,17.894801025390624,-0.0419769287109375,-0.19676071405410767,0.204835444688797
1683135829401642200,17.912642333984376,0.03497314453125,0.21902352571487427,-0.14398661255836487
1683135829419479600,17.9304794921875,-0.06831550598144531,-0.16598165035247803,0.12535704672336578
1683135829437318400,17.948318359375,0.07867145538330078,0.139326274394989,-0.0425543412566185
1683135829455156500,17.966156494140623,-0.07281017303466797,-0.04457080364227295,0.03187938034534454
1683135829472985600,17.983985595703125,0.01902484893798828,0.09590500593185425,0.09377352148294449
1683135829490835700,18.001835693359375,-0.07058906555175781,0.06980973482131958,-0.15253788232803345
1683135829508670200,18.019670166015626,0.021715164184570312,-0.1625734567642212,0.2046279013156891
1683135829526516700,18.037516845703124,0.00592803955078125,0.194128155708313,-0.18392926454544067
1683135829544340000,18.055340087890624,-0.06827259063720703,-0.18302667140960693,0.1803848147392273
1683135829562190800,18.07319091796875,0.04735851287841797,0.17607486248016357,-0.09345429390668869
1683135829580021500,18.091021484375,-0.09468746185302734,-0.05344521999359131,0.12127737700939178
1683135829597868300,18.108868408203126,0.004833221435546875,0.1780158281326294,0.0009651631116867065
1683135829615707600,18.126707763671874,-0.0366973876953125,-0.041557252407073975,-0.06558631360530853
1683135829633546800,18.144546630859374,0.008223533630371094,-0.06387472152709961,0.1582948863506317
1683135829651385000,18.162385009765625,-0.09449386596679688,0.13621938228607178,-0.20754936337471008
1683135829669224000,18.180223876953125,-0.03086376190185547,-0.16551119089126587,0.20135623216629028
1683135829687062800,18.198062744140625,0.02275848388671875,0.20717370510101318,-0.19822758436203003
1683135829704898600,18.215898681640624,-0.08466625213623047,-0.11861032247543335,0.2017993927001953
1683135829722736600,18.233736572265624,0.026366233825683594,0.21438729763031006,-0.07560037821531296
1683135829740579800,18.251579833984376,-0.007336616516113281,-0.1309090256690979,0.01265077292919159
1683135829758418700,18.269418701171876,0.003968238830566406,0.059575796127319336,0.11784636974334717
1683135829776257800,18.2872578125,-0.11040115356445312,0.09134501218795776,-0.14776679873466492
1683135829794091500,18.305091552734375,0.06569862365722656,-0.13388317823410034,0.2056768536567688
1683135829811935200,18.322935302734376,-0.014657974243164062,0.1651654839515686,-0.19944077730178833
1683135829829773800,18.34077392578125,-0.11756134033203125,-0.1124570369720459,0.2190598100423813
1683135829847601200,18.35860107421875,0.02126312255859375,0.2350749373435974,-0.17948047816753387
1683135829865451500,18.376451416015627,-0.02894306182861328,-0.17800551652908325,0.11195012927055359
1683135829883288800,18.394288818359374,-0.031585693359375,0.15847480297088623,0.03208550810813904
1683135829901131500,18.412131591796875,-0.0814199447631836,-0.0019888877868652344,-0.12630990147590637
1683135829918967600,18.429967529296874,0.0670318603515625,-0.08502012491226196,0.18481212854385376
1683135829936808200,18.44780810546875,-0.13246822357177734,0.13018041849136353,-0.2106192409992218
1683135829954634500,18.465634521484375,0.0007028579711914062,-0.09556812047958374,0.23672667145729065
1683135829972485400,18.4834853515625,0.07261180877685547,0.2071913480758667,-0.1994812786579132
1683135829990324500,18.501324462890626,-0.07351112365722656,-0.21455103158950806,0.16029439866542816
1683135830008155400,18.5191552734375,-0.037535667419433594,0.2257797122001648,-0.0801149234175682
1683135830026001700,18.537001708984373,-0.07480239868164062,-0.10123920440673828,-0.041543520987033844
1683135830043837000,18.5548369140625,0.05304908752441406,-0.008516013622283936,0.11183765530586243
1683135830061682700,18.5726826171875,-0.14766979217529297,0.10097754001617432,-0.16666515171527863
1683135830079518000,18.59051806640625,0.08707714080810547,-0.0644538402557373,0.22330209612846375
1683135830097357300,18.608357421875,-0.012548446655273438,0.1688016653060913,-0.23072585463523865
1683135830115191600,18.626191650390624,-0.07898330688476562,-0.1808437705039978,0.2293819934129715
1683135830133035300,18.64403515625,0.027573585510253906,0.23162907361984253,-0.11153490096330643
1683135830150873600,18.66187353515625,-0.02943134307861328,-0.172005295753479,0.05994819477200508
1683135830168712400,18.67971240234375,0.036263465881347656,0.062438905239105225,0.04909016937017441
1683135830186552000,18.697552001953124,-0.15510272979736328,0.04507678747177124,-0.11519959568977356
1683135830204387600,18.7153876953125,0.1265707015991211,-0.03187751770019531,0.16843858361244202
1683135830222232000,18.733232177734376,-0.06591224670410156,0.09681028127670288,-0.20196384191513062
1683135830240067000,18.751067138671875,-0.03079986572265625,-0.12155300378799438,0.23454871773719788
1683135830257908500,18.768908447265623,0.04004955291748047,0.22282445430755615,-0.17760130763053894
1683135830275746000,18.78674609375,-0.09292030334472656,-0.23589348793029785,0.10133776068687439
1683135830293584400,18.80458447265625,0.036124229431152344,0.1628853678703308,-0.02685803920030594
1683135830311424300,18.82242431640625,-0.08606338500976562,-0.036736488342285156,-0.013845652341842651
1683135830329262600,18.8402626953125,0.13430023193359375,0.032838642597198486,0.13613104820251465
1683135830347101700,18.858101806640626,-0.09273052215576172,0.06441688537597656,-0.1436927318572998
1683135830364940300,18.875940185546874,0.016411781311035156,-0.08531755208969116,0.2132595330476761
1683135830382775600,18.893775634765625,0.028489112854003906,0.17292678356170654,-0.19295980036258698
1683135830400618000,18.911617919921873,-0.07864761352539062,-0.2467452883720398,0.1671781837940216
1683135830418456600,18.92945654296875,0.04410743713378906,0.19566065073013306,-0.08647724986076355
1683135830436291300,18.947291259765624,-0.0726308822631836,-0.11127406358718872,0.043610475957393646
1683135830454134500,18.965134521484377,0.06378173828125,0.12253057956695557,0.02539144456386566
1683135830471973600,18.9829736328125,-0.07925987243652344,-0.0006718039512634277,-0.06346193701028824
1683135830489811000,19.00081103515625,0.040416717529296875,-0.018812477588653564,0.19416311383247375
1683135830507652000,19.018652099609376,-0.039656639099121094,0.14502030611038208,-0.1704612374305725
1683135830525490400,19.036490478515624,-0.02540302276611328,-0.20993298292160034,0.19927936792373657
1683135830543329000,19.0543291015625,0.03657054901123047,0.21197110414505005,-0.1335480958223343
1683135830561166800,19.072166748046875,-0.06876945495605469,-0.16978293657302856,0.11770263314247131
1683135830579007500,19.090007568359376,0.08971500396728516,0.13926613330841064,-0.05472236126661301
1683135830596845000,19.107844970703123,-0.0671529769897461,-0.03105318546295166,0.03669372946023941
1683135830614684400,19.125684326171875,0.018465042114257812,0.10798430442810059,0.09922122210264206
1683135830632523500,19.1435234375,-0.06737136840820312,0.057391583919525146,-0.15458005666732788
1683135830650362000,19.161362060546875,0.032001495361328125,-0.16392958164215088,0.21073320508003235
1683135830668202000,19.179201904296875,0.015895843505859375,0.19417041540145874,-0.18476034700870514
1683135830686038800,19.197038818359374,-0.05483531951904297,-0.16903191804885864,0.17951202392578125
1683135830703864600,19.214864501953127,0.050240516662597656,0.18506252765655518,-0.10207680612802505
1683135830721725200,19.23272509765625,-0.08994388580322266,-0.07971197366714478,0.11852635443210602
1683135830739556400,19.250556396484374,-0.0060577392578125,0.16788625717163086,0.0010120123624801636
1683135830757395700,19.268395751953125,-0.02336406707763672,-0.027963221073150635,-0.07620423287153244
1683135830775232800,19.286232666015625,0.033181190490722656,-0.10168081521987915,0.1621636152267456
1683135830793075000,19.304074951171874,-0.10540485382080078,0.13896828889846802,-0.19842520356178284
1683135830810911000,19.321910888671876,-0.017807960510253906,-0.16216576099395752,0.2019253969192505
1683135830828752000,19.339751953125,0.03615856170654297,0.2070748209953308,-0.19463509321212769
1683135830846578200,19.357578125,-0.08985424041748047,-0.12401080131530762,0.19336572289466858
1683135830864428300,19.37542822265625,0.016412734985351562,0.20587646961212158,-0.07116258144378662
1683135830882266400,19.393266357421876,-0.031494140625,-0.1239195466041565,-0.008470870554447174
1683135830900107500,19.411107421875,-0.016086578369140625,0.05287158489227295,0.1184837594628334
1683135830917930800,19.4289306640625,-0.10404682159423828,0.10410290956497192,-0.17065191268920898
1683135830935783400,19.446783447265624,0.05649566650390625,-0.1455276608467102,0.21218256652355194
1683135830953622800,19.464622802734375,-0.005120277404785156,0.16680705547332764,-0.21556484699249268
1683135830971449600,19.48244970703125,-0.1259441375732422,-0.12958604097366333,0.2114095836877823
1683135830989300700,19.50030078125,0.010260581970214844,0.23215490579605103,-0.17983892560005188
1683135831007139600,19.5181396484375,-0.012213706970214844,-0.18229740858078003,0.09390201419591904
1683135831024978200,19.535978271484375,-0.022329330444335938,0.14857608079910278,0.041785597801208496
1683135831042813200,19.553813232421874,-0.1002206802368164,0.013918519020080566,-0.1419127881526947
1683135831060656000,19.57165625,0.07049942016601562,-0.08729368448257446,0.18436843156814575
1683135831078494500,19.589494384765626,-0.09671306610107422,0.14013618230819702,-0.21749944984912872
1683135831096333600,19.60733349609375,-0.008617401123046875,-0.09675657749176025,0.25645574927330017
1683135831114172400,19.62517236328125,0.07611942291259766,0.19923758506774902,-0.19596561789512634
1683135831132010800,19.6430107421875,-0.06757354736328125,-0.21943843364715576,0.15946999192237854
1683135831149851400,19.660851318359374,-0.021512985229492188,0.20711928606033325,-0.061810001730918884
1683135831167689500,19.678689453125,-0.07080745697021484,-0.0810360312461853,-0.061575278639793396
1683135831185527800,19.69652783203125,0.051609039306640625,-0.018592238426208496,0.12251612544059753
1683135831203362600,19.714362548828124,-0.1482858657836914,0.1062120795249939,-0.17660407721996307
1683135831221205800,19.732205810546876,0.06017589569091797,-0.07321047782897949,0.2303805947303772
1683135831239035000,19.750034912109374,-0.01100921630859375,0.17211860418319702,-0.22926124930381775
1683135831256883700,19.7678837890625,-0.07656288146972656,-0.18978416919708252,0.21969759464263916
1683135831274722600,19.78572265625,0.0236053466796875,0.23958176374435425,-0.1095927357673645
1683135831292561200,19.80356103515625,-0.029473304748535156,-0.16510534286499023,0.052835237234830856
1683135831310398700,19.821398681640623,0.04083251953125,0.04925292730331421,0.061279818415641785
1683135831328230100,19.839230224609373,-0.15425682067871094,0.05602210760116577,-0.12098527699708939
1683135831346078700,19.85707861328125,0.11921882629394531,-0.04235261678695679,0.18069586157798767
1683135831363913000,19.874912841796874,-0.050658226013183594,0.09932416677474976,-0.21379539370536804
1683135831381759200,19.89275927734375,-0.032082557678222656,-0.1432507038116455,0.23793374001979828
1683135831399594800,19.9105947265625,0.035945892333984375,0.2310248613357544,-0.1578766405582428
1683135831417433600,19.92843359375,-0.08606243133544922,-0.21909582614898682,0.09385819733142853
1683135831435272000,19.94627197265625,0.03340435028076172,0.13920891284942627,-0.012989848852157593
1683135831453106200,19.964106201171877,-0.09442901611328125,-0.043375611305236816,-0.019720353186130524
1683135831470949600,19.98194970703125,0.1242532730102539,0.018851935863494873,0.14589515328407288
1683135831488789000,19.9997890625,-0.08757495880126953,0.05270475149154663,-0.15878507494926453
1683135831506621200,20.01762109375,0.0017642974853515625,-0.10394209623336792,0.2257651537656784
1683135831524462000,20.035462158203124,0.02705860137939453,0.1808868646621704,-0.19448113441467285
1683135831542302500,20.053302490234376,-0.08696842193603516,-0.26070600748062134,0.16416841745376587
1683135831560143600,20.0711435546875,0.04656696319580078,0.19749003648757935,-0.08514973521232605
1683135831577986300,20.088986328125,-0.05313396453857422,-0.11518162488937378,0.04910233989357948
1683135831595821600,20.106821533203124,0.06512451171875,0.10934621095657349,0.030859030783176422
1683135831613657900,20.124657958984375,-0.08324813842773438,0.0037987828254699707,-0.06811290979385376
1683135831631498800,20.142498779296876,0.04267597198486328,-0.02586674690246582,0.2142537385225296
1683135831649336800,20.1603369140625,-0.03216266632080078,0.147009015083313,-0.1704408973455429
1683135831667179500,20.178179443359376,-0.03495979309082031,-0.21455180644989014,0.20591826736927032
1683135831685012000,20.196011962890626,0.04243946075439453,0.20918524265289307,-0.14461061358451843
1683135831702858000,20.21385791015625,-0.07090473175048828,-0.15265953540802002,0.10963201522827148
1683135831720682000,20.231681884765624,0.06620025634765625,0.13147729635238647,-0.05496075749397278
1683135831738532900,20.249532958984375,-0.052170753479003906,-0.033645451068878174,0.015764184296131134
1683135831756371200,20.26737109375,0.012119293212890625,0.08724302053451538,0.09890814125537872
1683135831774206000,20.2852060546875,-0.07627391815185547,0.0662534236907959,-0.16093319654464722
1683135831792049000,20.303048828125,0.012165069580078125,-0.19076120853424072,0.21309706568717957
1683135831809888300,20.32088818359375,0.016007423400878906,0.1987892985343933,-0.17198723554611206
1683135831827726800,20.338726806640626,-0.053368568420410156,-0.18213939666748047,0.1820448935031891
1683135831845561300,20.356561279296876,0.05192089080810547,0.17342793941497803,-0.09567762911319733
1683135831863404300,20.374404296875,-0.09229087829589844,-0.07440400123596191,0.11041421443223953
1683135831881243400,20.392243408203125,-0.006258964538574219,0.16412192583084106,0.01413106918334961
1683135831899081200,20.410081298828125,-0.04206562042236328,-0.023717403411865234,-0.09351763874292374
1683135831916921900,20.427921875,0.03704547882080078,-0.1088862419128418,0.16843749582767487
1683135831934760700,20.4457607421875,-0.10771656036376953,0.1456330418586731,-0.2057124823331833
1683135831952598800,20.463598876953125,-0.02377605438232422,-0.15621864795684814,0.20033574104309082
1683135831970436400,20.481436279296876,0.0334930419921875,0.19832366704940796,-0.19493263959884644
1683135831988265200,20.49926513671875,-0.09602546691894531,-0.12227988243103027,0.18623009324073792
1683135832006109400,20.517109375,0.004467964172363281,0.20361775159835815,-0.0632922500371933
1683135832023954400,20.534954345703124,-0.018884658813476562,-0.13158828020095825,-0.018074609339237213
1683135832041789000,20.552788818359375,0.008119583129882812,0.02694326639175415,0.12099986523389816
1683135832059636700,20.57063671875,-0.11159229278564453,0.09381169080734253,-0.16817325353622437
1683135832077470500,20.588470458984375,0.0742645263671875,-0.1455702781677246,0.20179301500320435
1683135832095305000,20.606304931640626,0.006846427917480469,0.1669718623161316,-0.2076074779033661
1683135832113148400,20.6241484375,-0.1171112060546875,-0.1409773826599121,0.2016710340976715
1683135832130975500,20.6419755859375,0.011312484741210938,0.2351137399673462,-0.17012150585651398
1683135832148826000,20.659826171875,-0.016381263732910156,-0.1769734025001526,0.08143942058086395
1683135832166660400,20.677660400390625,-0.019336700439453125,0.11953026056289673,0.05022543668746948
1683135832184503800,20.69550390625,-0.09874629974365234,0.007669687271118164,-0.12613710761070251
1683135832202343000,20.713343017578126,0.08393669128417969,-0.08158773183822632,0.20171111822128296
1683135832220180000,20.731179931640625,-0.09267902374267578,0.1252073049545288,-0.21907737851142883
1683135832238021400,20.749021484375,-0.02468585968017578,-0.11189079284667969,0.2554457187652588
1683135832255859200,20.766859130859373,0.07501792907714844,0.21306544542312622,-0.20012304186820984
1683135832273698600,20.784698486328125,-0.06502342224121094,-0.23142099380493164,0.12978501617908478
1683135832291536000,20.802535888671876,-0.04297447204589844,0.18994510173797607,-0.06398165971040726
1683135832309377000,20.820376953125,-0.07788944244384766,-0.07371455430984497,-0.06269265711307526
1683135832327213600,20.838213623046876,0.07363605499267578,-0.022323250770568848,0.12477076798677444
1683135832345055000,20.856054931640625,-0.1351327896118164,0.11051172018051147,-0.17481474578380585
1683135832362892000,20.87389208984375,0.05811882019042969,-0.06950008869171143,0.24260765314102173
1683135832380730600,20.891730712890624,-0.010741233825683594,0.16159391403198242,-0.2189934402704239
1683135832398570000,20.909570068359375,-0.08223724365234375,-0.1796567440032959,0.21966050565242767
1683135832416404700,20.92740478515625,0.024271011352539062,0.23192530870437622,-0.10407093912363052
1683135832434247400,20.945247314453123,-0.03217124938964844,-0.1563704013824463,0.04792742803692818
1683135832452086500,20.96308642578125,0.04407501220703125,0.052952349185943604,0.060606569051742554
1683135832469925000,20.980925048828126,-0.16390037536621094,0.06030803918838501,-0.13424056768417358
1683135832487753000,20.9987529296875,0.11688518524169922,-0.04316014051437378,0.17996680736541748
1683135832505603000,21.01660302734375,-0.04558086395263672,0.10796558856964111,-0.21249091625213623
1683135832523442000,21.03444189453125,-0.049053192138671875,-0.15825319290161133,0.2351028025150299
1683135832541279700,21.05227978515625,0.0290985107421875,0.22754210233688354,-0.14936816692352295
1683135832559121200,21.07012109375,-0.08130550384521484,-0.2263416051864624,0.09079983085393906
1683135832576958200,21.087958251953125,0.027581214904785156,0.12937933206558228,-0.016108408570289612
1683135832594797000,21.105797119140625,-0.08562374114990234,-0.030859947204589844,-0.01495419442653656
1683135832612636000,21.123635986328125,0.1414175033569336,0.023654520511627197,0.14247912168502808
1683135832630475500,21.1414755859375,-0.08314895629882812,0.054117023944854736,-0.16062268614768982
1683135832648306400,21.159306396484375,-0.022966384887695312,-0.10464602708816528,0.21864643692970276
1683135832666153500,21.177153564453125,0.02988147735595703,0.19928383827209473,-0.18604178726673126
1683135832683987500,21.194987548828124,-0.0757455825805664,-0.25605010986328125,0.15280571579933167
1683135832701834000,21.212833984375,0.045291900634765625,0.18720263242721558,-0.06809744983911514
1683135832719670300,21.230670166015624,-0.0680093765258789,-0.09368985891342163,0.05189959332346916
1683135832737508000,21.248508056640624,0.062114715576171875,0.11161744594573975,0.03737608715891838
1683135832755347200,21.26634716796875,-0.08579635620117188,0.0015606880187988281,-0.08608455955982208
1683135832773173000,21.284173095703125,0.02533245086669922,-0.046316683292388916,0.20912405848503113
1683135832791024400,21.3020244140625,-0.02910137176513672,0.1375141739845276,-0.17828699946403503
1683135832808863700,21.31986376953125,-0.04178905487060547,-0.22265011072158813,0.19943499565124512
1683135832826699000,21.337698974609374,0.044178009033203125,0.2010965347290039,-0.13533514738082886
1683135832844544300,21.355544189453123,-0.06365299224853516,-0.14792537689208984,0.10784918069839478
1683135832862379500,21.373379638671874,0.09328460693359375,0.13116669654846191,-0.05049382895231247
1683135832880217300,21.39121728515625,-0.041595458984375,-0.0408133864402771,0.020418375730514526
1683135832898062800,21.409062744140623,0.006252288818359375,0.07524454593658447,0.12113503366708755
1683135832915896800,21.426896728515626,-0.0766458511352539,0.07111841440200806,-0.16950011253356934
1683135832933730600,21.44473046875,0.0045261383056640625,-0.18473011255264282,0.20694738626480103
1683135832951575000,21.462574951171874,0.0038461685180664062,0.1927313208580017,-0.18420100212097168
1683135832969411800,21.480411865234377,-0.04817390441894531,-0.16217845678329468,0.1898634433746338
1683135832987252000,21.498251953125,0.04912757873535156,0.16865873336791992,-0.0987066924571991
1683135833005090800,21.5160908203125,-0.08355236053466797,-0.0962952971458435,0.08579686284065247
1683135833022929200,21.53392919921875,-0.019346237182617188,0.14958059787750244,0.015756666660308838
1683135833040768500,21.5517685546875,-0.03631877899169922,-0.03363734483718872,-0.10058490186929703
1683135833058607600,21.569607666015624,0.042998313903808594,-0.12000530958175659,0.15868471562862396
1683135833076446000,21.587446044921876,-0.09950923919677734,0.14967364072799683,-0.20185387134552002
1683135833094284500,21.605284423828124,-0.007245063781738281,-0.14745265245437622,0.20128728449344635
1683135833112123600,21.62312353515625,0.047530174255371094,0.19668501615524292,-0.19459183514118195
1683135833129962500,21.64096240234375,-0.08787250518798828,-0.1354886293411255,0.18947972357273102
1683135833147801000,21.658801025390623,0.025836944580078125,0.2037041187286377,-0.047376520931720734
1683135833165640200,21.67664013671875,-0.011095046997070312,-0.12280750274658203,-0.0344838872551918
1683135833183474400,21.694474365234374,0.010300636291503906,-0.01327061653137207,0.13123321533203125
1683135833201318100,21.712318115234375,-0.1290426254272461,0.10514616966247559,-0.18849414587020874
1683135833219156700,21.73015673828125,0.05119609832763672,-0.1574656367301941,0.1930314004421234
1683135833236995300,21.747995361328126,0.010014533996582031,0.1874861717224121,-0.20940294861793518
1683135833254829600,21.76582958984375,-0.13560199737548828,-0.14716780185699463,0.19899627566337585
1683135833272665000,21.7836650390625,0.012721061706542969,0.23293757438659668,-0.15536931157112122
1683135833290511600,21.80151171875,-0.031402587890625,-0.1844683289527893,0.06780886650085449
