time,seconds_elapsed,z,y,x
1683132934531511600,0.185511474609375,0.08710384368896484,-0.443637490272522,0.05384543910622597
1683132934549356800,0.203356689453125,-0.13713836669921875,0.11821937561035156,-0.02422318421304226
1683132934567191300,0.22119140625,0.06946182250976562,-0.4560590386390686,0.10905849933624268
1683132934585030100,0.239030029296875,-0.09011650085449219,0.105255126953125,0.015454775653779507
1683132934602865400,0.256865478515625,0.02890777587890625,-0.42632603645324707,0.1674233227968216
1683132934620710400,0.27471044921875,-0.05675220489501953,0.04780375957489014,-0.041575029492378235
1683132934638547200,0.292547119140625,0.031105995178222656,-0.3374372720718384,0.15153951942920685
1683132934656385300,0.31038525390625,-0.052329063415527344,-0.05921041965484619,-0.09396299719810486
1683132934674222800,0.328222900390625,-0.021953582763671875,-0.27007806301116943,0.19119654595851898
1683132934692061400,0.3460615234375,-0.026801109313964844,-0.1295989751815796,-0.09058108925819397
1683132934709889500,0.3638896484375,-0.03635692596435547,-0.23442530632019043,0.19433750212192535
1683132934727728000,0.38172802734375,0.03143501281738281,-0.15594303607940674,-0.11431483924388885
1683132934745577200,0.3995771484375,-0.032019615173339844,-0.14876067638397217,0.191142737865448
1683132934763416800,0.417416748046875,0.06938743591308594,-0.23769497871398926,-0.10376528650522232
1683132934781254400,0.43525439453125,-0.0857839584350586,-0.04388225078582764,0.165483295917511
1683132934799094000,0.453093994140625,0.14140796661376953,-0.293434739112854,-0.07515036314725876
1683132934816931600,0.470931640625,-0.04821205139160156,-0.04379093647003174,0.14376670122146606
1683132934834771500,0.488771484375,0.10246086120605469,-0.3218272924423218,-0.035981327295303345
1683132934852608800,0.50660888671875,-0.1139364242553711,0.014603972434997559,0.06548149138689041
1683132934870449000,0.524448974609375,0.1405353546142578,-0.40295350551605225,0.020253874361515045
1683132934888285000,0.542284912109375,-0.10679817199707031,0.13416457176208496,0.07602672278881073
1683132934906126800,0.560126953125,0.17805099487304688,-0.4530947804450989,0.0371195487678051
1683132934923960000,0.5779599609375,-0.11208057403564453,0.11475729942321777,0.03238517418503761
1683132934941805000,0.59580517578125,0.12108421325683594,-0.4610459804534912,0.08101023733615875
1683132934959641900,0.613641845703125,-0.10472488403320312,0.11057865619659424,0.016501618549227715
1683132934977480400,0.63148046875,0.12476634979248047,-0.468808114528656,0.10278059542179108
1683132934995317800,0.64931787109375,-0.15347576141357422,0.15249037742614746,0.018632205203175545
1683132935013153000,0.667153076171875,0.10178661346435547,-0.4386500120162964,0.1208634003996849
1683132935030996700,0.684996826171875,-0.08157539367675781,0.09765636920928955,-0.009028451517224312
1683132935048833500,0.70283349609375,0.04223823547363281,-0.3854362964630127,0.14583051204681396
1683132935066672000,0.720672119140625,-0.062172889709472656,-0.018144845962524414,-0.05374074727296829
1683132935084512000,0.738511962890625,0.01929473876953125,-0.31777167320251465,0.18342383205890656
1683132935102349300,0.756349365234375,-0.04423046112060547,-0.07386600971221924,-0.08055634051561356
1683132935120189400,0.774189453125,-0.009495735168457031,-0.2468585968017578,0.19090861082077026
1683132935138026800,0.79202685546875,0.006184577941894531,-0.13608038425445557,-0.09701566398143768
1683132935155855000,0.809855224609375,-0.03432655334472656,-0.16388678550720215,0.20257161557674408
1683132935173703700,0.82770361328125,0.0019683837890625,-0.21863818168640137,-0.1233832985162735
1683132935191543300,0.845543212890625,-0.022269248962402344,-0.12831783294677734,0.18366146087646484
1683132935209381000,0.863381103515625,0.04695701599121094,-0.24082553386688232,-0.1024106964468956
1683132935227220700,0.881220703125,-0.058223724365234375,-0.07538878917694092,0.16791346669197083
1683132935245058600,0.89905859375,0.12617206573486328,-0.3024148941040039,-0.054744452238082886
1683132935262890000,0.916889892578125,-0.13078689575195312,0.020842432975769043,0.12010364979505539
1683132935280738000,0.934738037109375,0.1616687774658203,-0.3768240213394165,0.00270851026289165
1683132935298574800,0.952574951171875,-0.05998706817626953,0.060610294342041016,0.08609871566295624
1683132935316412400,0.970412353515625,0.12244224548339844,-0.4055492877960205,0.014880684204399586
1683132935334247700,0.98824755859375,-0.10960102081298828,0.06222796440124512,0.023566272109746933
1683132935352089000,1.006089111328125,0.13730335235595703,-0.4568015933036804,0.08713201433420181
1683132935369929500,1.023929443359375,-0.14936161041259766,0.15195345878601074,0.04852166026830673
1683132935387764200,1.04176416015625,0.17867374420166016,-0.4805256128311157,0.07984825223684311
1683132935405610000,1.05960986328125,-0.12938880920410156,0.15456044673919678,0.028783634305000305
1683132935423444000,1.07744384765625,0.08118629455566406,-0.46086156368255615,0.09979090094566345
1683132935441283800,1.095283935546875,-0.08789730072021484,0.08632946014404297,-0.01169500034302473
1683132935459121700,1.11312158203125,0.0699005126953125,-0.4312551021575928,0.13528649508953094
1683132935476949000,1.130948974609375,-0.1114492416381836,0.0573272705078125,-0.021261196583509445
1683132935494798600,1.148798583984375,0.017354965209960938,-0.3606370687484741,0.16300465166568756
1683132935512638500,1.166638427734375,-0.036128997802734375,-0.01569998264312744,-0.06586700677871704
1683132935530474200,1.18447412109375,0.035823822021484375,-0.297418475151062,0.177646204829216
1683132935548316000,1.20231591796875,-0.024530410766601562,-0.11812472343444824,-0.0958443135023117
1683132935566154000,1.220154052734375,-0.03423881530761719,-0.2080388069152832,0.2019498646259308
1683132935583988000,1.237988037109375,0.016069412231445312,-0.1694645881652832,-0.11848431825637817
1683132935601825000,1.255824951171875,-0.049767494201660156,-0.16857075691223145,0.21002550423145294
1683132935619669800,1.273669677734375,0.030900955200195312,-0.22173047065734863,-0.10945574194192886
1683132935637507300,1.29150732421875,-0.04712486267089844,-0.08166038990020752,0.172083780169487
1683132935655342000,1.309342041015625,0.10278797149658203,-0.28560686111450195,-0.07625329494476318
1683132935673184800,1.327184814453125,-0.05889892578125,-0.0016551017761230469,0.14685116708278656
1683132935691024100,1.345024169921875,0.12019824981689453,-0.32824134826660156,-0.04396173357963562
1683132935708850000,1.362849853515625,-0.09218692779541016,-0.014806747436523438,0.10028313100337982
1683132935726702300,1.380702392578125,0.13284587860107422,-0.3615131378173828,0.01303767692297697
1683132935744535000,1.39853515625,-0.12510967254638672,0.08245527744293213,0.0554371103644371
1683132935762382300,1.41638232421875,0.15906524658203125,-0.4406239986419678,0.0716278925538063
1683132935780214000,1.434214111328125,-0.12760066986083984,0.16164815425872803,0.05255015939474106
1683132935798058200,1.452058349609375,0.1743001937866211,-0.4714769124984741,0.05237885192036629
1683132935815893000,1.46989306640625,-0.12296867370605469,0.11974287033081055,0.010986177250742912
1683132935833720800,1.487720947265625,0.1134786605834961,-0.45723187923431396,0.1081501841545105
1683132935851570400,1.5055703125,-0.11467647552490234,0.126939058303833,-0.00529297161847353
1683132935869410300,1.523410400390625,0.11265754699707031,-0.4560762643814087,0.10641387104988098
1683132935887247600,1.54124755859375,-0.1305866241455078,0.1300368309020996,0.005996236111968756
1683132935905079800,1.559079833984375,0.0786886215209961,-0.4168952703475952,0.14037153124809265
1683132935922924500,1.576924560546875,-0.05567359924316406,0.035382866859436035,-0.045701876282691956
1683132935940767200,1.594767333984375,0.016016006469726562,-0.34423279762268066,0.1446029245853424
1683132935958581200,1.612581298828125,-0.0796804428100586,-0.05997943878173828,-0.06499812006950378
1683132935976433700,1.63043359375,-0.008984565734863281,-0.2788965702056885,0.18656258285045624
1683132935994279000,1.64827880859375,0.012653350830078125,-0.10364603996276855,-0.10509780049324036
1683132936012119000,1.666119140625,-0.01122283935546875,-0.20108938217163086,0.21602347493171692
1683132936029955300,1.683955322265625,0.015786170959472656,-0.1808147430419922,-0.10536618530750275
1683132936047797200,1.70179736328125,-0.039780616760253906,-0.11353194713592529,0.19500865042209625
1683132936065633500,1.719633544921875,0.07273006439208984,-0.23838567733764648,-0.11589977145195007
1683132936083461600,1.737461669921875,-0.06563377380371094,-0.09334981441497803,0.16812482476234436
1683132936101310200,1.755310302734375,0.0802459716796875,-0.26527833938598633,-0.08147908747196198
1683132936119142400,1.773142333984375,-0.06712722778320312,-0.05060231685638428,0.12352444976568222
1683132936136988000,1.79098779296875,0.09527397155761719,-0.3210594654083252,-0.003467012196779251
1683132936154827500,1.80882763671875,-0.13115882873535156,0.07138919830322266,0.10530661046504974
1683132936172663000,1.8266630859375,0.19755840301513672,-0.3917182683944702,0.011342307552695274
1683132936190509300,1.84450927734375,-0.10593032836914062,0.09008252620697021,0.07175476104021072
1683132936208323300,1.8623232421875,0.14932918548583984,-0.4071488380432129,0.0412631519138813
1683132936226178000,1.880177978515625,-0.11968612670898438,0.08741152286529541,0.0131039097905159
1683132936244020000,1.89802001953125,0.12280464172363281,-0.461642861366272,0.09502267092466354
1683132936261858800,1.91585888671875,-0.1514434814453125,0.17636919021606445,0.024992017075419426
1683132936279697000,1.93369677734375,0.17833709716796875,-0.47120922803878784,0.08567707240581512
1683132936297537800,1.951537841796875,-0.14284420013427734,0.16199719905853271,0.020612340420484543
1683132936315372300,1.969372314453125,0.07788276672363281,-0.4481465220451355,0.10327425599098206
1683132936333213400,1.98721337890625,-0.07911491394042969,0.07114887237548828,-0.02301124483346939
1683132936351038200,2.0050380859375,0.06114768981933594,-0.39502131938934326,0.14833717048168182
1683132936368892000,2.022891845703125,-0.1172628402709961,0.03503215312957764,-0.021865282207727432
1683132936386728200,2.040728271484375,0.04084587097167969,-0.33283746242523193,0.1670890599489212
1683132936404565000,2.05856494140625,-0.034328460693359375,-0.03468215465545654,-0.07488110661506653
1683132936422408700,2.07640869140625,0.0026979446411132812,-0.26848626136779785,0.17775388062000275
1683132936440244700,2.09424462890625,-0.02331066131591797,-0.11256647109985352,-0.0847669169306755
1683132936458082300,2.112082275390625,-0.05431079864501953,-0.1927633285522461,0.20429490506649017
1683132936475922200,2.129922119140625,0.024684906005859375,-0.18896150588989258,-0.11916932463645935
1683132936493756000,2.147755859375,-0.018113136291503906,-0.13720834255218506,0.21133579313755035
1683132936511599000,2.16559912109375,0.020494461059570312,-0.22777438163757324,-0.10563734918832779
1683132936529434000,2.18343408203125,-0.050200462341308594,-0.07027208805084229,0.1740151345729828
1683132936547279600,2.201279541015625,0.10010528564453125,-0.27259790897369385,-0.08034402877092361
1683132936565114400,2.2191142578125,-0.07889270782470703,-0.01934993267059326,0.13262994587421417
1683132936582953700,2.23695361328125,0.11509227752685547,-0.3209317922592163,-0.0482286773622036
1683132936600791600,2.25479150390625,-0.08807659149169922,0.003758549690246582,0.09891418367624283
1683132936618622200,2.272622314453125,0.1625528335571289,-0.3758505582809448,0.016314595937728882
1683132936636469000,2.290468994140625,-0.1401205062866211,0.08925914764404297,0.06483042240142822
1683132936654305300,2.30830517578125,0.16349411010742188,-0.4333919286727905,0.06168133765459061
1683132936672142300,2.326142333984375,-0.11962890625,0.15629780292510986,0.05936241149902344
1683132936689988000,2.343988037109375,0.1497783660888672,-0.4642711877822876,0.05627047270536423
1683132936707823000,2.361822998046875,-0.10889148712158203,0.1296851634979248,0.01309891790151596
1683132936725659600,2.37965966796875,0.1289844512939453,-0.46423041820526123,0.09865263849496841
1683132936743502600,2.397502685546875,-0.1528034210205078,0.14322733879089355,0.005383744835853577
1683132936761339600,2.415339599609375,0.1103353500366211,-0.448494553565979,0.10454192757606506
1683132936779174400,2.43317431640625,-0.11564826965332031,0.14110052585601807,0.01628621108829975
1683132936797020000,2.45102001953125,0.0667428970336914,-0.41104555130004883,0.14073383808135986
1683132936814854400,2.4688544921875,-0.08629703521728516,0.047960638999938965,-0.0420212559401989
1683132936832690200,2.486690185546875,0.038196563720703125,-0.3363550901412964,0.15085209906101227
1683132936850531300,2.50453125,-0.07860088348388672,-0.03374612331390381,-0.05722110718488693
1683132936868370700,2.52237060546875,-0.0037107467651367188,-0.27139008045196533,0.19061759114265442
1683132936886209500,2.54020947265625,-0.010247230529785156,-0.08691751956939697,-0.1048889309167862
1683132936904049000,2.558048828125,0.0073528289794921875,-0.2124882936477661,0.2079101949930191
1683132936921886200,2.57588623046875,0.0036268234252929688,-0.1767253875732422,-0.10414914041757584
1683132936939727400,2.593727294921875,-0.05109691619873047,-0.1288449764251709,0.189914733171463
1683132936957561300,2.611561279296875,0.06665706634521484,-0.24009466171264648,-0.11393474787473679
1683132936975389200,2.62938916015625,-0.05551910400390625,-0.09592306613922119,0.18734140694141388
1683132936993235500,2.6472353515625,0.07158279418945312,-0.2549126148223877,-0.07757139950990677
1683132937011080200,2.665080078125,-0.09681320190429688,-0.04567146301269531,0.14543026685714722
1683132937028917800,2.682917724609375,0.10775089263916016,-0.3115842342376709,-0.028177766129374504
1683132937046757400,2.70075732421875,-0.09176826477050781,0.04700636863708496,0.10878496617078781
1683132937064593400,2.718593505859375,0.1487751007080078,-0.376118540763855,0.013802056200802326
1683132937082435600,2.736435546875,-0.07557106018066406,0.07632434368133545,0.07307661324739456
1683132937100271900,2.75427197265625,0.1426563262939453,-0.3963744640350342,0.03202374652028084
1683132937118112000,2.772112060546875,-0.15048980712890625,0.08686614036560059,0.024737512692809105
1683132937135949300,2.78994921875,0.14237117767333984,-0.4399552345275879,0.0865558609366417
1683132937153789000,2.807788818359375,-0.14434337615966797,0.18349134922027588,0.03551715984940529
1683132937171626200,2.825626220703125,0.14696788787841797,-0.47597968578338623,0.07728474587202072
1683132937189466400,2.84346630859375,-0.13699817657470703,0.16868102550506592,0.019004909321665764
1683132937207303200,2.86130322265625,0.11182785034179688,-0.4556729793548584,0.10249277204275131
1683132937225131800,2.8791318359375,-0.09984588623046875,0.09070312976837158,-0.015812603756785393
1683132937242980400,2.89698046875,0.07748985290527344,-0.4130852222442627,0.13472558557987213
1683132937260814300,2.914814453125,-0.1121358871459961,0.07592856884002686,-0.007002669386565685
1683132937278658000,2.932657958984375,0.041205406188964844,-0.36100220680236816,0.15986673533916473
1683132937296497700,2.95049755859375,-0.05106067657470703,0.008195757865905762,-0.054554298520088196
1683132937314330000,2.968330078125,0.010782241821289062,-0.2761516571044922,0.16811874508857727
1683132937332175600,2.986175537109375,-0.04574108123779297,-0.08968782424926758,-0.08893384039402008
1683132937350012400,3.004012451171875,-0.028690338134765625,-0.2074064016342163,0.20261190831661224
1683132937367852300,3.021852294921875,0.008648872375488281,-0.12383854389190674,-0.10911703109741211
1683132937385689300,3.039689453125,-0.04433917999267578,-0.15020787715911865,0.20702458918094635
1683132937403529000,3.057529052734375,0.04085826873779297,-0.1918267011642456,-0.11644650250673294
1683132937421366500,3.075366455078125,-0.06754016876220703,-0.08488547801971436,0.17551590502262115
1683132937439204900,3.093204833984375,0.10961437225341797,-0.26165246963500977,-0.09277869015932083
1683132937457045800,3.111045654296875,-0.062290191650390625,-0.033082008361816406,0.14820457994937897
1683132937474871000,3.12887109375,0.10196113586425781,-0.29394006729125977,-0.05981655418872833
1683132937492710100,3.146710205078125,-0.0694570541381836,-0.008223891258239746,0.11688431352376938
1683132937510563000,3.16456298828125,0.11294364929199219,-0.3390432596206665,0.006436940282583237
1683132937528386000,3.182385986328125,-0.13129711151123047,0.10170876979827881,0.07167643308639526
1683132937546238000,3.200238037109375,0.17922592163085938,-0.4181112051010132,0.052721139043569565
1683132937564072700,3.21807275390625,-0.13942813873291016,0.14815330505371094,0.05909658223390579
1683132937581914000,3.2359140625,0.16264820098876953,-0.4436807632446289,0.05797634646296501
1683132937599752400,3.25375244140625,-0.12983036041259766,0.12041950225830078,0.012022104114294052
1683132937617592000,3.271592041015625,0.10471153259277344,-0.4433549642562866,0.09032731503248215
1683132937635415600,3.28941552734375,-0.1304340362548828,0.1431053876876831,0.0007141414098441601
1683132937653272000,3.30727197265625,0.12273693084716797,-0.4556313753128052,0.09401650726795197
1683132937671106300,3.325106201171875,-0.1490764617919922,0.13907527923583984,0.024030743166804314
1683132937688947500,3.342947509765625,0.054984092712402344,-0.4328418970108032,0.11732666939496994
1683132937706784300,3.3607841796875,-0.05851936340332031,0.06378233432769775,-0.0366472490131855
1683132937724620800,3.378620849609375,0.019235610961914062,-0.3676469326019287,0.1377716064453125
1683132937742462700,3.396462646484375,-0.09633064270019531,-0.017359375953674316,-0.04464850202202797
1683132937760300300,3.41430029296875,-0.009583473205566406,-0.2777981758117676,0.1817222237586975
1683132937778139600,3.4321396484375,-0.050261497497558594,-0.06778991222381592,-0.0938580185174942
1683132937795977500,3.4499775390625,0.0016536712646484375,-0.22087085247039795,0.1976424604654312
1683132937813816300,3.46781640625,-0.0089263916015625,-0.1459038257598877,-0.10469912737607956
1683132937831655700,3.48565576171875,-0.05200958251953125,-0.1403203010559082,0.18942683935165405
1683132937849491200,3.5034912109375,0.04961585998535156,-0.2127389907836914,-0.12077055871486664
1683132937867317800,3.52131787109375,-0.06208610534667969,-0.0973660945892334,0.19267554581165314
1683132937885170200,3.539170166015625,0.04939842224121094,-0.23551344871520996,-0.09594309329986572
1683132937903010000,3.557010009765625,-0.048374176025390625,-0.03749990463256836,0.15610304474830627
1683132937920844500,3.574844482421875,0.09569168090820312,-0.2866154909133911,-0.055324990302324295
1683132937938677000,3.592677001953125,-0.11416244506835938,0.03586733341217041,0.11329195648431778
1683132937956513000,3.610512939453125,0.14304065704345703,-0.3474639654159546,-0.005276055540889502
1683132937974355200,3.628355224609375,-0.08843421936035156,0.06647634506225586,0.08485434204339981
1683132937992195600,3.646195556640625,0.11983394622802734,-0.39192867279052734,0.026610219851136208
1683132938010029800,3.66402978515625,-0.1473560333251953,0.09454941749572754,0.024507321417331696
1683132938027867400,3.681867431640625,0.15814208984375,-0.4311830401420593,0.07882142812013626
1683132938045721900,3.699721923828125,-0.16606807708740234,0.17631232738494873,0.020652994513511658
1683132938063546000,3.717546142578125,0.17993927001953125,-0.45194315910339355,0.06233926862478256
1683132938081385000,3.735385009765625,-0.1271800994873047,0.16060280799865723,0.013761459849774837
1683132938099228400,3.753228515625,0.0862741470336914,-0.4497593641281128,0.09967786073684692
1683132938117062700,3.771062744140625,-0.11302566528320312,0.11840689182281494,-0.02703993394970894
1683132938134902500,3.788902587890625,0.08725833892822266,-0.4285496473312378,0.12230405956506729
1683132938152749300,3.806749267578125,-0.13541030883789062,0.10859501361846924,-0.010846583172678947
1683132938170579500,3.824579345703125,0.055683135986328125,-0.36459100246429443,0.1399470418691635
1683132938188427500,3.842427490234375,-0.011492729187011719,0.039628028869628906,-0.030651215463876724
1683132938206254600,3.860254638671875,0.006610870361328125,-0.2981224060058594,0.1741628795862198
1683132938224090000,3.878090087890625,-0.06519889831542969,-0.07431483268737793,-0.0785738006234169
1683132938241942000,3.89594189453125,-0.023740768432617188,-0.22831308841705322,0.18292073905467987
1683132938259779000,3.913779052734375,-0.013713836669921875,-0.11613154411315918,-0.12575891613960266
1683132938277612500,3.931612548828125,-0.043437957763671875,-0.17333292961120605,0.19824180006980896
1683132938295459600,3.94945947265625,0.021600723266601562,-0.1901634931564331,-0.11778129637241364
1683132938313296400,3.96729638671875,-0.01958179473876953,-0.0948326587677002,0.18993203341960907
1683132938331122000,3.985121826171875,0.05154609680175781,-0.236902117729187,-0.10945738106966019
1683132938348977000,4.002976806640625,-0.08556079864501953,-0.05040132999420166,0.15158285200595856
1683132938366813700,4.020813720703125,0.08498001098632812,-0.25206315517425537,-0.07113628834486008
1683132938384648200,4.038648193359375,-0.061881065368652344,-0.02141892910003662,0.12320348620414734
1683132938402493400,4.056493408203125,0.08205509185791016,-0.3143728971481323,-0.017891932278871536
1683132938420328400,4.074328369140625,-0.13054943084716797,0.06572997570037842,0.06985661387443542
1683132938438164200,4.092164306640625,0.19631671905517578,-0.39113736152648926,0.030476829037070274
1683132938456006100,4.110006103515625,-0.12639331817626953,0.1253805160522461,0.06494231522083282
1683132938473848300,4.127848388671875,0.14629459381103516,-0.41781556606292725,0.027924351394176483
1683132938491682800,4.145682861328125,-0.1124715805053711,0.08513033390045166,-0.007060948759317398
1683132938509522700,4.163522705078125,0.11353874206542969,-0.42793023586273193,0.09315778315067291
1683132938527349000,4.181348876953125,-0.18215274810791016,0.1741948127746582,0.031203655526041985
1683132938545199600,4.19919970703125,0.14426422119140625,-0.471665620803833,0.08064307272434235
1683132938563032800,4.21703271484375,-0.13912487030029297,0.19489002227783203,0.027303991839289665
1683132938580881400,4.23488134765625,0.09323883056640625,-0.43179547786712646,0.09725817292928696
1683132938598714600,4.252714599609375,-0.12231254577636719,0.10846829414367676,-0.020202748477458954
1683132938616553700,4.2705537109375,0.07035255432128906,-0.39649486541748047,0.12077201157808304
1683132938634391800,4.288391845703125,-0.10941123962402344,0.04865705966949463,-0.021051941439509392
1683132938652230000,4.30622998046875,0.02060985565185547,-0.335263729095459,0.1667931079864502
1683132938670070000,4.324070068359375,-0.06506729125976562,0.006656169891357422,-0.0663052648305893
1683132938687908900,4.341908935546875,0.027256011962890625,-0.2665724754333496,0.1689426749944687
1683132938705746000,4.359745849609375,-0.05724334716796875,-0.0834801197052002,-0.09172786772251129
1683132938723581200,4.377581298828125,-0.03519916534423828,-0.18533051013946533,0.19229701161384583
1683132938741423000,4.395423095703125,0.0034742355346679688,-0.15309226512908936,-0.1102057471871376
1683132938759262700,4.4132626953125,-0.0290374755859375,-0.14756369590759277,0.19102181494235992
1683132938777100500,4.4311005859375,0.02167510986328125,-0.1802610158920288,-0.11945905536413193
1683132938794940700,4.448940673828125,-0.04501819610595703,-0.08844447135925293,0.18843063712120056
1683132938812773400,4.4667734375,0.059899330139160156,-0.27010810375213623,-0.09868671000003815
1683132938830619000,4.484618896484375,-0.08188247680664062,0.0031092166900634766,0.14928646385669708
1683132938848457500,4.50245751953125,0.13203716278076172,-0.3010103702545166,-0.05968841165304184
1683132938866284000,4.520283935546875,-0.077911376953125,-0.0005905628204345703,0.10833357274532318
1683132938884129300,4.53812939453125,0.07705402374267578,-0.32251107692718506,-0.02518356405198574
1683132938901959400,4.55595947265625,-0.11538219451904297,0.057067155838012695,0.038811683654785156
1683132938919809300,4.573809326171875,0.15290355682373047,-0.38841307163238525,0.054989442229270935
1683132938937649400,4.5916494140625,-0.14188671112060547,0.15846121311187744,0.06018851697444916
1683132938955489800,4.60948974609375,0.15331554412841797,-0.4356839656829834,0.038522060960531235
1683132938973322000,4.627322021484375,-0.12918758392333984,0.1719820499420166,0.013644084334373474
1683132938991164000,4.645163818359375,0.13040447235107422,-0.45052504539489746,0.061538152396678925
1683132939008999000,4.6629990234375,-0.15245723724365234,0.13921988010406494,0.008413216099143028
1683132939026840800,4.6808408203125,0.09896564483642578,-0.44690948724746704,0.1067187488079071
1683132939044673300,4.69867333984375,-0.1669473648071289,0.17344450950622559,0.017640504986047745
1683132939062521000,4.71652099609375,0.08111000061035156,-0.43782973289489746,0.10850280523300171
1683132939080358100,4.734358154296875,-0.1188974380493164,0.1316312551498413,-0.008326025679707527
1683132939098196000,4.752196044921875,0.056138038635253906,-0.3783121109008789,0.12561413645744324
1683132939116034800,4.770034912109375,-0.11033153533935547,0.01909494400024414,-0.056354571133852005
1683132939133877800,4.787877685546875,0.006577491760253906,-0.3009047508239746,0.15624617040157318
1683132939151712500,4.80571240234375,-0.060446739196777344,-0.029902219772338867,-0.06674391031265259
1683132939169549300,4.82354931640625,0.011946678161621094,-0.26101601123809814,0.17571569979190826
1683132939187395600,4.8413955078125,-0.03876018524169922,-0.08503639698028564,-0.10869959741830826
1683132939205227300,4.859227294921875,-0.020833969116210938,-0.1581193208694458,0.1916835904121399
1683132939223060500,4.877060546875,0.010467529296875,-0.1738910675048828,-0.11258649080991745
1683132939240907300,4.8949072265625,-0.08093929290771484,-0.09184956550598145,0.1845712959766388
1683132939258749400,4.91274951171875,0.06628894805908203,-0.20141112804412842,-0.11529050767421722
1683132939276581600,4.93058154296875,-0.014455795288085938,-0.07451438903808594,0.1874229609966278
1683132939294417200,4.948417236328125,0.03409862518310547,-0.2430812120437622,-0.07560646533966064
1683132939312259300,4.96625927734375,-0.09171390533447266,0.005359649658203125,0.11628986895084381
1683132939330099000,4.984098876953125,0.13762283325195312,-0.30474352836608887,-0.04937329888343811
1683132939347934700,5.001934814453125,-0.1254262924194336,0.06792938709259033,0.09841214865446091
1683132939365773000,5.01977294921875,0.1403350830078125,-0.35984063148498535,0.0004912503063678741
1683132939383613700,5.03761376953125,-0.08829307556152344,0.0764007568359375,0.04451633244752884
1683132939401453600,5.05545361328125,0.13779830932617188,-0.40059173107147217,0.04544920474290848
1683132939419289600,5.07328955078125,-0.16916275024414062,0.15126609802246094,0.02488933503627777
1683132939437132000,5.091132080078125,0.13442707061767578,-0.4251447916030884,0.07980890572071075
1683132939454968300,5.10896826171875,-0.1674671173095703,0.20339787006378174,0.04039759188890457
1683132939472801300,5.12680126953125,0.16720867156982422,-0.4385938048362732,0.08339020609855652
1683132939490647000,5.14464697265625,-0.13605117797851562,0.1685875654220581,0.011779457330703735
1683132939508486400,5.162486328125,0.06060504913330078,-0.43439817428588867,0.10791348665952682
1683132939526323000,5.180322998046875,-0.11771965026855469,0.13541638851165771,-0.03057059273123741
1683132939544162600,5.19816259765625,0.06798458099365234,-0.39840757846832275,0.11925274133682251
1683132939562000000,5.215999755859375,-0.12144184112548828,0.12240326404571533,-0.009702587500214577
1683132939579839500,5.233839599609375,0.06688880920410156,-0.3283442258834839,0.1392771303653717
1683132939597677300,5.25167724609375,-0.07851028442382812,0.012895703315734863,-0.06375828385353088
1683132939615512000,5.269511962890625,0.011784553527832031,-0.2591651678085327,0.15780793130397797
1683132939633354500,5.2873544921875,-0.047036170959472656,-0.06393301486968994,-0.08278807252645493
1683132939651201800,5.305201904296875,-0.029059410095214844,-0.1942223310470581,0.19254717230796814
1683132939669019600,5.32301953125,-0.008795738220214844,-0.10709071159362793,-0.1230739951133728
1683132939686867200,5.3408671875,-0.005002021789550781,-0.1270076036453247,0.2187526822090149
1683132939704706000,5.3587060546875,0.006771087646484375,-0.18006658554077148,-0.12042329460382462
1683132939722551600,5.376551513671875,-0.08201217651367188,-0.05888187885284424,0.17722755670547485
1683132939740384800,5.394384765625,0.10405921936035156,-0.21880900859832764,-0.11521343141794205
1683132939758224600,5.412224609375,-0.08448314666748047,-0.035422682762145996,0.15763485431671143
1683132939776062000,5.43006201171875,0.061112403869628906,-0.25094008445739746,-0.07295247912406921
1683132939793894700,5.447894775390625,-0.06144142150878906,0.02424335479736328,0.08943016082048416
1683132939811739600,5.46573974609375,0.11139965057373047,-0.3186502456665039,-0.018541067838668823
1683132939829581800,5.483581787109375,-0.1374797821044922,0.11287987232208252,0.07150454819202423
1683132939847418000,5.501418212890625,0.17621421813964844,-0.35920190811157227,0.0351288802921772
1683132939865257700,5.5192578125,-0.12372493743896484,0.1353442668914795,0.056335970759391785
1683132939883094300,5.53709423828125,0.14706707000732422,-0.37374019622802734,0.04315638542175293
1683132939900931800,5.554931884765625,-0.1495380401611328,0.13671386241912842,0.003393520601093769
1683132939918773500,5.5727734375,0.1283864974975586,-0.4128917455673218,0.08107339590787888
1683132939936607500,5.590607421875,-0.1627492904663086,0.20280754566192627,0.010049661621451378
1683132939954450200,5.6084501953125,0.13051223754882812,-0.4382784366607666,0.07515757530927658
1683132939972289000,5.6262890625,-0.1607818603515625,0.19070124626159668,0.012828764505684376
1683132939990127400,5.64412744140625,0.08366680145263672,-0.41665011644363403,0.09665456414222717
1683132940007967200,5.66196728515625,-0.10957717895507812,0.10092723369598389,-0.044588565826416016
1683132940025792300,5.679792236328125,0.07077980041503906,-0.35774660110473633,0.12011291831731796
1683132940043644200,5.69764404296875,-0.08578872680664062,0.06742429733276367,-0.03109092079102993
1683132940061480700,5.715480712890625,0.02223491668701172,-0.3129316568374634,0.16369080543518066
1683132940079322600,5.733322509765625,-0.044699668884277344,0.009360074996948242,-0.07186061143875122
1683132940097158700,5.75115869140625,0.01670551300048828,-0.2489081621170044,0.15680557489395142
1683132940114998500,5.76899853515625,-0.04779624938964844,-0.08745908737182617,-0.0983157753944397
1683132940132831700,5.786831787109375,-0.04740428924560547,-0.1650838851928711,0.19107899069786072
1683132940150676000,5.804676025390625,-0.008257865905761719,-0.1394176483154297,-0.13569512963294983
1683132940168501500,5.82250146484375,-0.0643930435180664,-0.12295031547546387,0.1909501850605011
1683132940186353200,5.840353271484375,0.02364826202392578,-0.18283474445343018,-0.12109442800283432
1683132940204191200,5.858191162109375,-0.03384685516357422,-0.061476826667785645,0.17021821439266205
1683132940222030300,5.8760302734375,0.09399700164794922,-0.23896193504333496,-0.09947250783443451
1683132940239868000,5.893867919921875,-0.12423419952392578,0.014163017272949219,0.1397220939397812
1683132940257707800,5.911707763671875,0.11966800689697266,-0.28100907802581787,-0.06433331221342087
1683132940275533300,5.929533203125,-0.06667804718017578,0.011620402336120605,0.10690321773290634
1683132940293385000,5.947385009765625,0.05547523498535156,-0.31499147415161133,-0.009786664508283138
1683132940311222800,5.965222900390625,-0.13765239715576172,0.09289586544036865,0.04318397864699364
1683132940329050400,5.98305029296875,0.15536785125732422,-0.3786512613296509,0.038308192044496536
1683132940346899700,6.000899658203125,-0.13570213317871094,0.18179857730865479,0.053238049149513245
1683132940364739300,6.0187392578125,0.16814231872558594,-0.4147273302078247,0.04418185353279114
1683132940382577400,6.036577392578125,-0.10837841033935547,0.16118323802947998,0.001290641725063324
1683132940400416800,6.054416748046875,0.1296091079711914,-0.4260057806968689,0.08848502486944199
1683132940418253800,6.07225390625,-0.16677284240722656,0.18542540073394775,-0.002755451016128063
1683132940436080600,6.09008056640625,0.13228893280029297,-0.43243229389190674,0.09077271074056625
1683132940453927200,6.10792724609375,-0.14733123779296875,0.1871492862701416,0.015480444766581059
1683132940471770600,6.1257705078125,0.07975292205810547,-0.4009197950363159,0.1066126599907875
1683132940489610000,6.14360986328125,-0.09792423248291016,0.11566054821014404,-0.0185379758477211
1683132940507449000,6.161448974609375,0.037268638610839844,-0.3594541549682617,0.1224287897348404
1683132940525286400,6.179286376953125,-0.10128307342529297,0.039806485176086426,-0.057565946131944656
1683132940543122400,6.197122314453125,0.0006694793701171875,-0.28678619861602783,0.15443189442157745
1683132940560967400,6.214967529296875,-0.07082843780517578,-0.0004957914352416992,-0.06800401955842972
1683132940578803200,6.23280322265625,0.021215438842773438,-0.2311946153640747,0.17571115493774414
1683132940596640800,6.250640869140625,-0.0401763916015625,-0.05948615074157715,-0.10217373073101044
1683132940614481000,6.26848095703125,-0.014265060424804688,-0.14127075672149658,0.19412855803966522
1683132940632318200,6.286318115234375,0.0032958984375,-0.14212501049041748,-0.12483089417219162
1683132940650157800,6.30415771484375,-0.059617042541503906,-0.09245085716247559,0.18263545632362366
1683132940667995400,6.321995361328125,0.008189201354980469,-0.1650475263595581,-0.12954437732696533
1683132940685834800,6.339834716796875,-0.017702102661132812,-0.056449294090270996,0.18635733425617218
1683132940703668500,6.35766845703125,0.04314231872558594,-0.23754441738128662,-0.0950126051902771
1683132940721512200,6.37551220703125,-0.13066768646240234,0.03377377986907959,0.1263294517993927
1683132940739350000,6.39335009765625,0.1451425552368164,-0.2769981622695923,-0.053195055574178696
1683132940757190000,6.41118994140625,-0.08913612365722656,0.06233072280883789,0.09202094376087189
1683132940775022600,6.429022705078125,0.0979318618774414,-0.295923113822937,-0.02145809307694435
1683132940792866800,6.44686669921875,-0.09218406677246094,0.0723494291305542,0.01848996989428997
1683132940810692000,6.464692138671875,0.13417816162109375,-0.36220884323120117,0.05396959185600281
1683132940828544500,6.48254443359375,-0.1686420440673828,0.18589329719543457,0.04173668846487999
1683132940846383600,6.500383544921875,0.20177364349365234,-0.40724945068359375,0.04407120496034622
1683132940864210000,6.5182099609375,-0.17977523803710938,0.20879876613616943,0.018032006919384003
1683132940882059300,6.536059326171875,0.14654254913330078,-0.4162115454673767,0.07057515531778336
1683132940899896000,6.55389599609375,-0.08326911926269531,0.1715458631515503,0.007869089022278786
1683132940917745400,6.571745361328125,0.0646352767944336,-0.41563355922698975,0.10297707468271255
1683132940935575600,6.589575439453125,-0.13910865783691406,0.17225289344787598,-0.0198955200612545
1683132940953414100,6.6074140625,0.10557174682617188,-0.40083813667297363,0.1115228682756424
1683132940971239400,6.625239501953125,-0.10910701751708984,0.16868185997009277,0.0004810066893696785
1683132940989079600,6.64307958984375,0.05889701843261719,-0.34946298599243164,0.13162358105182648
1683132941006922500,6.660922607421875,-0.07620811462402344,0.0484466552734375,-0.055615298449993134
1683132941024763600,6.678763671875,0.025665283203125,-0.272699236869812,0.14678239822387695
1683132941042609700,6.696609619140625,-0.08824729919433594,-0.018428802490234375,-0.07414525747299194
1683132941060445700,6.71444580078125,-0.027233123779296875,-0.22642958164215088,0.17031770944595337
1683132941078284800,6.732284912109375,0.008894920349121094,-0.05262959003448486,-0.1121966540813446
1683132941096119600,6.75011962890625,-0.021294593811035156,-0.1527348756790161,0.20746585726737976
1683132941113963300,6.76796337890625,-0.018098831176757812,-0.13169646263122559,-0.10990647971630096
1683132941131799600,6.785799560546875,-0.040920257568359375,-0.07380521297454834,0.1870356798171997
1683132941149626600,6.803626708984375,0.052570343017578125,-0.1767200231552124,-0.1312231570482254
1683132941167459600,6.82145947265625,-0.06835556030273438,-0.05528724193572998,0.16748936474323273
1683132941185320400,6.839320556640625,0.053908348083496094,-0.21123290061950684,-0.10203476250171661
1683132941203154000,6.85715380859375,-0.09772491455078125,0.010926961898803711,0.12759464979171753
1683132941220996400,6.874996337890625,0.10335063934326172,-0.2674165964126587,-0.04415091127157211
1683132941238832400,6.892832275390625,-0.10732841491699219,0.08021652698516846,0.0849316269159317
1683132941256672000,6.910672119140625,0.15790271759033203,-0.3186303377151489,-0.007250442169606686
1683132941274509800,6.928509765625,-0.10280227661132812,0.1050788164138794,0.05999937653541565
1683132941292335600,6.946335693359375,0.11607646942138672,-0.36038780212402344,0.016320684924721718
1683132941310187300,6.964187255859375,-0.14336872100830078,0.1286625862121582,0.010455317795276642
1683132941328027000,6.98202685546875,0.1532917022705078,-0.38832688331604004,0.08212687820196152
1683132941345859800,6.99985986328125,-0.16565799713134766,0.2261275053024292,0.028900016099214554
1683132941363690500,7.0176904296875,0.15880680084228516,-0.4224264621734619,0.05454421043395996
1683132941381543400,7.03554345703125,-0.1573781967163086,0.20015573501586914,0.0035834573209285736
1683132941399381800,7.0533818359375,0.11127662658691406,-0.4091121554374695,0.09275425225496292
1683132941417205500,7.07120556640625,-0.10442256927490234,0.15613532066345215,-0.019799459725618362
1683132941435050800,7.08905078125,0.06537151336669922,-0.38681548833847046,0.10652041435241699
1683132941452876300,7.106876220703125,-0.14475631713867188,0.1534029245376587,-0.011304669082164764
1683132941470730200,7.124730224609375,0.06818103790283203,-0.3439844846725464,0.1287573128938675
1683132941488561700,7.142561767578125,-0.079833984375,0.08317875862121582,-0.04826752468943596
1683132941506410200,7.16041015625,0.027154922485351562,-0.28183090686798096,0.13672684133052826
1683132941524244000,7.178243896484375,-0.06413459777832031,0.0017646551132202148,-0.07063959538936615
1683132941542077700,7.19607763671875,-0.04034709930419922,-0.2218458652496338,0.1679227203130722
1683132941559922000,7.213921875,-0.04810523986816406,-0.06141805648803711,-0.122671939432621
1683132941577760300,7.23176025390625,-0.016056060791015625,-0.15507173538208008,0.18527556955814362
1683132941595598300,7.249598388671875,0.009729385375976562,-0.11930763721466064,-0.11802756786346436
1683132941613433300,7.267433349609375,-0.03544807434082031,-0.06692266464233398,0.1812095046043396
1683132941631266800,7.285266845703125,0.022312164306640625,-0.18260979652404785,-0.13298474252223969
1683132941649111800,7.30311181640625,-0.07549667358398438,-0.023789167404174805,0.15711981058120728
1683132941666950400,7.320950439453125,0.07987499237060547,-0.2186523675918579,-0.09670259058475494
1683132941684792600,7.33879248046875,-0.07464790344238281,-0.013851046562194824,0.15520571172237396
1683132941702626300,7.356626220703125,0.0801992416381836,-0.245932936668396,-0.06015753746032715
1683132941720480300,7.374480224609375,-0.13851451873779297,0.08364439010620117,0.07268025726079941
1683132941738314500,7.392314453125,0.13173294067382812,-0.33220112323760986,-0.004922631196677685
1683132941756155600,7.41015576171875,-0.11659717559814453,0.1426783800125122,0.0639893189072609
1683132941773992400,7.427992431640625,0.14873409271240234,-0.3602358102798462,0.013154590502381325
1683132941791830500,7.44583056640625,-0.12187671661376953,0.12933123111724854,-0.005262751132249832
1683132941809668400,7.46366845703125,0.14182758331298828,-0.3920668959617615,0.06799518316984177
1683132941827495700,7.48149560546875,-0.16826438903808594,0.2066868543624878,0.009332958608865738
1683132941845348000,7.49934814453125,0.1433858871459961,-0.4066082835197449,0.06840915977954865
1683132941863187200,7.517187255859375,-0.17979049682617188,0.24063122272491455,0.03166637942194939
1683132941881029000,7.535029052734375,0.12389850616455078,-0.4064997434616089,0.08694647997617722
1683132941898862600,7.552862548828125,-0.12535667419433594,0.18060660362243652,-0.00642120186239481
1683132941916701700,7.57070166015625,0.05915546417236328,-0.3721284866333008,0.1011834368109703
1683132941934531300,7.58853125,-0.11440658569335938,0.11271655559539795,-0.04161745682358742
1683132941952379000,7.60637890625,0.05180931091308594,-0.3364260196685791,0.13426806032657623
1683132941970219500,7.624219482421875,-0.12251758575439453,0.08167994022369385,-0.04740658029913902
1683132941988053800,7.6420537109375,0.04691791534423828,-0.2772374153137207,0.14115726947784424
1683132942005899800,7.659899658203125,-0.0500335693359375,0.007396340370178223,-0.08407120406627655
1683132942023733800,7.677733642578125,-0.03513813018798828,-0.19486010074615479,0.15760664641857147
1683132942041573600,7.69557373046875,-0.028014183044433594,-0.07448971271514893,-0.10718606412410736
1683132942059399400,7.7133994140625,-0.011593818664550781,-0.12452340126037598,0.1928568333387375
1683132942077250800,7.731250732421875,-0.017212867736816406,-0.11501431465148926,-0.1271013468503952
1683132942095088600,7.749088623046875,-0.03512096405029297,-0.07771050930023193,0.19586952030658722
1683132942112924000,7.766923828125,0.03293800354003906,-0.17442679405212402,-0.1214328408241272
1683132942130763000,7.784762939453125,-0.07730388641357422,0.021531343460083008,0.15399569272994995
1683132942148608800,7.80260888671875,0.10392284393310547,-0.23805499076843262,-0.10313036292791367
1683132942166443300,7.820443359375,-0.07662105560302734,0.02838432788848877,0.12372366338968277
1683132942184271000,7.83827099609375,0.07765865325927734,-0.24931979179382324,-0.054764579981565475
1683132942202120700,7.85612060546875,-0.1214141845703125,0.05873417854309082,0.050079744309186935
1683132942219960600,7.873960693359375,0.1210012435913086,-0.3123387098312378,0.024606963619589806
1683132942237798400,7.89179833984375,-0.13886356353759766,0.16998696327209473,0.05764635652303696
1683132942255637800,7.9096376953125,0.1819295883178711,-0.367914080619812,0.04516810178756714
1683132942273474300,7.927474365234375,-0.14821720123291016,0.18008017539978027,0.013047987595200539
1683132942291321000,7.945321044921875,0.14885807037353516,-0.38249439001083374,0.04337907209992409
1683132942309141200,7.963141357421875,-0.13310718536376953,0.1647733449935913,0.00007615704089403152
1683132942326986800,7.98098681640625,0.12006378173828125,-0.399539589881897,0.10074624419212341
1683132942344830000,7.998829833984375,-0.18448448181152344,0.2294316291809082,-0.0005240347236394882
1683132942362666000,8.016666015625,0.1287240982055664,-0.4093782901763916,0.0805264413356781
1683132942380507400,8.03450732421875,-0.14773845672607422,0.207666277885437,-0.0034249573945999146
1683132942398346200,8.05234619140625,0.0558929443359375,-0.3712829351425171,0.09546384960412979
1683132942416185600,8.070185546875,-0.08747100830078125,0.08742845058441162,-0.06082896143198013
1683132942434022100,8.088022216796874,0.015967369079589844,-0.28872740268707275,0.12729285657405853
1683132942451862300,8.1058623046875,-0.11104679107666016,0.04257643222808838,-0.05129527300596237
1683132942469702400,8.123702392578124,0.021816253662109375,-0.25395357608795166,0.16151610016822815
1683132942487535000,8.14153515625,-0.04801750183105469,0.023879051208496094,-0.09803218394517899
1683132942505379300,8.15937939453125,-0.0013360977172851562,-0.18325912952423096,0.16592127084732056
1683132942523214300,8.17721435546875,-0.03562450408935547,-0.08450710773468018,-0.10743043571710587
1683132942541059600,8.1950595703125,-0.06132316589355469,-0.0957646369934082,0.19503909349441528
1683132942558893000,8.21289306640625,0.04041099548339844,-0.1341712474822998,-0.14493590593338013
1683132942576735200,8.2307353515625,-0.050830841064453125,-0.07054769992828369,0.19184640049934387
1683132942594559700,8.248559814453126,0.014225959777832031,-0.16664409637451172,-0.12450797110795975
1683132942612411600,8.26641162109375,-0.08321571350097656,-0.016398191452026367,0.13584595918655396
1683132942630249500,8.28424951171875,0.10510444641113281,-0.22790873050689697,-0.08476364612579346
1683132942648089000,8.302089111328126,-0.10478878021240234,0.06510281562805176,0.11691342294216156
1683132942665926400,8.319926513671875,0.09014606475830078,-0.27224504947662354,-0.032820068299770355
1683132942683763500,8.337763427734375,-0.099029541015625,0.06510639190673828,0.06809718906879425
1683132942701607200,8.355607177734376,0.10303306579589844,-0.29687535762786865,0.004189120605587959
1683132942719443500,8.373443359375,-0.1842508316040039,0.12041866779327393,0.02587626874446869
1683132942737281500,8.391281494140625,0.16497516632080078,-0.36369454860687256,0.05885825678706169
1683132942755116300,8.4091162109375,-0.14847183227539062,0.22168803215026855,0.04128886014223099
1683132942772958000,8.4269580078125,0.16396045684814453,-0.39374667406082153,0.04116801172494888
1683132942790799600,8.444799560546874,-0.1384296417236328,0.197221040725708,-0.010527098551392555
1683132942808635000,8.462634765625,0.11427879333496094,-0.40061700344085693,0.08019604533910751
1683132942826476800,8.480476806640626,-0.13236618041992188,0.18742036819458008,-0.016157668083906174
1683132942844313900,8.49831396484375,0.10018634796142578,-0.40328383445739746,0.09386223554611206
1683132942862153200,8.5161533203125,-0.1618814468383789,0.20074403285980225,0.010447721928358078
1683132942879989500,8.533989501953124,0.1002511978149414,-0.3661356568336487,0.09193313121795654
1683132942897832400,8.55183251953125,-0.10095977783203125,0.1536327600479126,-0.02452608197927475
1683132942915667700,8.569667724609374,0.0355377197265625,-0.32393527030944824,0.10863344371318817
1683132942933507600,8.587507568359374,-0.08705615997314453,0.05819141864776611,-0.061270128935575485
1683132942951346000,8.605345947265626,-0.0005846023559570312,-0.2646998167037964,0.15856744349002838
1683132942969188000,8.62318798828125,-0.09284782409667969,0.01885080337524414,-0.09076723456382751
1683132942987026000,8.64102587890625,0.004990577697753906,-0.18747234344482422,0.16219085454940796
1683132943004859600,8.658859619140625,-0.01948070526123047,-0.05442225933074951,-0.11079638451337814
1683132943022699500,8.676699462890625,-0.03638267517089844,-0.1067802906036377,0.18861016631126404
1683132943040540200,8.6945400390625,0.011370658874511719,-0.11546874046325684,-0.13095784187316895
1683132943058376700,8.712376708984374,-0.05841827392578125,-0.07497894763946533,0.18284112215042114
1683132943076214000,8.730214111328126,0.025948524475097656,-0.13611149787902832,-0.13605988025665283
1683132943094055200,8.74805517578125,-0.03010082244873047,-0.02857375144958496,0.17719075083732605
1683132943111895000,8.76589501953125,0.06386470794677734,-0.19015288352966309,-0.10028348118066788
1683132943129731600,8.783731689453125,-0.11127758026123047,0.05529224872589111,0.1279781013727188
1683132943147571200,8.8015712890625,0.12209606170654297,-0.24797725677490234,-0.05965778976678848
1683132943165409800,8.819409912109375,-0.07337379455566406,0.08477580547332764,0.09282814711332321
1683132943183246800,8.837246826171874,0.08681488037109375,-0.2782278060913086,-0.04082605987787247
1683132943201089000,8.855089111328125,-0.10722064971923828,0.10130977630615234,0.027520103380084038
1683132943218916600,8.87291650390625,0.1567220687866211,-0.3099973201751709,0.04407534748315811
1683132943236764400,8.890764404296876,-0.1634979248046875,0.18854141235351562,0.03476452827453613
1683132943254601700,8.908601806640625,0.19036102294921875,-0.3614621162414551,0.0543232336640358
1683132943272445200,8.926445068359374,-0.15974998474121094,0.23059868812561035,0.013879142701625824
1683132943290282200,8.9442822265625,0.13384246826171875,-0.40862882137298584,0.05514751374721527
1683132943308119600,8.96211962890625,-0.09922504425048828,0.20328021049499512,0.004936520010232925
1683132943325959200,8.979959228515625,0.11409282684326172,-0.3965569734573364,0.09037172794342041
1683132943343796700,8.997796630859375,-0.20508670806884766,0.20218682289123535,-0.014222415164113045
1683132943361636600,9.01563671875,0.1073751449584961,-0.3763946294784546,0.09639914333820343
1683132943379471600,9.0334716796875,-0.12946033477783203,0.21397936344146729,-0.0006943047046661377
1683132943397316900,9.05131689453125,0.050563812255859375,-0.3548828363418579,0.11219339072704315
1683132943415151600,9.069151611328126,-0.0876922607421875,0.12137258052825928,-0.05235632508993149
1683132943432991200,9.0869912109375,0.034603118896484375,-0.27786803245544434,0.13589583337306976
1683132943450815700,9.104815673828124,-0.10718536376953125,0.0543363094329834,-0.06603839993476868
1683132943468672300,9.12267236328125,-0.03322601318359375,-0.22520601749420166,0.17184828221797943
1683132943486504700,9.140504638671874,-0.024297714233398438,0.008405566215515137,-0.10067860037088394
1683132943504336400,9.15833642578125,-0.012202262878417969,-0.16901206970214844,0.1786847859621048
1683132943522182700,9.1761826171875,-0.03410148620605469,-0.074623703956604,-0.13201430439949036
1683132943540024800,9.19402490234375,-0.06317996978759766,-0.08450007438659668,0.1785612255334854
1683132943557861000,9.211861083984376,0.040996551513671875,-0.1333104372024536,-0.14262177050113678
1683132943575701000,9.229700927734376,-0.068572998046875,-0.06350255012512207,0.18555501103401184
1683132943593538800,9.247538818359375,0.03677558898925781,-0.15124797821044922,-0.12427473068237305
1683132943611378400,9.26537841796875,-0.06551933288574219,-0.00905907154083252,0.1638912409543991
1683132943629204500,9.28320458984375,0.07578754425048828,-0.2029428482055664,-0.10997556149959564
1683132943647056000,9.301055908203125,-0.11701679229736328,0.08042240142822266,0.11164157837629318
1683132943664893400,9.3188935546875,0.11536598205566406,-0.264390230178833,-0.04100257530808449
1683132943682730000,9.33672998046875,-0.051751136779785156,0.09549200534820557,0.10511798411607742
1683132943700562200,9.354562255859374,0.08309459686279297,-0.2715339660644531,-0.02422100305557251
1683132943718411000,9.372410888671874,-0.12879085540771484,0.10177779197692871,0.016780726611614227
1683132943736248000,9.390248046875,0.1480398178100586,-0.32210099697113037,0.04066840559244156
1683132943754087200,9.408087158203125,-0.1512889862060547,0.21989333629608154,0.04036042094230652
1683132943771924700,9.4259248046875,0.16826629638671875,-0.3771820068359375,0.046691298484802246
1683132943789764900,9.443764892578125,-0.1398477554321289,0.2347259521484375,0.021419433876872063
1683132943807593200,9.46159326171875,0.1438617706298828,-0.39614832401275635,0.06359158456325531
1683132943825442800,9.47944287109375,-0.1306896209716797,0.20282530784606934,-0.009577402845025063
1683132943843273000,9.49727294921875,0.10431194305419922,-0.3712879419326782,0.09395650029182434
1683132943861123300,9.515123291015625,-0.19413280487060547,0.21920621395111084,-0.016396310180425644
1683132943878957600,9.53295751953125,0.1206064224243164,-0.3699989318847656,0.09722961485385895
1683132943896797400,9.55079736328125,-0.11939525604248047,0.20185649394989014,0.003225468099117279
1683132943914632400,9.568632568359375,0.0416412353515625,-0.3453735113143921,0.100998155772686
1683132943932479200,9.586479248046874,-0.07819747924804688,0.10991764068603516,-0.05734822154045105
1683132943950312000,9.60431201171875,0.054862022399902344,-0.2728315591812134,0.12024249136447906
1683132943968152600,9.622152587890625,-0.10708999633789062,0.06512916088104248,-0.060627128928899765
1683132943985990100,9.639990234375,0.027967453002929688,-0.23156332969665527,0.16122488677501678
1683132944003816400,9.65781640625,-0.055077552795410156,0.01705777645111084,-0.1018640547990799
1683132944021670400,9.67567041015625,-0.0058193206787109375,-0.16003501415252686,0.16552115976810455
1683132944039506400,9.69350634765625,-0.018415451049804688,-0.079193115234375,-0.12262321263551712
1683132944057344500,9.711344482421875,-0.0849771499633789,-0.08012819290161133,0.19014523923397064
1683132944075184600,9.7291845703125,0.025855064392089844,-0.11670041084289551,-0.14805863797664642
1683132944093017600,9.747017578125,-0.050627708435058594,-0.07528531551361084,0.18771477043628693
1683132944110861800,9.76486181640625,0.026251792907714844,-0.13907337188720703,-0.11483264714479446
1683132944128700000,9.782699951171875,-0.06060600280761719,-0.0016154050827026367,0.16542334854602814
1683132944146539500,9.80053955078125,0.08760547637939453,-0.21179306507110596,-0.11693648993968964
1683132944164369400,9.818369384765624,-0.0952920913696289,0.07390773296356201,0.12407790869474411
1683132944182220000,9.836219970703125,0.100555419921875,-0.24094605445861816,-0.061125561594963074
1683132944200054300,9.85405419921875,-0.06650733947753906,0.07842564582824707,0.09891016036272049
1683132944217894100,9.87189404296875,0.08372783660888672,-0.26597917079925537,-0.029014287516474724
1683132944235718700,9.88971875,-0.14303302764892578,0.1076585054397583,0.03008425422012806
1683132944253571600,9.907571533203125,0.1590433120727539,-0.3316075801849365,0.02263324148952961
1683132944271389700,9.9253896484375,-0.1681060791015625,0.20253324508666992,0.030244288966059685
1683132944289251000,9.9432509765625,0.18671894073486328,-0.36485373973846436,0.021353211253881454
1683132944307088000,9.961087890625,-0.11945247650146484,0.208227276802063,0.007473114877939224
1683132944324926500,9.978926513671874,0.13071632385253906,-0.3710595965385437,0.05536046624183655
1683132944342760700,9.9967607421875,-0.14769458770751953,0.1968916654586792,-0.015298640355467796
1683132944360592100,10.014592041015625,0.13235092163085938,-0.37849533557891846,0.08710221201181412
1683132944378441700,10.032441650390625,-0.20630931854248047,0.2586125135421753,0.0014478806406259537
1683132944396278500,10.050278564453125,0.1175985336303711,-0.35716187953948975,0.08607114106416702
1683132944414117000,10.0681171875,-0.11829566955566406,0.2038043737411499,-0.0004150085151195526
1683132944431958800,10.085958740234375,0.052374839782714844,-0.3423680067062378,0.09720098227262497
1683132944449796600,10.103796630859375,-0.07979393005371094,0.12316453456878662,-0.06042781099677086
1683132944467623400,10.12162353515625,0.046105384826660156,-0.2903395891189575,0.11570674180984497
1683132944485468200,10.13946826171875,-0.10172843933105469,0.08867847919464111,-0.04878455400466919
1683132944503302700,10.157302734375,0.019947052001953125,-0.22822237014770508,0.15607836842536926
1683132944521154000,10.175154052734374,-0.03828239440917969,0.04275166988372803,-0.08121168613433838
1683132944538990300,10.192990234375,-0.00032806396484375,-0.16803717613220215,0.16749542951583862
1683132944556829200,10.2108291015625,-0.01964282989501953,-0.03497803211212158,-0.10892427712678909
1683132944574668300,10.228668212890625,-0.040711402893066406,-0.09279084205627441,0.17862673103809357
1683132944592502800,10.246502685546876,-0.011083602905273438,-0.0854870080947876,-0.14748093485832214
1683132944610344400,10.264344482421874,-0.035180091857910156,-0.06869494915008545,0.19497965276241302
1683132944628184800,10.282184814453124,0.016187667846679688,-0.14471006393432617,-0.13893325626850128
1683132944646020600,10.3000205078125,-0.06224536895751953,0.0011004209518432617,0.146259143948555
1683132944663852500,10.3178525390625,0.07007694244384766,-0.18908631801605225,-0.12971705198287964
1683132944681703200,10.335703125,-0.11095714569091797,0.0452343225479126,0.12262796610593796
1683132944699538000,10.353537841796875,0.10994815826416016,-0.20060908794403076,-0.0674751028418541
1683132944717367000,10.371366943359375,-0.07611465454101562,0.059854865074157715,0.11632855236530304
1683132944735211000,10.3892109375,0.07488632202148438,-0.25102698802948,-0.03463512659072876
1683132944753055200,10.40705517578125,-0.13372516632080078,0.12894833087921143,0.038111887872219086
1683132944770893600,10.4248935546875,0.1586437225341797,-0.31332385540008545,0.01595502346754074
1683132944788733400,10.4427333984375,-0.13025474548339844,0.20636165142059326,0.044503480195999146
1683132944806564900,10.46056494140625,0.1552581787109375,-0.35531413555145264,0.01493271254003048
1683132944824411600,10.47841162109375,-0.13134193420410156,0.17458844184875488,-0.004390517249703407
1683132944842248200,10.496248291015625,0.149688720703125,-0.35292118787765503,0.05898546427488327
1683132944860086300,10.514086181640625,-0.15314006805419922,0.21733176708221436,-0.02264546975493431
1683132944877926100,10.531926025390625,0.12412166595458984,-0.37010520696640015,0.07131191343069077
1683132944895765000,10.549764892578125,-0.18435096740722656,0.27094054222106934,0.013552771881222725
1683132944913593600,10.567593505859374,0.12172889709472656,-0.3803454041481018,0.0842866450548172
1683132944931431000,10.585430908203126,-0.11244010925292969,0.21319162845611572,-0.009589584544301033
1683132944949271300,10.603271240234376,0.07454299926757812,-0.32914531230926514,0.0879804864525795
1683132944967108900,10.62110888671875,-0.1190652847290039,0.13932442665100098,-0.06729859858751297
1683132944984951300,10.638951416015624,0.06636714935302734,-0.2845190763473511,0.110747329890728
1683132945002793200,10.656793212890625,-0.12538433074951172,0.14622128009796143,-0.03409203886985779
1683132945020626000,10.6746259765625,0.028776168823242188,-0.26044201850891113,0.14178842306137085
1683132945038465300,10.69246533203125,-0.061982154846191406,0.06483733654022217,-0.08109970390796661
1683132945056302300,10.71030224609375,0.038138389587402344,-0.15204846858978271,0.14009369909763336
1683132945074143700,10.728143798828125,-0.06082439422607422,-0.043297410011291504,-0.11976496875286102
1683132945091979000,10.74597900390625,-0.061862945556640625,-0.10787749290466309,0.19212651252746582
1683132945109818400,10.763818359375,0.038715362548828125,-0.07049155235290527,-0.1335131824016571
1683132945127656400,10.781656494140625,-0.04175376892089844,-0.07277989387512207,0.19987808167934418
1683132945145499600,10.799499755859374,0.0078067779541015625,-0.12188971042633057,-0.1452713906764984
1683132945163337200,10.817337158203125,-0.04979991912841797,0.0008519887924194336,0.15196901559829712
1683132945181169700,10.835169677734376,0.0793609619140625,-0.17170274257659912,-0.1282711923122406
1683132945199025400,10.853025390625,-0.08693504333496094,0.04161238670349121,0.14897847175598145
1683132945216861700,10.87086181640625,0.09974479675292969,-0.18912088871002197,-0.0884387418627739
1683132945234699500,10.888699462890624,-0.09344959259033203,0.05889606475830078,0.11304168403148651
1683132945252536000,10.9065361328125,0.08260917663574219,-0.22856998443603516,-0.06147485971450806
1683132945270379500,10.924379638671875,-0.1258401870727539,0.1350398063659668,0.05644610524177551
1683132945288202000,10.942201904296875,0.1632404327392578,-0.3039214611053467,0.0014191139489412308
1683132945306057000,10.960056884765624,-0.12370014190673828,0.1906825304031372,0.0503336638212204
1683132945323891000,10.977890869140625,0.15570545196533203,-0.3384660482406616,0.011514969170093536
1683132945341734700,10.995734619140626,-0.10866928100585938,0.16722488403320312,-0.01886642910540104
1683132945359571700,11.01357177734375,0.13181114196777344,-0.3428543210029602,0.06069578230381012
1683132945377397000,11.03139697265625,-0.18898391723632812,0.23716223239898682,-0.000782262533903122
1683132945395249200,11.049249267578125,0.1787576675415039,-0.3719581365585327,0.07093556970357895
1683132945413086200,11.067086181640626,-0.18416118621826172,0.27096331119537354,0.01131848618388176
1683132945430924300,11.08492431640625,0.12302875518798828,-0.3770608901977539,0.060655929148197174
1683132945448766200,11.10276611328125,-0.08715057373046875,0.20565307140350342,-0.021855561062693596
1683132945466603800,11.120603759765626,0.0635519027709961,-0.35477912425994873,0.08835528045892715
1683132945484441000,11.138441162109375,-0.1527853012084961,0.16781508922576904,-0.04684220999479294
1683132945502268400,11.156268310546874,0.09807300567626953,-0.31644606590270996,0.10229979455471039
1683132945520120000,11.1741201171875,-0.11061859130859375,0.16260600090026855,-0.02697351574897766
1683132945537958700,11.191958740234375,0.036162376403808594,-0.25782179832458496,0.13858391344547272
1683132945555796000,11.2097958984375,-0.08224201202392578,0.07014811038970947,-0.07667656242847443
1683132945573631000,11.227630859375,0.01654529571533203,-0.18159103393554688,0.14025217294692993
1683132945591473400,11.245473388671876,-0.06269359588623047,0.0006099939346313477,-0.10029727220535278
1683132945609301500,11.263301513671875,-0.06256103515625,-0.13538718223571777,0.17535854876041412
1683132945627150800,11.28115087890625,-0.012513160705566406,-0.05055427551269531,-0.13699348270893097
1683132945644990700,11.29899072265625,0.013440132141113281,-0.07484114170074463,0.19337669014930725
1683132945662824200,11.31682421875,-0.008935928344726562,-0.11421990394592285,-0.13928423821926117
1683132945680670000,11.334669921875,-0.0856180191040039,-0.009042024612426758,0.16036197543144226
1683132945698504200,11.352504150390626,0.07780265808105469,-0.1371004581451416,-0.1412489116191864
1683132945716345300,11.370345458984374,-0.08757877349853516,0.011339783668518066,0.14673975110054016
1683132945734183400,11.388183349609376,0.04914569854736328,-0.17586874961853027,-0.09223908185958862
1683132945752018700,11.406018798828125,-0.07534313201904297,0.051126837730407715,0.13065390288829803
1683132945769860600,11.423860595703125,0.10253143310546875,-0.22691595554351807,-0.06737866252660751
1683132945787688700,11.441688720703125,-0.1512746810913086,0.13996648788452148,0.07054280489683151
1683132945805537800,11.459537841796875,0.15881633758544922,-0.2803788185119629,-0.007274730131030083
1683132945823373000,11.477373046875,-0.08347225189208984,0.16448640823364258,0.05461700260639191
1683132945841215200,11.49521533203125,0.10760784149169922,-0.30808544158935547,0.010685279965400696
1683132945859043600,11.513043701171876,-0.11913871765136719,0.1666722297668457,-0.009644784033298492
1683132945876892400,11.530892333984376,0.14716053009033203,-0.34223872423171997,0.060090817511081696
1683132945894727400,11.5487275390625,-0.20130252838134766,0.2591639757156372,0.0009656883776187897
1683132945912570400,11.5665703125,0.15145301818847656,-0.3762592077255249,0.04448722302913666
1683132945930410000,11.584409912109376,-0.1550006866455078,0.26553022861480713,0.005543863400816917
1683132945948246500,11.60224658203125,0.1316242218017578,-0.3722316026687622,0.061043448746204376
1683132945966088200,11.620088134765625,-0.1117095947265625,0.21489834785461426,-0.027891632169485092
1683132945983924700,11.6379248046875,0.09716415405273438,-0.3483397960662842,0.0847257524728775
1683132946001752800,11.6557529296875,-0.15713214874267578,0.19890034198760986,-0.038862526416778564
1683132946019599600,11.673599609375,0.09404563903808594,-0.3175727128982544,0.11550384014844894
1683132946037445000,11.691445068359375,-0.12639904022216797,0.18329644203186035,-0.029487257823348045
1683132946055279600,11.709279541015626,0.053503990173339844,-0.27621185779571533,0.11057410389184952
1683132946073118500,11.727118408203125,-0.04467964172363281,0.09170913696289062,-0.06730203330516815
1683132946090958300,11.744958251953125,0.010104179382324219,-0.19954311847686768,0.12954005599021912
1683132946108797000,11.762796875,-0.07511138916015625,0.02339613437652588,-0.10147085785865784
1683132946126634200,11.78063427734375,-0.01113128662109375,-0.13972771167755127,0.16584894061088562
1683132946144469800,11.7984697265625,-0.004955291748046875,-0.014248013496398926,-0.12512771785259247
1683132946162312200,11.816312255859375,-0.0028390884399414062,-0.07280492782592773,0.2063758373260498
1683132946180151600,11.834151611328124,-0.005654335021972656,-0.08158755302429199,-0.1406678408384323
1683132946197988900,11.85198876953125,-0.07539749145507812,-0.01240074634552002,0.16996288299560547
1683132946215824400,11.869824462890625,0.07189273834228516,-0.12864482402801514,-0.14433427155017853
1683132946233666600,11.88766650390625,-0.0655364990234375,0.0028575658798217773,0.1603805273771286
1683132946251506700,11.905506591796875,0.028975486755371094,-0.1543433666229248,-0.11353670805692673
1683132946269343000,11.923343017578125,-0.07143402099609375,0.056780338287353516,0.11152665317058563
1683132946287185200,11.94118505859375,0.08911991119384766,-0.2271655797958374,-0.07084978371858597
1683132946305021400,11.959021484375,-0.1391773223876953,0.12664544582366943,0.07796546816825867
1683132946322860300,11.9768603515625,0.16492652893066406,-0.264545202255249,-0.025712110102176666
1683132946340700000,11.994699951171874,-0.10016441345214844,0.14556026458740234,0.054818056523799896
1683132946358538500,12.01253857421875,0.08699703216552734,-0.2966543436050415,-0.0007259845733642578
1683132946376376600,12.03037646484375,-0.12515735626220703,0.17993497848510742,-0.007289936766028404
1683132946394201300,12.048201416015624,0.14157676696777344,-0.3292543888092041,0.07392098009586334
1683132946412053500,12.066053466796875,-0.19817638397216797,0.2584865093231201,0.013716718181967735
1683132946429894100,12.08389404296875,0.17032146453857422,-0.3699420690536499,0.031368646770715714
1683132946447715000,12.101715087890625,-0.12096023559570312,0.2593585252761841,-0.011089881882071495
1683132946465570000,12.119570068359375,0.11389446258544922,-0.3720657229423523,0.057575780898332596
1683132946483408400,12.137408447265624,-0.15721416473388672,0.21459269523620605,-0.025064414367079735
1683132946501248300,12.155248291015624,0.10436248779296875,-0.35962796211242676,0.09024412930011749
1683132946519074000,12.173073974609375,-0.16989612579345703,0.22021842002868652,-0.014593727886676788
1683132946536925700,12.19092578125,0.06436443328857422,-0.3288639783859253,0.10687746852636337
1683132946554763000,12.208762939453125,-0.09515857696533203,0.18526697158813477,-0.028549663722515106
1683132946572600000,12.22660009765625,0.046517372131347656,-0.2858595848083496,0.09191486239433289
1683132946590442800,12.24444287109375,-0.08081245422363281,0.08247220516204834,-0.08056077361106873
1683132946608274400,12.2622744140625,0.013344764709472656,-0.20556414127349854,0.12775453925132751
1683132946626121000,12.280120849609375,-0.059426307678222656,0.04608333110809326,-0.08291083574295044
1683132946643956700,12.297956787109374,-0.002094268798828125,-0.16183900833129883,0.16487261652946472
1683132946661796000,12.315796142578124,-0.029901504516601562,-0.00040531158447265625,-0.12218219041824341
1683132946679632100,12.333632080078125,-0.0010652542114257812,-0.09121131896972656,0.1934669315814972
1683132946697475800,12.351475830078124,-0.01721668243408203,-0.07111454010009766,-0.1352834552526474
1683132946715312400,12.3693125,-0.07897758483886719,-0.01747739315032959,0.18700869381427765
1683132946733150000,12.38714990234375,0.06843376159667969,-0.12314283847808838,-0.14738936722278595
1683132946750983200,12.404983154296875,-0.05301666259765625,0.0062683820724487305,0.16779406368732452
1683132946768827600,12.42282763671875,0.026800155639648438,-0.16028261184692383,-0.12904055416584015
1683132946786662400,12.440662353515625,-0.09381771087646484,0.041473388671875,0.13010349869728088
1683132946804505300,12.45850537109375,0.1272258758544922,-0.19424426555633545,-0.06681596487760544
1683132946822342000,12.476341796875,-0.11593437194824219,0.1223609447479248,0.09741580486297607
1683132946840185000,12.49418505859375,0.1359386444091797,-0.24132966995239258,-0.033647872507572174
1683132946858022100,12.512022216796876,-0.07626152038574219,0.12764489650726318,0.06556238234043121
1683132946875847700,12.52984765625,0.09846019744873047,-0.2747105360031128,-0.0003043394535779953
1683132946893699300,12.54769921875,-0.1443614959716797,0.1637718677520752,0.0016515236347913742
1683132946911536000,12.5655361328125,0.15766334533691406,-0.312358021736145,0.03909458965063095
1683132946929378300,12.58337841796875,-0.1629657745361328,0.2640622854232788,0.027534540742635727
1683132946947214300,12.60121435546875,0.16776275634765625,-0.37665003538131714,0.03666567802429199
1683132946965056800,12.619056884765625,-0.1319408416748047,0.25431573390960693,-0.00426928885281086
1683132946982888700,12.636888671875,0.14824199676513672,-0.3523544669151306,0.05451546609401703
1683132947000734500,12.654734375,-0.15093612670898438,0.23560082912445068,-0.028806118294596672
1683132947018569000,12.67256884765625,0.11697101593017578,-0.3542422652244568,0.08198212832212448
1683132947036397000,12.69039697265625,-0.14256668090820312,0.26596975326538086,0.004885533824563026
1683132947054246700,12.70824658203125,0.06522178649902344,-0.34974920749664307,0.11114242672920227
1683132947072086500,12.72608642578125,-0.0942087173461914,0.21560752391815186,-0.015374615788459778
1683132947089920800,12.743920654296875,0.06624221801757812,-0.2924693822860718,0.07485011219978333
1683132947107767300,12.761767333984375,-0.10011863708496094,0.10439181327819824,-0.08403230458498001
1683132947125601300,12.779601318359376,0.03630542755126953,-0.23751437664031982,0.11959666013717651
1683132947143439600,12.797439697265625,-0.07514572143554688,0.07419276237487793,-0.07291070371866226
1683132947161278500,12.815278564453125,-0.00255584716796875,-0.18062233924865723,0.15609189867973328
1683132947179104000,12.83310400390625,-0.053864479064941406,0.027350544929504395,-0.10410794615745544
1683132947196947200,12.850947265625,-0.008303642272949219,-0.08511567115783691,0.15972323715686798
1683132947214796000,12.868796142578125,-0.012332916259765625,-0.04887974262237549,-0.13202092051506042
1683132947232633300,12.88663330078125,-0.06575489044189453,-0.03720533847808838,0.1849156767129898
1683132947250461400,12.90446142578125,0.03243541717529297,-0.08925008773803711,-0.14472724497318268
1683132947268310300,12.922310302734376,-0.03243446350097656,-0.02538752555847168,0.19126415252685547
1683132947286151700,12.940151611328124,0.024209976196289062,-0.13736999034881592,-0.12807874381542206
1683132947303988000,12.957988037109375,-0.08373641967773438,0.0440669059753418,0.12430468201637268
1683132947321827800,12.975827880859375,0.1069936752319336,-0.17710793018341064,-0.09762393683195114
1683132947339662600,12.99366259765625,-0.09781551361083984,0.10062539577484131,0.11134546995162964
1683132947357508900,13.0115087890625,0.0855398178100586,-0.21904528141021729,-0.05189720168709755
1683132947375342800,13.0293427734375,-0.0631418228149414,0.10403132438659668,0.06578227877616882
1683132947393183000,13.047182861328125,0.09534263610839844,-0.24306821823120117,-0.012885084375739098
1683132947411008300,13.06500830078125,-0.16683292388916016,0.164298415184021,0.02195306494832039
1683132947428860400,13.0828603515625,0.16252613067626953,-0.31570887565612793,0.03420758992433548
1683132947446697700,13.10069775390625,-0.1322803497314453,0.265622615814209,0.018630152568221092
1683132947464534300,13.1185341796875,0.16331958770751953,-0.3492746353149414,0.02565973997116089
1683132947482378000,13.1363779296875,-0.11594200134277344,0.20996427536010742,-0.03808320313692093
1683132947500214800,13.15421484375,0.1435403823852539,-0.3441474437713623,0.057230621576309204
1683132947518041900,13.172041748046874,-0.1330585479736328,0.22922039031982422,-0.031784795224666595
1683132947535883500,13.189883544921875,0.13347721099853516,-0.3516414165496826,0.07799233496189117
1683132947553725400,13.207725341796875,-0.1734752655029297,0.28666651248931885,0.016301006078720093
1683132947571568400,13.225568359375,0.11248588562011719,-0.3493964672088623,0.08633366972208023
1683132947589408800,13.24340869140625,-0.0798501968383789,0.21588170528411865,-0.025623926892876625
1683132947607247000,13.2612470703125,0.04375934600830078,-0.29451918601989746,0.0886477455496788
1683132947625084400,13.27908447265625,-0.08711910247802734,0.12754356861114502,-0.0637795478105545
1683132947642922000,13.296921875,0.05370903015136719,-0.2607465982437134,0.1237022802233696
1683132947660752600,13.314752685546875,-0.11207008361816406,0.09568583965301514,-0.06772512942552567
1683132947678600400,13.332600341796875,0.026212692260742188,-0.19420886039733887,0.1427898108959198
1683132947696440800,13.35044091796875,-0.018197059631347656,0.014313340187072754,-0.11940456926822662
1683132947714279200,13.368279052734374,-0.022314071655273438,-0.11231851577758789,0.14966149628162384
1683132947732117000,13.386116943359376,-0.024183273315429688,-0.039011478424072266,-0.12938043475151062
1683132947749956600,13.40395654296875,-0.03596305847167969,-0.07011234760284424,0.17918649315834045
1683132947767794200,13.421794189453125,0.015285491943359375,-0.06967484951019287,-0.15451642870903015
1683132947785633800,13.4396337890625,-0.02952289581298828,-0.02654862403869629,0.19029487669467926
1683132947803471400,13.457471435546875,0.016893386840820312,-0.13511109352111816,-0.13952793180942535
1683132947821311000,13.47531103515625,-0.09915733337402344,0.06612205505371094,0.14176006615161896
1683132947839148800,13.493148681640625,0.10526084899902344,-0.18022334575653076,-0.1224234327673912
1683132947856985600,13.510985595703126,-0.08077239990234375,0.08823037147521973,0.11383231729269028
1683132947874824400,13.528824462890626,0.10726451873779297,-0.19902169704437256,-0.06491418927907944
1683132947892665600,13.54666552734375,-0.0870981216430664,0.10362589359283447,0.07572706043720245
1683132947910503200,13.564503173828125,0.12469100952148438,-0.24489998817443848,-0.02452765591442585
1683132947928342500,13.582342529296875,-0.1267843246459961,0.1888660192489624,0.03762848675251007
1683132947946181600,13.600181640625,0.14261722564697266,-0.3065369129180908,0.027873670682311058
1683132947964019000,13.61801904296875,-0.12439632415771484,0.24659264087677002,0.030317461118102074
1683132947981851000,13.635850830078125,0.1894092559814453,-0.33341479301452637,0.029164331033825874
1683132947999684600,13.6536845703125,-0.12936973571777344,0.21185684204101562,-0.028659958392381668
1683132948017538300,13.671538330078125,0.12864017486572266,-0.35031193494796753,0.058624885976314545
1683132948035375400,13.689375244140624,-0.13980865478515625,0.25944459438323975,-0.01129661500453949
1683132948053213200,13.707213134765626,0.13431072235107422,-0.3626376986503601,0.0617525540292263
1683132948071053000,13.725052978515626,-0.15395641326904297,0.2805243730545044,0.008130574598908424
1683132948088890400,13.742890380859375,0.1135263442993164,-0.3437204360961914,0.07513342797756195
1683132948106730000,13.76072998046875,-0.08550643920898438,0.21537935733795166,-0.024615228176116943
1683132948124564500,13.778564453125,0.04851055145263672,-0.3076813220977783,0.08579111099243164
1683132948142396400,13.796396484375,-0.11118507385253906,0.15312719345092773,-0.05816800892353058
1683132948160231700,13.814231689453125,0.04995441436767578,-0.262711763381958,0.13308954238891602
1683132948178087700,13.832087646484375,-0.096221923828125,0.13454270362854004,-0.059290193021297455
1683132948195917600,13.84991748046875,0.022322654724121094,-0.20068562030792236,0.13572213053703308
1683132948213755600,13.867755615234374,-0.05179595947265625,0.06047523021697998,-0.11077788472175598
1683132948231596500,13.885596435546875,-0.0290679931640625,-0.13199210166931152,0.13466878235340118
1683132948249442000,13.903442138671876,-0.04593944549560547,-0.0344541072845459,-0.12913498282432556
1683132948267278300,13.9212783203125,-0.026961326599121094,-0.06909656524658203,0.1687670201063156
1683132948285122600,13.93912255859375,-0.00872039794921875,-0.06761574745178223,-0.14393280446529388
1683132948302954500,13.95695458984375,-0.03204154968261719,-0.014098763465881348,0.18908722698688507
1683132948320792800,13.974792724609374,0.03902912139892578,-0.10876071453094482,-0.13321086764335632
1683132948338633000,13.992633056640624,-0.10854911804199219,0.059703707695007324,0.14602935314178467
1683132948356471800,14.010471923828124,0.09584617614746094,-0.16686081886291504,-0.12862557172775269
1683132948374308900,14.028308837890625,-0.04520416259765625,0.08180296421051025,0.1292828768491745
1683132948392145200,14.046145263671875,0.06429767608642578,-0.18135583400726318,-0.08574976027011871
1683132948409976800,14.063976806640625,-0.11823463439941406,0.09771263599395752,0.06164545565843582
1683132948427814700,14.081814697265624,0.14951038360595703,-0.24098992347717285,-0.027331700548529625
1683132948445655300,14.0996552734375,-0.1361560821533203,0.19210660457611084,0.048357103019952774
1683132948463493600,14.11749365234375,0.18987655639648438,-0.30251383781433105,0.015158325433731079
1683132948481329400,14.135329345703125,-0.10564041137695312,0.22639763355255127,0.03344014286994934
1683132948499170300,14.15317041015625,0.13370895385742188,-0.3147158622741699,0.02175220288336277
1683132948517008000,14.1710078125,-0.13027381896972656,0.2113635540008545,-0.022829880937933922
1683132948534850800,14.188850830078126,0.13208770751953125,-0.34301161766052246,0.06487114727497101
1683132948552685000,14.20668505859375,-0.15939712524414062,0.2737318277359009,-0.004499100148677826
1683132948570525000,14.22452490234375,0.16256427764892578,-0.37045562267303467,0.06099296361207962
1683132948588361200,14.242361328125,-0.1437206268310547,0.2832540273666382,0.001977149397134781
1683132948606208000,14.2602080078125,0.11264419555664062,-0.35331833362579346,0.07033734023571014
1683132948624038700,14.27803857421875,-0.11339759826660156,0.21193313598632812,-0.04479434713721275
1683132948641880600,14.295880615234376,0.07958793640136719,-0.31361687183380127,0.08290614932775497
1683132948659720200,14.31372021484375,-0.12003707885742188,0.17512774467468262,-0.025600643828511238
1683132948677555200,14.33155517578125,0.05071735382080078,-0.2639096975326538,0.12402553856372833
1683132948695407600,14.34940771484375,-0.08599567413330078,0.13664531707763672,-0.07304991781711578
1683132948713243600,14.36724365234375,-0.0015211105346679688,-0.19927537441253662,0.11987368762493134
1683132948731084000,14.385083984375,-0.060314178466796875,0.041114091873168945,-0.09812818467617035
1683132948748922600,14.402922607421875,-0.002986907958984375,-0.13366687297821045,0.14089205861091614
1683132948766759700,14.420759765625,-0.04355430603027344,-0.0013986825942993164,-0.11738104373216629
1683132948784597500,14.438597412109376,-0.02663421630859375,-0.08499515056610107,0.16857707500457764
1683132948802442000,14.45644189453125,-0.02524566650390625,-0.04162263870239258,-0.14765962958335876
1683132948820277200,14.47427734375,-0.04343128204345703,-0.02818882465362549,0.18502861261367798
1683132948838111700,14.49211181640625,0.015695571899414062,-0.10067594051361084,-0.14020687341690063
1683132948855963400,14.50996337890625,-0.11409282684326172,0.045929551124572754,0.1561460942029953
1683132948873792000,14.5277919921875,0.09168338775634766,-0.15007233619689941,-0.132973775267601
1683132948891630300,14.54563037109375,-0.06206321716308594,0.06848251819610596,0.15067192912101746
1683132948909471500,14.563471435546875,0.0720071792602539,-0.1680908203125,-0.10089128464460373
1683132948927306800,14.581306640625,-0.09214115142822266,0.1026926040649414,0.07785000652074814
1683132948945146400,14.599146484375,0.09931755065917969,-0.21755480766296387,-0.050379011780023575
1683132948962982000,14.61698193359375,-0.14445972442626953,0.1884218454360962,0.05541258677840233
1683132948980822500,14.634822509765625,0.1675891876220703,-0.2666161060333252,0.011402320116758347
1683132948998665000,14.6526650390625,-0.11691761016845703,0.19539642333984375,0.03503496199846268
1683132949016501000,14.6705009765625,0.13113021850585938,-0.3019416332244873,0.009014751762151718
1683132949034341000,14.688341064453125,-0.14266204833984375,0.19723927974700928,-0.020000755786895752
1683132949052178400,14.706178466796874,0.14529132843017578,-0.3318063020706177,0.0559597909450531
1683132949070018000,14.72401806640625,-0.16129684448242188,0.292494535446167,0.007795579731464386
1683132949087851800,14.741851806640625,0.15174007415771484,-0.3807237148284912,0.05302274599671364
1683132949105697300,14.759697265625,-0.14936351776123047,0.280337929725647,-0.013944614678621292
1683132949123536100,14.7775361328125,0.1154165267944336,-0.3391367197036743,0.058533791452646255
1683132949141373000,14.795373046875,-0.12348556518554688,0.22037410736083984,-0.04652578756213188
1683132949159210000,14.8132099609375,0.0927438735961914,-0.31792259216308594,0.0882643461227417
1683132949177050400,14.83105029296875,-0.14917659759521484,0.2232757806777954,-0.018835851922631264
1683132949194888000,14.848887939453125,0.06925106048583984,-0.27989912033081055,0.10330696403980255
1683132949212724000,14.866723876953126,-0.09267997741699219,0.15402889251708984,-0.06404252350330353
1683132949230565400,14.8845654296875,0.02148151397705078,-0.21186161041259766,0.10406402498483658
1683132949248395300,14.902395263671876,-0.05313682556152344,0.06224489212036133,-0.09662678092718124
1683132949266243000,14.9202431640625,-0.018314361572265625,-0.16130197048187256,0.14351549744606018
1683132949284075300,14.9380751953125,-0.057915687561035156,0.025783300399780273,-0.11164902150630951
1683132949301922300,14.95592236328125,0.0010290145874023438,-0.11914026737213135,0.16394928097724915
1683132949319760000,14.973759765625,-0.027190208435058594,-0.03135049343109131,-0.1435396522283554
1683132949337597400,14.991597412109375,-0.04808235168457031,-0.02586543560028076,0.16996116936206818
1683132949355437000,15.00943701171875,0.0028133392333984375,-0.11496126651763916,-0.1426219493150711
1683132949373273900,15.02727392578125,-0.08132457733154297,0.02839958667755127,0.17205722630023956
1683132949391115500,15.045115478515624,0.08217716217041016,-0.11922335624694824,-0.12659192085266113
1683132949408950800,15.06295068359375,-0.06825637817382812,0.026849031448364258,0.1491652876138687
1683132949426792400,15.08079248046875,0.03770732879638672,-0.1602116823196411,-0.10544294118881226
1683132949444626200,15.098626220703125,-0.1079854965209961,0.11280715465545654,0.0853036642074585
1683132949462472000,15.116471923828126,0.12568187713623047,-0.22578644752502441,-0.030128084123134613
1683132949480306400,15.134306396484375,-0.1289539337158203,0.18588042259216309,0.06597387045621872
1683132949498146000,15.15214599609375,0.16660594940185547,-0.24733471870422363,-0.010065056383609772
1683132949515982300,15.169982421875,-0.09791088104248047,0.17744338512420654,0.024191375821828842
1683132949533820200,15.187820068359375,0.1250467300415039,-0.2950558662414551,0.02011372148990631
1683132949551661600,15.20566162109375,-0.14735794067382812,0.22829687595367432,-0.005359450355172157
1683132949569501200,15.223501220703126,0.15264606475830078,-0.33543241024017334,0.06430188566446304
1683132949587346200,15.24134619140625,-0.18613338470458984,0.30104851722717285,0.007917482405900955
1683132949605173500,15.259173583984374,0.1767730712890625,-0.35222864151000977,0.04892042651772499
1683132949623016000,15.277015869140625,-0.11345195770263672,0.25455808639526367,-0.013075824826955795
1683132949640855300,15.294855224609375,0.10042858123779297,-0.3277992010116577,0.07082157582044601
1683132949658691800,15.31269189453125,-0.1259613037109375,0.22827601432800293,-0.04390707612037659
1683132949676534300,15.3305341796875,0.10515117645263672,-0.32477307319641113,0.0792117714881897
1683132949694358800,15.34835888671875,-0.15426349639892578,0.2246558666229248,-0.01713557355105877
1683132949712210200,15.366210205078126,0.06148719787597656,-0.2848309278488159,0.11206866800785065
1683132949730047000,15.384046875,-0.06247711181640625,0.165185809135437,-0.05980933830142021
1683132949747885600,15.401885498046875,0.031638145446777344,-0.21075546741485596,0.09224995970726013
1683132949765727700,15.419727783203125,-0.09241676330566406,0.08345317840576172,-0.09986963868141174
1683132949783564800,15.437564697265625,0.0022382736206054688,-0.1517789363861084,0.14351683855056763
1683132949801402400,15.45540234375,-0.051774024963378906,0.028092145919799805,-0.11318644881248474
1683132949819241700,15.47324169921875,-0.002410888671875,-0.10292565822601318,0.1603066325187683
1683132949837079800,15.491079833984376,-0.02785015106201172,-0.029992103576660156,-0.14225700497627258
1683132949854914800,15.508914794921875,-0.03134918212890625,-0.02879023551940918,0.17350512742996216
1683132949872750000,15.52675,0.018056869506835938,-0.0986175537109375,-0.15306273102760315
1683132949890600000,15.544599853515624,-0.06936264038085938,0.01950657367706299,0.17481878399848938
1683132949908434200,15.56243408203125,0.07482337951660156,-0.11637520790100098,-0.12780527770519257
1683132949926269400,15.58026953125,-0.03176116943359375,0.05730891227722168,0.16427019238471985
1683132949944111400,15.598111328125,0.04137992858886719,-0.1462467908859253,-0.11975756287574768
1683132949961951500,15.615951416015625,-0.10046577453613281,0.11132252216339111,0.08119481801986694
1683132949979787800,15.633787841796876,0.11635303497314453,-0.19987082481384277,-0.059509553015232086
1683132949997626600,15.651626708984375,-0.1153707504272461,0.1665555238723755,0.07372943311929703
1683132950015469300,15.66946923828125,0.14017105102539062,-0.23899459838867188,-0.03164120391011238
1683132950033306000,15.68730615234375,-0.08673954010009766,0.17630648612976074,0.0034057870507240295
1683132950051142400,15.705142333984375,0.1310882568359375,-0.2842799425125122,0.021448567509651184
1683132950068984300,15.722984375,-0.15878772735595703,0.2308332920074463,-0.004437632858753204
1683132950086821000,15.740821044921875,0.15791893005371094,-0.33386510610580444,0.059886183589696884
1683132950104658000,15.758657958984376,-0.15830326080322266,0.27810871601104736,-0.0018072128295898438
1683132950122500900,15.7765009765625,0.13942718505859375,-0.35499709844589233,0.033549606800079346
1683132950140337700,15.794337646484376,-0.1268939971923828,0.251001238822937,-0.03163037449121475
1683132950158175200,15.81217529296875,0.11365890502929688,-0.3245835304260254,0.057234350591897964
1683132950176007000,15.8300068359375,-0.15204906463623047,0.2305532693862915,-0.04163435846567154
1683132950193852700,15.847852783203125,0.09752750396728516,-0.3284885287284851,0.0909557193517685
1683132950211692300,15.8656923828125,-0.15107440948486328,0.2490983009338379,-0.004575066268444061
1683132950229530000,15.883530029296875,0.07217884063720703,-0.30534660816192627,0.0970274806022644
1683132950247358000,15.90135791015625,-0.07563209533691406,0.17579782009124756,-0.05151022598147392
1683132950265207600,15.91920751953125,0.03717613220214844,-0.22436034679412842,0.10240744054317474
1683132950283044900,15.937044921875,-0.09407424926757812,0.08897578716278076,-0.07560177892446518
1683132950300873500,15.95487353515625,-0.007719993591308594,-0.16783368587493896,0.15416792035102844
1683132950318725600,15.9727255859375,-0.056182861328125,0.054875731468200684,-0.10569591075181961
1683132950336562200,15.990562255859375,-0.010153770446777344,-0.12314999103546143,0.14539146423339844
1683132950354401500,16.008401611328125,-0.02355480194091797,-0.009957671165466309,-0.13791781663894653
1683132950372224500,16.026224609375,-0.02610301971435547,-0.04865837097167969,0.16372813284397125
1683132950390078000,16.044077880859376,0.03662300109863281,-0.07239317893981934,-0.1381637454032898
1683132950407920400,16.06192041015625,-0.07022380828857422,-0.0030213594436645508,0.16331082582473755
1683132950425756000,16.079755859375,0.027319908142089844,-0.09745275974273682,-0.1451173573732376
1683132950443599600,16.097599609375,-0.058173179626464844,0.032820701599121094,0.16324979066848755
1683132950461433600,16.11543359375,0.04288291931152344,-0.13602030277252197,-0.12005248665809631
1683132950479271200,16.133271240234375,-0.111053466796875,0.11805307865142822,0.11479198932647705
1683132950497111000,16.151111083984375,0.10276412963867188,-0.19530081748962402,-0.08204568922519684
1683132950514948600,16.168948486328127,-0.08066654205322266,0.1498558521270752,0.0913858413696289
1683132950532784400,16.186784423828126,0.10128116607666016,-0.22621822357177734,-0.06007525324821472
1683132950550625800,16.204625732421874,-0.11310100555419922,0.15792250633239746,0.007929321378469467
1683132950568450000,16.222449951171875,0.14733219146728516,-0.26317012310028076,0.023427430540323257
1683132950586303000,16.240302978515626,-0.1436443328857422,0.23685717582702637,0.016226261854171753
1683132950604144000,16.25814404296875,0.18647384643554688,-0.3084069490432739,0.04953615367412567
1683132950621977900,16.275977783203125,-0.14116764068603516,0.29142653942108154,0.015355009585618973
1683132950639817000,16.29381689453125,0.1460399627685547,-0.33993780612945557,0.03580870106816292
1683132950657661700,16.31166162109375,-0.13763904571533203,0.2572908401489258,-0.02325659617781639
1683132950675497200,16.329497314453125,0.10682964324951172,-0.3381328582763672,0.06170303001999855
1683132950693330200,16.347330078125,-0.16548728942871094,0.25827133655548096,-0.042422689497470856
1683132950711171800,16.365171875,0.11230850219726562,-0.3222755193710327,0.08248437941074371
1683132950729013800,16.383013671875,-0.15389347076416016,0.2650538682937622,-0.009558314457535744
1683132950746851800,16.400851806640624,0.07740402221679688,-0.31752490997314453,0.06678766757249832
1683132950764686600,16.4186865234375,-0.08545303344726562,0.1921398639678955,-0.07128193974494934
1683132950782531800,16.43653173828125,0.06149768829345703,-0.24647831916809082,0.09570677578449249
1683132950800359000,16.45435888671875,-0.12792587280273438,0.12551307678222656,-0.058401815593242645
1683132950818206700,16.472206787109375,0.013239860534667969,-0.17839384078979492,0.1474350392818451
1683132950836032000,16.490031982421876,-0.07143783569335938,0.07079601287841797,-0.09675600379705429
1683132950853883600,16.507883544921874,-0.004353523254394531,-0.1302804946899414,0.13835985958576202
1683132950871721200,16.52572119140625,-0.020941734313964844,0.006011486053466797,-0.1386520266532898
1683132950889558300,16.543558349609373,-0.037756919860839844,-0.07244575023651123,0.14267797768115997
1683132950907397600,16.561397705078125,-0.01562976837158203,-0.05683565139770508,-0.152283176779747
1683132950925238300,16.57923828125,-0.045101165771484375,-0.01822960376739502,0.1739220917224884
1683132950943070500,16.597070556640624,0.028748512268066406,-0.09289824962615967,-0.1398099958896637
1683132950960915700,16.614915771484377,-0.061588287353515625,0.030979514122009277,0.17427417635917664
1683132950978753300,16.632753173828124,0.07088947296142578,-0.14107072353363037,-0.13946972787380219
1683132950996592600,16.650592529296876,-0.12364578247070312,0.1112818717956543,0.10956884920597076
1683132951014425900,16.66842578125,0.120880126953125,-0.1795428991317749,-0.08900366723537445
1683132951032270000,16.68627001953125,-0.07436943054199219,0.12689173221588135,0.09608644992113113
1683132951050108000,16.70410791015625,0.07760238647460938,-0.21616840362548828,-0.04933447763323784
1683132951067947300,16.721947265625,-0.13564300537109375,0.15063095092773438,0.006499543786048889
1683132951085785300,16.739785400390623,0.14890766143798828,-0.24999213218688965,0.0010361969470977783
1683132951103624700,16.757624755859375,-0.16202545166015625,0.23383307456970215,0.028405096381902695
1683132951121462500,16.775462646484375,0.18911170959472656,-0.30609142780303955,0.03859192132949829
1683132951139301600,16.793301513671874,-0.12472343444824219,0.26997530460357666,0.005874596536159515
1683132951157139500,16.811139404296874,0.1626415252685547,-0.3280678987503052,0.0346505343914032
1683132951174979000,16.82897900390625,-0.1095590591430664,0.24276423454284668,-0.024172868579626083
1683132951192805400,16.846805419921875,0.11482906341552734,-0.33688342571258545,0.06563341617584229
1683132951210656500,16.864656494140625,-0.1887531280517578,0.2833749055862427,-0.026854880154132843
1683132951228493800,16.882493896484377,0.13649368286132812,-0.3378385305404663,0.07961833477020264
1683132951246334000,16.900333984375,-0.12943172454833984,0.27140986919403076,-0.005044262856245041
1683132951264157700,16.91815771484375,0.0769662857055664,-0.3177209496498108,0.0657893493771553
1683132951282011000,16.936010986328125,-0.12050247192382812,0.19224560260772705,-0.06787025183439255
1683132951299848200,16.95384814453125,0.052013397216796875,-0.24760222434997559,0.09566617012023926
1683132951317688600,16.9716884765625,-0.10972309112548828,0.13688743114471436,-0.05263439938426018
1683132951335521300,16.989521240234374,0.012963294982910156,-0.2055419683456421,0.1328788697719574
1683132951353365200,17.007365234375,-0.05551719665527344,0.09349465370178223,-0.09237596392631531
1683132951371203300,17.025203369140623,0.01850605010986328,-0.1537076234817505,0.12250976264476776
1683132951389032700,17.04303271484375,-0.018306732177734375,0.020715832710266113,-0.11405529826879501
1683132951406878500,17.06087841796875,-0.07403373718261719,-0.06533002853393555,0.15911461412906647
1683132951424720100,17.07872021484375,-0.010838508605957031,-0.039020538330078125,-0.14790008962154388
1683132951442560300,17.096560302734375,-0.0246429443359375,-0.029543638229370117,0.1787538230419159
1683132951460397600,17.1143974609375,-0.017416954040527344,-0.07939112186431885,-0.15157489478588104
1683132951478225000,17.132224853515623,-0.04291534423828125,0.025122761726379395,0.16751572489738464
1683132951496062700,17.150062744140627,0.0724325180053711,-0.12519347667694092,-0.14464139938354492
1683132951513904600,17.167904541015623,-0.10717105865478516,0.10006701946258545,0.13393835723400116
1683132951531753000,17.1857529296875,0.11857795715332031,-0.17713749408721924,-0.10352601110935211
1683132951549588700,17.203588623046876,-0.0845632553100586,0.11669671535491943,0.09981677681207657
1683132951567428900,17.221428955078125,0.061054229736328125,-0.20386731624603271,-0.06879931688308716
1683132951585262000,17.239261962890627,-0.12789630889892578,0.1385512351989746,0.02816103771328926
1683132951603103500,17.257103515625,0.13907146453857422,-0.2272564172744751,-0.0005332231521606445
1683132951620946700,17.27494677734375,-0.1376514434814453,0.2399691343307495,0.03974873572587967
1683132951638783200,17.292783203125,0.17181968688964844,-0.3008691072463989,0.009562693536281586
1683132951656609000,17.310609130859376,-0.11621284484863281,0.24741458892822266,-0.001384679228067398
1683132951674453000,17.328452880859373,0.14423179626464844,-0.32363617420196533,0.04065991938114166
1683132951692298200,17.34629833984375,-0.12890148162841797,0.23269200325012207,-0.02750270813703537
1683132951710137000,17.36413720703125,0.11386871337890625,-0.324621319770813,0.0768955647945404
1683132951727977000,17.38197705078125,-0.19953060150146484,0.3144642114639282,-0.015392422676086426
1683132951745815300,17.399815185546874,0.14794540405273438,-0.33555471897125244,0.04973061382770538
1683132951763652900,17.41765283203125,-0.12956523895263672,0.28299129009246826,-0.014251451939344406
1683132951781492700,17.43549267578125,0.07333660125732422,-0.3227536678314209,0.0675753802061081
1683132951799330000,17.453330078125,-0.12014961242675781,0.18547916412353516,-0.06119272857904434
1683132951817170000,17.471169921875,0.05577373504638672,-0.26681482791900635,0.08908084034919739
1683132951835007500,17.489007568359376,-0.1057882308959961,0.17730581760406494,-0.04818497970700264
1683132951852843500,17.506843505859376,0.04009056091308594,-0.2254652976989746,0.12841090559959412
1683132951870684700,17.5246845703125,-0.059752464294433594,0.12007379531860352,-0.0699605941772461
1683132951888509700,17.542509765625,0.020241737365722656,-0.15576159954071045,0.13140811026096344
1683132951906356000,17.56035595703125,-0.06772136688232422,0.03259015083312988,-0.1194658875465393
1683132951924190200,17.578190185546877,-0.04356956481933594,-0.08674371242523193,0.1463334560394287
1683132951942029000,17.596029052734377,-0.02775096893310547,-0.018079638481140137,-0.15011359751224518
1683132951959869700,17.61386962890625,-0.039340972900390625,-0.06059718132019043,0.17591038346290588
1683132951977715700,17.6317158203125,0.028395652770996094,-0.05044257640838623,-0.14004385471343994
1683132951995544800,17.649544921875,-0.02865314483642578,0.013230085372924805,0.16887104511260986
1683132952013384200,17.66738427734375,0.029598236083984375,-0.12290823459625244,-0.16582056879997253
1683132952031223300,17.685223388671876,-0.06506061553955078,0.08568322658538818,0.14631326496601105
1683132952049061000,17.70306103515625,0.09546756744384766,-0.15253782272338867,-0.1058952733874321
1683132952066899200,17.720899169921875,-0.06611156463623047,0.0900425910949707,0.1342819631099701
1683132952084737000,17.738737060546875,0.05228233337402344,-0.17383944988250732,-0.08269689977169037
1683132952102575900,17.756575927734374,-0.11544227600097656,0.13419675827026367,0.040855586528778076
1683132952120419800,17.774419921875,0.1287517547607422,-0.22607338428497314,-0.024857886135578156
1683132952138253300,17.79225341796875,-0.15407752990722656,0.22926032543182373,0.052051909267902374
1683132952156095200,17.81009521484375,0.18127059936523438,-0.28064680099487305,-0.006540268659591675
1683132952173944800,17.82794482421875,-0.11199283599853516,0.22162985801696777,0.0019634440541267395
1683132952191780000,17.845780029296876,0.16797733306884766,-0.29439079761505127,0.03416439890861511
1683132952209624300,17.863624267578125,-0.14482975006103516,0.2574106454849243,-0.015013620257377625
1683132952227445200,17.8814453125,0.1372842788696289,-0.329944908618927,0.06464585661888123
1683132952245297000,17.899296875,-0.17650318145751953,0.3286372423171997,0.009629953652620316
1683132952263134700,17.917134765625,0.15421485900878906,-0.33393871784210205,0.06343775242567062
1683132952280975400,17.934975341796875,-0.14276409149169922,0.27553415298461914,-0.01787533238530159
1683132952298810400,17.952810302734374,0.10791969299316406,-0.31498992443084717,0.050996020436286926
1683132952316651300,17.9706513671875,-0.11925601959228516,0.22224783897399902,-0.05637368932366371
1683132952334488800,17.98848876953125,0.07188224792480469,-0.2930184602737427,0.08876477181911469
1683132952352327400,18.006327392578125,-0.12139225006103516,0.2396860122680664,-0.017381152138113976
1683132952370167300,18.024167236328125,0.08482170104980469,-0.261388897895813,0.1109841987490654
1683132952388005600,18.042005615234373,-0.08381175994873047,0.16993999481201172,-0.04842371866106987
1683132952405843500,18.059843505859376,0.03456687927246094,-0.21216511726379395,0.09642919898033142
1683132952423683000,18.07768310546875,-0.05387401580810547,0.06935739517211914,-0.09993831813335419
1683132952441507000,18.095507080078125,-0.03206062316894531,-0.13731753826141357,0.14804613590240479
1683132952459360300,18.1133603515625,-0.06757354736328125,0.02451300621032715,-0.1156570315361023
1683132952477198000,18.131197998046876,-0.008188247680664062,-0.0883415937423706,0.166033074259758
1683132952495037400,18.149037353515624,-0.018648147583007812,-0.011239409446716309,-0.1369907557964325
1683132952512875000,18.166875,-0.04091930389404297,-0.016881704330444336,0.1696799248456955
1683132952530714600,18.184714599609375,0.008652687072753906,-0.07879388332366943,-0.167710542678833
1683132952548549600,18.202549560546874,-0.05519676208496094,0.04680311679840088,0.16461315751075745
1683132952566394000,18.22039404296875,0.06973457336425781,-0.10438895225524902,-0.14302387833595276
1683132952584217600,18.238217529296875,-0.06463336944580078,0.058309197425842285,0.16643205285072327
1683132952602069200,18.2560693359375,0.022347450256347656,-0.1385122537612915,-0.12042160332202911
1683132952619904300,18.273904296875,-0.10026168823242188,0.10490381717681885,0.07856657356023788
1683132952637749200,18.291749267578126,0.11859989166259766,-0.19431793689727783,-0.07212981581687927
1683132952655583700,18.309583740234373,-0.10986042022705078,0.16747212409973145,0.06826364248991013
1683132952673419000,18.3274189453125,0.1282968521118164,-0.22499942779541016,-0.03509501740336418
1683132952691261400,18.345261474609377,-0.10745906829833984,0.17412102222442627,0.02041533961892128
1683132952709100800,18.363100830078125,0.14539718627929688,-0.2543293237686157,-0.0019245631992816925
1683132952726938000,18.380938232421876,-0.15293216705322266,0.24139845371246338,-0.004914876073598862
1683132952744777700,18.39877783203125,0.12736129760742188,-0.2944796085357666,0.04606813192367554
1683132952762613000,18.416613037109375,-0.16994762420654297,0.2988940477371216,0.019190873950719833
1683132952780458200,18.434458251953124,0.18842601776123047,-0.32379865646362305,0.03361251577734947
1683132952798291700,18.452291748046875,-0.13859081268310547,0.2625800371170044,-0.03185732662677765
1683132952816133400,18.47013330078125,0.12549400329589844,-0.3293571472167969,0.04630983620882034
1683132952833970200,18.48797021484375,-0.1535654067993164,0.2609139680862427,-0.048749133944511414
1683132952851809800,18.505809814453126,0.10944747924804688,-0.32172906398773193,0.06777109205722809
1683132952869647000,18.523647216796874,-0.16309070587158203,0.27938711643218994,-0.002785034477710724
1683132952887487000,18.541487060546874,0.09082412719726562,-0.2800999879837036,0.08827494084835052
1683132952905321500,18.559321533203125,-0.09152984619140625,0.21576285362243652,-0.037444524466991425
1683132952923167200,18.577167236328126,0.055685997009277344,-0.2511543035507202,0.08239252120256424
1683132952941001700,18.595001708984373,-0.08074569702148438,0.1305936574935913,-0.08988651633262634
1683132952958826200,18.612826171875,0.01015472412109375,-0.20352494716644287,0.12169858813285828
1683132952976678700,18.6306787109375,-0.09168529510498047,0.10082364082336426,-0.09669798612594604
1683132952994506500,18.648506591796874,0.03394508361816406,-0.15298902988433838,0.13816314935684204
1683132953012355800,18.66635595703125,-0.07000541687011719,0.03191220760345459,-0.13259822130203247
1683132953030197000,18.684197021484376,-0.015918731689453125,-0.059537529945373535,0.15097498893737793
1683132953048030500,18.702030517578127,-0.0000019073486328125,-0.02445816993713379,-0.14494305849075317
1683132953065874700,18.719874755859376,-0.08295917510986328,-0.019334912300109863,0.16815520823001862
1683132953083709000,18.737708984375,0.03756999969482422,-0.06789982318878174,-0.15468129515647888
1683132953101551400,18.75555126953125,-0.00751495361328125,0.015584588050842285,0.1893322467803955
1683132953119386400,18.773386474609374,0.03299236297607422,-0.13081622123718262,-0.15154799818992615
1683132953137228500,18.791228515625,-0.10611820220947266,0.0731590986251831,0.118331179022789
1683132953155061500,18.8090615234375,0.11445140838623047,-0.15738439559936523,-0.10502055287361145
1683132953172908000,18.826907958984375,-0.09198474884033203,0.12455260753631592,0.10506236553192139
1683132953190742000,18.844741943359374,0.09670066833496094,-0.18206560611724854,-0.06189926341176033
1683132953208567300,18.8625673828125,-0.07007980346679688,0.1335599422454834,0.0730915516614914
1683132953226422300,18.88042236328125,0.10005760192871094,-0.21977603435516357,-0.039782773703336716
1683132953244259000,18.898259033203125,-0.1477346420288086,0.20424187183380127,0.019067861139774323
1683132953262096600,18.9160966796875,0.14551830291748047,-0.28080248832702637,0.026650894433259964
1683132953279933400,18.933933349609376,-0.1295318603515625,0.28317928314208984,0.03307773545384407
1683132953297776600,18.951776611328125,0.18992328643798828,-0.32011306285858154,0.010735079646110535
1683132953315608600,18.969608642578127,-0.13233470916748047,0.25089454650878906,-0.029360100626945496
1683132953333450500,18.987450439453124,0.1557455062866211,-0.3206230401992798,0.04785456135869026
1683132953351275800,19.00527587890625,-0.1576404571533203,0.2759777307510376,-0.03532237187027931
1683132953369127200,19.023127197265627,0.12726879119873047,-0.3199378252029419,0.06170535087585449
1683132953386968800,19.04096875,-0.1534290313720703,0.307369589805603,0.006812356412410736
1683132953404793600,19.058793701171876,0.13765239715576172,-0.31557416915893555,0.07006180286407471
1683132953422645200,19.076645263671875,-0.14091968536376953,0.25275909900665283,-0.027337808161973953
1683132953440481000,19.09448095703125,0.0710601806640625,-0.29786592721939087,0.059216953814029694
1683132953458322400,19.112322509765626,-0.08089733123779297,0.19818925857543945,-0.07608450949192047
1683132953476160800,19.130160888671874,0.026605606079101562,-0.2529951333999634,0.11012156307697296
1683132953493999600,19.14799951171875,-0.10606956481933594,0.16432833671569824,-0.0468873530626297
1683132953511834400,19.16583447265625,0.05533885955810547,-0.1740657091140747,0.11854137480258942
1683132953529680000,19.183679931640626,-0.09717559814453125,0.08706474304199219,-0.11747424304485321
1683132953547494700,19.20149462890625,-0.001056671142578125,-0.11775875091552734,0.12297187000513077
1683132953565354800,19.219354736328125,-0.04545116424560547,0.01772153377532959,-0.12406736612319946
1683132953583189800,19.237189697265624,-0.06731796264648438,-0.05601322650909424,0.16759802401065826
1683132953601034000,19.255033935546876,0.010362625122070312,-0.03668630123138428,-0.1623191237449646
1683132953618868500,19.272868408203124,-0.007601737976074219,-0.022354483604431152,0.1876344084739685
1683132953636706800,19.290706787109375,-0.005435943603515625,-0.08104491233825684,-0.1635688990354538
1683132953654546000,19.3085458984375,-0.06462860107421875,0.03360295295715332,0.14043501019477844
1683132953672382500,19.326382568359374,0.0626688003540039,-0.11867761611938477,-0.1430605947971344
1683132953690224000,19.34422412109375,-0.08133316040039062,0.0806119441986084,0.1280701756477356
1683132953708064000,19.36206396484375,0.07044696807861328,-0.13899850845336914,-0.10283505171537399
1683132953725900000,19.379900146484374,-0.07738304138183594,0.10357940196990967,0.09981854259967804
1683132953743740000,19.397739990234374,0.076629638671875,-0.18575513362884521,-0.0683247298002243
1683132953761576000,19.415575927734373,-0.12094593048095703,0.18532097339630127,0.0456853061914444
1683132953779415300,19.433415283203125,0.14704227447509766,-0.2489941120147705,-0.018037430942058563
1683132953797257200,19.45125732421875,-0.11662101745605469,0.2303164005279541,0.03592802956700325
1683132953815089700,19.469089599609376,0.14988136291503906,-0.29497790336608887,-0.011053591966629028
1683132953832936200,19.486936279296874,-0.122100830078125,0.20793390274047852,-0.0319981575012207
1683132953850771000,19.50477099609375,0.15049171447753906,-0.3105841875076294,0.038883306086063385
1683132953868609000,19.522609130859376,-0.17729759216308594,0.28553545475006104,-0.020715370774269104
1683132953886436400,19.540436279296873,0.16847991943359375,-0.32175254821777344,0.05376897379755974
1683132953904286000,19.558285888671875,-0.1840801239013672,0.3120037317276001,0.008024025708436966
1683132953922125800,19.576125732421875,0.14791393280029297,-0.3385046720504761,0.06481188535690308
1683132953939960000,19.5939599609375,-0.1035165786743164,0.2617976665496826,-0.015091467648744583
1683132953957805800,19.611805908203124,0.07870101928710938,-0.30672669410705566,0.06496120244264603
1683132953975640300,19.629640380859374,-0.134063720703125,0.2288837432861328,-0.06345028430223465
1683132953993480200,19.647480224609374,0.10013961791992188,-0.2797725200653076,0.08683915436267853
1683132954011317500,19.6653173828125,-0.11463546752929688,0.22317886352539062,-0.03079761192202568
1683132954029158400,19.683158447265626,0.037924766540527344,-0.23038315773010254,0.09871101379394531
1683132954046993700,19.70099365234375,-0.05086231231689453,0.14100468158721924,-0.09484271705150604
1683132954064832300,19.718832275390625,0.016412734985351562,-0.15759289264678955,0.11286202073097229
1683132954082670800,19.7366708984375,-0.08489418029785156,0.06165575981140137,-0.11490845680236816
1683132954100511500,19.754511474609377,-0.01655101776123047,-0.09257280826568604,0.16536569595336914
1683132954118348000,19.77234814453125,-0.042702674865722656,0.01018679141998291,-0.14079813659191132
1683132954136178000,19.790177978515626,-0.000125885009765625,-0.06361973285675049,0.17594873905181885
1683132954154026500,19.808026611328124,-0.0028448104858398438,-0.056360721588134766,-0.16215954720973969
1683132954171866400,19.825866455078124,-0.07811641693115234,0.0007078647613525391,0.1443846970796585
1683132954189703400,19.843703369140623,0.050189971923828125,-0.10232782363891602,-0.1600775122642517
1683132954207543000,19.86154296875,-0.06980228424072266,0.05216348171234131,0.15576866269111633
1683132954225380600,19.879380615234375,0.03927135467529297,-0.1358124017715454,-0.13240480422973633
1683132954243208400,19.89720849609375,-0.0753030776977539,0.08635461330413818,0.13398048281669617
1683132954261057500,19.9150576171875,0.08808708190917969,-0.15634608268737793,-0.10836996138095856
1683132954278897700,19.932897705078126,-0.12810039520263672,0.15549147129058838,0.07221117615699768
1683132954296735200,19.9507353515625,0.12233734130859375,-0.20425236225128174,-0.038794759660959244
1683132954314574600,19.96857470703125,-0.08678340911865234,0.19051218032836914,0.06271219253540039
1683132954332412200,19.986412109375,0.11957263946533203,-0.2461158037185669,-0.016910884529352188
1683132954350247400,20.004247314453124,-0.12261295318603516,0.19878041744232178,-0.009148292243480682
1683132954368078300,20.022078369140626,0.1674489974975586,-0.273462176322937,0.03440108150243759
1683132954385929200,20.03992919921875,-0.16682815551757812,0.2897171974182129,-0.0012353956699371338
1683132954403758600,20.057758544921874,0.16281509399414062,-0.3104363679885864,0.038138456642627716
1683132954421609200,20.075609130859377,-0.1528024673461914,0.3070722818374634,0.014543183147907257
1683132954439443500,20.093443359375,0.17829036712646484,-0.31886035203933716,0.04146025702357292
1683132954457283300,20.111283447265624,-0.13017654418945312,0.27428221702575684,-0.036846064031124115
1683132954475121000,20.129120849609375,0.11394023895263672,-0.30928361415863037,0.04363611713051796
1683132954492956700,20.146956787109374,-0.1488027572631836,0.26920509338378906,-0.0578920915722847
1683132954510798000,20.164798095703127,0.07487869262695312,-0.3045675754547119,0.08357898145914078
1683132954528636700,20.18263671875,-0.11841773986816406,0.26097965240478516,-0.014085428789258003
1683132954546476500,20.2004765625,0.07674694061279297,-0.26147890090942383,0.08291879296302795
1683132954564307500,20.218307373046876,-0.10272598266601562,0.15929007530212402,-0.08516350388526917
1683132954582152200,20.236152099609374,0.034987449645996094,-0.19975292682647705,0.09489160031080246
1683132954599992300,20.253992431640626,-0.08780479431152344,0.10607051849365234,-0.08457484841346741
1683132954617817300,20.2718173828125,0.013089179992675781,-0.1411207914352417,0.15277768671512604
1683132954635666700,20.289666748046876,-0.05115032196044922,0.05223739147186279,-0.1147819459438324
1683132954653502200,20.307502197265624,-0.03206920623779297,-0.0950467586517334,0.15681123733520508
1683132954671346400,20.325346435546876,-0.03245830535888672,-0.013218522071838379,-0.14564543962478638
1683132954689184000,20.34318408203125,-0.03290367126464844,-0.01340019702911377,0.1496143490076065
1683132954707020000,20.36102001953125,-0.003429412841796875,-0.06893372535705566,-0.15768179297447205
1683132954724859400,20.378859375,-0.06703472137451172,0.014181375503540039,0.17057418823242188
1683132954742694700,20.396694580078126,0.034377098083496094,-0.07765328884124756,-0.1478264182806015
1683132954760540400,20.41454052734375,-0.06380844116210938,0.05756878852844238,0.14444881677627563
1683132954778376400,20.43237646484375,0.05951404571533203,-0.14873790740966797,-0.13180674612522125
1683132954796216600,20.450216552734375,-0.10920906066894531,0.150726318359375,0.09300050884485245
1683132954814055200,20.46805517578125,0.13346290588378906,-0.18961858749389648,-0.07553178071975708
1683132954831889700,20.4858896484375,-0.07721233367919922,0.15207231044769287,0.0705714076757431
1683132954849734000,20.50373388671875,0.0889291763305664,-0.20643067359924316,-0.04371712729334831
1683132954867570700,20.52157080078125,-0.1277008056640625,0.17056751251220703,0.0013268142938613892
1683132954885409300,20.5394091796875,0.15091323852539062,-0.2583787441253662,0.017705053091049194
1683132954903246800,20.557246826171873,-0.18803119659423828,0.2743823528289795,0.002266526222229004
1683132954921086200,20.575086181640625,0.20070552825927734,-0.30126190185546875,0.025081392377614975
1683132954938924000,20.592924072265625,-0.1254720687866211,0.2659640312194824,0.002081342041492462
1683132954956763600,20.610763671875,0.14203262329101562,-0.3169734477996826,0.03640729561448097
1683132954974596400,20.628596435546875,-0.11671924591064453,0.24978017807006836,-0.024415433406829834
1683132954992440600,20.646440673828124,0.117645263671875,-0.3239808678627014,0.055469147861003876
1683132955010278100,20.664278076171875,-0.18968963623046875,0.296958327293396,-0.030256222933530807
1683132955028117800,20.68211767578125,0.13971233367919922,-0.3177170753479004,0.0733070820569992
1683132955045950700,20.69995068359375,-0.14696311950683594,0.27786362171173096,-0.007368672639131546
1683132955063783400,20.717783447265624,0.07993602752685547,-0.28701019287109375,0.06817705929279327
1683132955081633000,20.735633056640626,-0.0831155776977539,0.2038172483444214,-0.06879717111587524
1683132955099470800,20.753470947265626,0.05713653564453125,-0.2365708351135254,0.08589422702789307
1683132955117306400,20.771306396484373,-0.12021541595458984,0.15840911865234375,-0.05571501702070236
1683132955135154000,20.78915380859375,0.021047592163085938,-0.2032238245010376,0.13498030602931976
1683132955152985600,20.806985595703125,-0.07039642333984375,0.10339546203613281,-0.08929126709699631
1683132955170825500,20.824825439453125,0.017221450805664062,-0.13036203384399414,0.13294674456119537
1683132955188665300,20.842665283203125,-0.033428192138671875,0.02232825756072998,-0.1363966166973114
1683132955206503700,20.860503662109377,-0.042557716369628906,-0.07445704936981201,0.1349029690027237
1683132955224331500,20.87833154296875,-0.024295806884765625,-0.0225447416305542,-0.14988389611244202
1683132955242180600,20.8961806640625,-0.02738189697265625,-0.046067237854003906,0.17167580127716064
1683132955260007200,20.914007080078125,0.010113716125488281,-0.055246710777282715,-0.15512317419052124
1683132955277854000,20.93185400390625,-0.04751873016357422,0.039597272872924805,0.18194471299648285
1683132955295690800,20.949690673828126,0.03465557098388672,-0.12073874473571777,-0.164311483502388
1683132955313535200,20.96753515625,-0.08055591583251953,0.09681189060211182,0.12614081799983978
1683132955331372300,20.985372314453127,0.0727834701538086,-0.14458763599395752,-0.10586157441139221
1683132955349212400,21.00321240234375,-0.05058097839355469,0.10621953010559082,0.11959519982337952
1683132955367039700,21.021039794921876,0.05553722381591797,-0.1627720594406128,-0.07521497458219528
1683132955384877600,21.038877685546876,-0.14011669158935547,0.13895058631896973,0.027298979461193085
1683132955402723300,21.056723388671877,0.15874671936035156,-0.2114030122756958,-0.021386142820119858
1683132955420565500,21.0745654296875,-0.16797733306884766,0.23841023445129395,0.034920357167720795
1683132955438405000,21.092405029296874,0.16144180297851562,-0.2802584171295166,0.017684683203697205
1683132955456243700,21.11024365234375,-0.09068584442138672,0.24377787113189697,0.01484382152557373
1683132955474081000,21.1280810546875,0.1383075714111328,-0.2765774726867676,0.013497821986675262
1683132955491919600,21.145919677734376,-0.16034412384033203,0.23994874954223633,-0.03322808817028999
1683132955509759500,21.163759521484376,0.1357135772705078,-0.31342029571533203,0.05888232961297035
1683132955527586300,21.18158642578125,-0.1741924285888672,0.31102120876312256,0.004220947623252869
1683132955545435400,21.199435302734376,0.14826107025146484,-0.3334439992904663,0.05396982654929161
1683132955563275500,21.217275634765624,-0.1508769989013672,0.30486321449279785,-0.00927269458770752
1683132955581112300,21.2351123046875,0.09404563903808594,-0.31026631593704224,0.05576898902654648
1683132955598952000,21.252951904296875,-0.1199502944946289,0.23580539226531982,-0.04613761603832245
1683132955616785200,21.27078515625,0.09714031219482422,-0.2737680673599243,0.0731617659330368
1683132955634617300,21.288617431640624,-0.1308612823486328,0.21696066856384277,-0.03603414073586464
1683132955652466700,21.306466796875,0.03141307830810547,-0.2378857135772705,0.11423709988594055
1683132955670296000,21.324296142578124,-0.06014823913574219,0.15993750095367432,-0.06484575569629669
1683132955688144100,21.34214404296875,0.011678695678710938,-0.18618929386138916,0.10406409204006195
1683132955705983500,21.3599833984375,-0.08270263671875,0.07044088840484619,-0.10829886794090271
1683132955723820800,21.37782080078125,-0.0012531280517578125,-0.12411248683929443,0.13259311020374298
1683132955741659400,21.395659423828125,-0.045126914978027344,0.026482105255126953,-0.12538264691829681
1683132955759499300,21.413499267578125,-0.04266643524169922,-0.06719410419464111,0.16944396495819092
1683132955777339100,21.431339111328125,-0.01939678192138672,-0.0080413818359375,-0.15296581387519836
1683132955795163400,21.449163330078125,-0.026346206665039062,-0.0009903907775878906,0.18688632547855377
1683132955813010200,21.46701025390625,0.012589454650878906,-0.07205009460449219,-0.1434982419013977
1683132955830851800,21.484851806640624,-0.10708808898925781,0.06730854511260986,0.1619108021259308
1683132955848691500,21.50269140625,0.0864572525024414,-0.11168050765991211,-0.14055469632148743
1683132955866531000,21.520531005859375,-0.04788684844970703,0.07737123966217041,0.14393804967403412
1683132955884369200,21.538369140625,0.04389190673828125,-0.1484990119934082,-0.12812916934490204
1683132955902207000,21.55620703125,-0.09989643096923828,0.13094329833984375,0.07705003768205643
1683132955920028200,21.574028076171874,0.12058162689208984,-0.19327902793884277,-0.05161893740296364
1683132955937884200,21.59188427734375,-0.133819580078125,0.19472169876098633,0.05914859101176262
1683132955955721000,21.609720947265625,0.13322734832763672,-0.22972607612609863,-0.026801813393831253
1683132955973560600,21.627560546875,-0.07761192321777344,0.20471155643463135,0.02915271371603012
1683132955991403500,21.645403564453126,0.1087045669555664,-0.2618328332901001,0.005374260246753693
1683132956009238300,21.66323828125,-0.15871524810791016,0.23644781112670898,-0.026434624567627907
1683132956027077600,21.68107763671875,0.16118526458740234,-0.3100167512893677,0.044499196112155914
1683132956044918300,21.698918212890625,-0.19783973693847656,0.3137921094894409,-0.0025293976068496704
1683132956062751500,21.71675146484375,0.17977619171142578,-0.3391079306602478,0.035630736500024796
1683132956080592600,21.734592529296876,-0.12352466583251953,0.2889077663421631,-0.02570587769150734
1683132956098429000,21.752428955078123,0.11683273315429688,-0.3241652250289917,0.040553491562604904
1683132956116272400,21.7702724609375,-0.1392993927001953,0.2647366523742676,-0.04371839389204979
