time,seconds_elapsed,z,y,x
1683135156387618800,0.179618896484375,-0.04135417938232422,0.39757204055786133,-0.00777202844619751
1683135156405445600,0.197445556640625,0.006094932556152344,0.052125513553619385,0.15269100666046143
1683135156423298000,0.215298095703125,-0.06634330749511719,-0.0024412870407104492,-0.11282676458358765
1683135156441137000,0.233136962890625,-0.15476036071777344,0.040745317935943604,0.11696967482566833
1683135156458977000,0.25097705078125,0.0137939453125,0.012974023818969727,-0.04087367653846741
1683135156476812800,0.268812744140625,-0.1011819839477539,0.06780874729156494,0.06406480073928833
1683135156494658600,0.286658447265625,-0.02805328369140625,0.2938673496246338,0.007872939109802246
1683135156512481800,0.304481689453125,-0.11255073547363281,-0.36871588230133057,0.0038486123085021973
1683135156530336300,0.322336181640625,-0.051888465881347656,0.3674718737602234,0.07724830508232117
1683135156548173600,0.340173583984375,0.03259563446044922,0.01890742778778076,0.01762065291404724
1683135156566014000,0.358013916015625,-0.08323383331298828,-0.047820448875427246,0.009113788604736328
1683135156583853000,0.37585302734375,-0.1508016586303711,0.11147123575210571,-0.027073919773101807
1683135156601693000,0.39369287109375,0.00499725341796875,-0.13598865270614624,0.09977325797080994
1683135156619531800,0.41153173828125,-0.13206100463867188,0.26014941930770874,-0.05584639310836792
1683135156637360400,0.4293603515625,0.03481101989746094,0.1100149154663086,0.13612961769104004
1683135156655211300,0.447211181640625,-0.16104602813720703,-0.24581044912338257,-0.11540696024894714
1683135156673051400,0.465051513671875,0.036559104919433594,0.23145794868469238,0.15859663486480713
1683135156690890200,0.48289013671875,-0.017076492309570312,-0.10981005430221558,-0.10678747296333313
1683135156708731000,0.50073095703125,0.03944969177246094,0.04368913173675537,0.1997053027153015
1683135156726567200,0.518567138671875,-0.11838245391845703,0.08457398414611816,-0.12642261385917664
1683135156744411400,0.536411376953125,-0.08802127838134766,-0.37833642959594727,0.1537151336669922
1683135156762248200,0.554248291015625,-0.035839080810546875,0.4522254467010498,-0.15131673216819763
1683135156780088800,0.5720888671875,0.10294628143310547,-0.2122659683227539,0.23049737513065338
1683135156797931500,0.589931640625,-0.282257080078125,0.07061988115310669,-0.17769813537597656
1683135156815767300,0.607767333984375,0.010632514953613281,0.2013491988182068,0.23256194591522217
1683135156833601800,0.625601806640625,0.09411430358886719,-0.07092607021331787,-0.16124436259269714
1683135156851445000,0.643445068359375,-0.13259124755859375,0.042865633964538574,0.21620908379554749
1683135156869288200,0.6612880859375,-0.08913803100585938,0.1323484182357788,-0.1272169053554535
1683135156887125500,0.67912548828125,-0.03961181640625,-0.12066835165023804,0.14580348134040833
1683135156904964400,0.69696435546875,-0.0044574737548828125,0.33616316318511963,-0.1118241548538208
1683135156922791000,0.714791015625,-0.11121749877929688,-0.277182400226593,0.19209030270576477
1683135156940646700,0.732646728515625,-0.026111602783203125,0.27104198932647705,-0.13424056768417358
1683135156958481200,0.750481201171875,-0.0704050064086914,-0.08566915988922119,0.1738480031490326
1683135156976323000,0.768322998046875,0.009224891662597656,0.20859158039093018,-0.10673260688781738
1683135156994165500,0.78616552734375,-0.1391887664794922,-0.26533299684524536,0.09123456478118896
1683135157012001800,0.804001708984375,0.004612922668457031,0.2878783345222473,-0.05343380570411682
1683135157029842200,0.82184228515625,-0.04373359680175781,-0.14102226495742798,0.08263272047042847
1683135157047664400,0.839664306640625,-0.14339160919189453,0.14079159498214722,-0.07478994131088257
1683135157065521700,0.857521728515625,-0.009280204772949219,0.09728449583053589,0.11364421248435974
1683135157083357400,0.875357421875,0.008920669555664062,-0.011931061744689941,-0.034860581159591675
1683135157101203500,0.893203369140625,-0.20600509643554688,0.061894774436950684,0.0734010636806488
1683135157119039000,0.9110390625,-0.001865386962890625,0.23950034379959106,0.011380255222320557
1683135157136879900,0.9288798828125,-0.03803730010986328,-0.2556619644165039,-0.006759285926818848
1683135157154713900,0.9467138671875,-0.07105350494384766,0.36655646562576294,0.08826836943626404
1683135157172547000,0.964547119140625,-0.0616302490234375,-0.018993675708770752,-0.02326720952987671
1683135157190397700,0.982397705078125,0.0065670013427734375,-0.15616124868392944,0.04154735803604126
1683135157208224300,1.000224365234375,-0.10985279083251953,0.2756958603858948,0.008028149604797363
1683135157226079500,1.01807958984375,0.014705657958984375,-0.13898193836212158,0.10617166757583618
1683135157243913000,1.035912841796875,-0.1658334732055664,-0.22326254844665527,-0.1281934678554535
1683135157261759700,1.053759765625,-0.019331932067871094,0.28033751249313354,0.18175992369651794
1683135157279601400,1.071601318359375,-0.042733192443847656,-0.13513684272766113,-0.11443960666656494
1683135157297428500,1.089428466796875,0.004309654235839844,0.08815127611160278,0.1878737211227417
1683135157315275300,1.107275146484375,-0.1434326171875,0.21626651287078857,-0.08808618783950806
1683135157333102000,1.12510205078125,0.0851898193359375,-0.10249578952789307,0.20146799087524414
1683135157350954800,1.142954833984375,-0.09508895874023438,0.16671699285507202,-0.1268189549446106
1683135157368793600,1.160793701171875,-0.08094024658203125,-0.07587563991546631,0.19102495908737183
1683135157386633500,1.178633544921875,-0.038733482360839844,0.13869059085845947,-0.14850199222564697
1683135157404466700,1.196466796875,0.0028009414672851562,-0.09810459613800049,0.20194151997566223
1683135157422313200,1.214313232421875,-0.10405540466308594,0.3612625002861023,-0.1081075370311737
1683135157440152000,1.232152099609375,0.012797355651855469,-0.10989195108413696,0.23264291882514954
1683135157457992000,1.249991943359375,-0.08193683624267578,-0.0718153715133667,-0.16837283968925476
1683135157475826200,1.267826171875,-0.053709983825683594,0.157123863697052,0.24360094964504242
1683135157493671200,1.285671142578125,0.0796499252319336,0.03052985668182373,-0.11932167410850525
1683135157511507200,1.303507080078125,-0.2006845474243164,-0.3384089469909668,0.09934771060943604
1683135157529344000,1.321343994140625,-0.03110027313232422,0.42337608337402344,-0.08468303084373474
1683135157547190300,1.339190185546875,0.025603294372558594,-0.27622270584106445,0.17879995703697205
1683135157565030100,1.357030029296875,-0.16508960723876953,0.2419452667236328,-0.1426103711128235
1683135157582869500,1.374869384765625,-0.07415962219238281,0.08655023574829102,0.17102578282356262
1683135157600704800,1.392704833984375,0.09189796447753906,-0.04491633176803589,-0.10907784104347229
1683135157618550500,1.410550537109375,-0.1948528289794922,0.07779073715209961,0.11941409111022949
1683135157636388400,1.428388427734375,-0.024740219116210938,0.2512820363044739,-0.05702739953994751
1683135157654223000,1.44622314453125,-0.04926300048828125,-0.33677011728286743,0.07491806149482727
1683135157672071000,1.46407080078125,-0.08207130432128906,0.3066614866256714,-0.029819965362548828
1683135157689906000,1.481906005859375,-0.007149696350097656,-0.04829907417297363,0.10280787944793701
1683135157707746600,1.49974658203125,-0.025081634521484375,0.08795928955078125,-0.03812462091445923
1683135157725582600,1.51758251953125,-0.13727664947509766,-0.0029677748680114746,0.05442255735397339
1683135157743428400,1.535428466796875,-0.018178939819335938,0.10194718837738037,-0.013362288475036621
1683135157761264400,1.553264404296875,-0.056647300720214844,-0.12112301588058472,-0.013622671365737915
1683135157779104800,1.571104736328125,-0.08195972442626953,0.31256312131881714,0.0922083854675293
1683135157796936400,1.5889365234375,-0.08067989349365234,0.010022103786468506,-0.02036184072494507
1683135157814786800,1.606786865234375,0.038097381591796875,-0.11199939250946045,0.07748514413833618
1683135157832622600,1.62462255859375,-0.10758018493652344,0.3003529906272888,0.03758153319358826
1683135157850460700,1.642460693359375,0.034626007080078125,-0.056821227073669434,0.10256966948509216
1683135157868304600,1.6603046875,-0.12276458740234375,-0.28862297534942627,-0.1365622580051422
1683135157886143200,1.678143310546875,-0.05597114562988281,0.24868285655975342,0.18934345245361328
1683135157903981000,1.69598095703125,-0.0333251953125,-0.09807693958282471,-0.14382383227348328
1683135157921821200,1.7138212890625,-0.03379058837890625,-0.09249675273895264,0.13719424605369568
1683135157939655700,1.73165576171875,-0.1421222686767578,0.33608460426330566,-0.11806577444076538
1683135157957501200,1.749501220703125,0.13940811157226562,-0.2440897822380066,0.18059566617012024
1683135157975335700,1.767335693359375,-0.1987619400024414,0.24210327863693237,-0.15101131796836853
1683135157993187000,1.78518701171875,-0.020662307739257812,0.06010401248931885,0.18965592980384827
1683135158011019300,1.803019287109375,0.0011138916015625,-0.20025217533111572,-0.17329901456832886
1683135158028859400,1.820859375,-0.09203052520751953,0.1411799192428589,0.23871247470378876
1683135158046686500,1.8386865234375,-0.0417633056640625,0.10160595178604126,-0.1499316394329071
1683135158064543000,1.85654296875,0.00030803680419921875,0.010323107242584229,0.2529539167881012
1683135158082377700,1.874377685546875,-0.09596538543701172,0.273346483707428,-0.13324585556983948
1683135158100215300,1.89221533203125,-0.05946540832519531,-0.39467519521713257,0.18271613121032715
1683135158118059500,1.9100595703125,0.02804279327392578,0.3824182152748108,-0.11112856864929199
1683135158135897300,1.9278974609375,-0.03710460662841797,-0.1906341314315796,0.1275312900543213
1683135158153736000,1.94573583984375,-0.13168716430664062,0.1472492814064026,-0.10270926356315613
1683135158171567400,1.9635673828125,-0.11099052429199219,0.07770872116088867,0.13569971919059753
1683135158189416400,1.98141650390625,0.02503204345703125,0.025772392749786377,-0.1187574565410614
1683135158207256000,1.999256103515625,-0.1212911605834961,0.006440699100494385,0.17158988118171692
1683135158225095000,2.017094970703125,-0.017688751220703125,0.1960693597793579,-0.10748797655105591
1683135158242930400,2.034930419921875,-0.11777114868164062,-0.1780174970626831,0.10837256908416748
1683135158260773600,2.052773681640625,-0.03186321258544922,0.3539988398551941,-0.0563184916973114
1683135158278614500,2.070614501953125,-0.08439922332763672,-0.26173079013824463,0.07100933790206909
1683135158296448300,2.0884482421875,-0.05172157287597656,0.31647735834121704,0.028325200080871582
1683135158314293800,2.106293701171875,-0.03746986389160156,0.06294029951095581,0.07243329286575317
1683135158332132900,2.1241328125,-0.05930900573730469,-0.060095906257629395,-0.05631113052368164
1683135158349973000,2.141972900390625,-0.09525585174560547,0.02901548147201538,0.061626583337783813
1683135158367817200,2.159817138671875,-0.046939849853515625,-0.078174889087677,0.02243673801422119
1683135158385647600,2.177647705078125,-0.0059566497802734375,0.12295949459075928,0.019107162952423096
1683135158403495200,2.1954951171875,-0.06301498413085938,0.03062129020690918,0.07190212607383728
1683135158421331700,2.213331787109375,-0.20288944244384766,-0.1994239091873169,-0.056299954652786255
1683135158439170600,2.231170654296875,0.07931232452392578,0.31661057472229004,0.07678154110908508
1683135158456993800,2.248993896484375,-0.026716232299804688,-0.1753876805305481,-0.039958059787750244
1683135158474849800,2.266849853515625,-0.09341621398925781,0.15188413858413696,0.13631558418273926
1683135158492686800,2.284686767578125,-0.09504985809326172,0.022294044494628906,-0.09199187159538269
1683135158510526200,2.302526123046875,0.007662773132324219,-0.27079182863235474,0.12039244174957275
1683135158528363000,2.320363037109375,-0.10775279998779297,0.3503970503807068,-0.1147160530090332
1683135158546209000,2.338208984375,0.05764293670654297,-0.2556535601615906,0.18479600548744202
1683135158564041700,2.356041748046875,-0.28154659271240234,0.006132006645202637,-0.16784659028053284
1683135158581890800,2.373890869140625,0.06269454956054688,0.2926937937736511,0.20652469992637634
1683135158599727900,2.391727783203125,0.038506507873535156,-0.11581271886825562,-0.14403539896011353
1683135158617566700,2.409566650390625,-0.11564350128173828,0.00357663631439209,0.23176351189613342
1683135158635405000,2.427405029296875,-0.09933090209960938,0.18169903755187988,-0.1429523527622223
1683135158653249500,2.44524951171875,0.04183483123779297,-0.1663341522216797,0.19277122616767883
1683135158671086600,2.463086669921875,-0.11439704895019531,0.26928389072418213,-0.14269012212753296
1683135158688924700,2.480924560546875,-0.040973663330078125,-0.06226891279220581,0.21068525314331055
1683135158706767400,2.498767333984375,-0.021617889404296875,0.059710562229156494,-0.16465842723846436
1683135158724605400,2.51660546875,-0.024514198303222656,0.11541754007339478,0.21140217781066895
1683135158742445300,2.5344453125,0.0019397735595703125,0.028938353061676025,-0.13984930515289307
1683135158760281300,2.55228125,-0.16763782501220703,-0.07523781061172485,0.15240612626075745
1683135158778128000,2.5701279296875,0.025191307067871094,0.32470303773880005,-0.07263749837875366
1683135158795964000,2.5879638671875,-0.08030986785888672,-0.30591243505477905,0.10296419262886047
1683135158813799200,2.605799072265625,-0.07455921173095703,0.3703247904777527,-0.027745097875595093
1683135158831642600,2.623642578125,-0.06184196472167969,-0.046320974826812744,0.15851479768753052
1683135158849484000,2.641484130859375,-0.022070884704589844,0.062265634536743164,-0.14373579621315002
1683135158867322400,2.659322265625,-0.10894107818603516,0.03363281488418579,0.13098382949829102
1683135158885158700,2.67715869140625,-0.014676094055175781,-0.03017735481262207,-0.06985166668891907
1683135158903001600,2.695001708984375,-0.12084102630615234,0.010097742080688477,0.056402504444122314
1683135158920842200,2.71284228515625,-0.034641265869140625,0.26867932081222534,-0.015250086784362793
1683135158938680000,2.73068017578125,-0.1118021011352539,-0.31560903787612915,0.0319751501083374
1683135158956522500,2.7485224609375,-0.05323600769042969,0.30637919902801514,-0.006168842315673828
1683135158974360800,2.76636083984375,0.029473304748535156,-0.2205100655555725,0.060502052307128906
1683135158992198700,2.78419873046875,-0.039130210876464844,0.27205604314804077,0.03681477904319763
1683135159010041600,2.80204150390625,-0.07308483123779297,-0.1008266806602478,0.013397514820098877
1683135159027881500,2.819881591796875,-0.08949565887451172,-0.24178248643875122,0.03187093138694763
1683135159045714700,2.837714599609375,-0.06683635711669922,0.27392929792404175,-0.05733361840248108
1683135159063560000,2.855559814453125,0.053503990173339844,-0.06693196296691895,0.07232329249382019
1683135159081398800,2.873398681640625,-0.22785663604736328,0.01674407720565796,-0.04545363783836365
1683135159099239000,2.891239013671875,-0.008792877197265625,0.15673470497131348,0.12742584943771362
1683135159117078000,2.909078125,0.03634929656982422,0.015370190143585205,-0.08198404312133789
1683135159134914300,2.926914306640625,-0.08116912841796875,-0.15519648790359497,0.1585569977760315
1683135159152753700,2.944753662109375,-0.14263916015625,0.20351725816726685,-0.10630211234092712
1683135159170599200,2.96259912109375,0.055029869079589844,-0.2426820993423462,0.1760411262512207
1683135159188436700,2.980436767578125,-0.2082195281982422,0.031130850315093994,-0.17117607593536377
1683135159206274800,2.99827490234375,0.08529853820800781,0.1678318977355957,0.2219415158033371
1683135159224116700,3.01611669921875,-0.028032302856445312,-0.12273764610290527,-0.17667576670646667
1683135159241956600,3.03395654296875,-0.16866302490234375,0.057376861572265625,0.19802364706993103
1683135159259779000,3.051779052734375,-0.025905609130859375,0.32196301221847534,-0.1433548629283905
1683135159277637400,3.069637451171875,0.05365467071533203,-0.36973845958709717,0.18061727285385132
1683135159295475700,3.087475830078125,-0.1963958740234375,0.3926628828048706,-0.10283663868904114
1683135159313315600,3.105315673828125,0.0011720657348632812,-0.06418102979660034,0.18166860938072205
1683135159331153400,3.1231533203125,0.01190948486328125,-0.054248273372650146,-0.16533800959587097
1683135159348996600,3.14099658203125,-0.11321640014648438,0.2323683500289917,0.29599446058273315
1683135159366834200,3.158834228515625,0.034903526306152344,0.09137380123138428,-0.1430242359638214
1683135159384674600,3.176674560546875,-0.12121391296386719,-0.38139426708221436,0.17247211933135986
1683135159402512600,3.1945126953125,-0.03718280792236328,0.5182909369468689,-0.06787389516830444
1683135159420355000,3.21235498046875,-0.01882171630859375,-0.32718920707702637,0.08558034896850586
1683135159438193200,3.230193115234375,-0.10539627075195312,0.1546642780303955,-0.07414883375167847
1683135159456028700,3.248028564453125,-0.16017436981201172,0.034436702728271484,0.1316198706626892
1683135159473858800,3.26585888671875,0.08343315124511719,0.14291244745254517,-0.12174162268638611
1683135159491698700,3.28369873046875,-0.10779380798339844,-0.1947435736656189,0.15219062566757202
1683135159509552000,3.30155224609375,-0.2246999740600586,0.2504042983055115,-0.06326207518577576
1683135159527390700,3.319390625,0.04154205322265625,-0.03589516878128052,0.057321637868881226
1683135159545235700,3.337235595703125,0.025604248046875,0.008890867233276367,-0.0098801851272583
1683135159563072000,3.355072021484375,-0.22467422485351562,0.14862489700317383,0.06619349122047424
1683135159580909800,3.372909912109375,0.049816131591796875,0.10046535730361938,-0.0027064085006713867
1683135159598742500,3.390742431640625,-0.026398658752441406,-0.2665347456932068,0.012396901845932007
1683135159616590000,3.408590087890625,-0.10344600677490234,0.46216076612472534,0.07943204045295715
1683135159634430200,3.42643017578125,0.024519920349121094,-0.22413432598114014,-0.01658150553703308
1683135159652267500,3.444267578125,-0.08455181121826172,-0.17722386121749878,0.024222761392593384
1683135159670113500,3.462113525390625,-0.12825489044189453,0.30777639150619507,-0.041675567626953125
1683135159687949000,3.479948974609375,0.09272289276123047,-0.23603403568267822,0.09441682696342468
1683135159705790000,3.4977900390625,-0.24804306030273438,-0.01395493745803833,-0.10193482041358948
1683135159723616800,3.51561669921875,0.03357982635498047,0.2995615601539612,0.15143227577209473
1683135159741469400,3.533469482421875,0.003093719482421875,-0.2218179702758789,-0.09688237309455872
1683135159759304000,3.551303955078125,-0.08744239807128906,0.09403926134109497,0.20089641213417053
1683135159777153300,3.5691533203125,-0.08582115173339844,0.1814214587211609,-0.10403600335121155
1683135159794988000,3.586988037109375,0.0391693115234375,-0.349806010723114,0.15704676508903503
1683135159812824000,3.604823974609375,-0.1745586395263672,0.2991580367088318,-0.1528404951095581
1683135159830666800,3.622666748046875,0.040886878967285156,-0.17952507734298706,0.20407846570014954
1683135159848492800,3.640492919921875,-0.07707691192626953,0.2639668583869934,-0.14335283637046814
1683135159866346800,3.6583466796875,-0.005631446838378906,0.030958890914916992,0.24087990820407867
1683135159884184000,3.67618408203125,-0.0991067886352539,-0.1950656771659851,-0.1916062831878662
1683135159902027800,3.69402783203125,-0.05066967010498047,0.12383043766021729,0.20384490489959717
1683135159919870700,3.71187060546875,0.02722644805908203,0.0984453558921814,-0.1289457380771637
1683135159937705700,3.729705810546875,-0.19350051879882812,-0.3405718207359314,0.1308595836162567
1683135159955534300,3.747534423828125,-0.05749702453613281,0.36724162101745605,-0.11707094311714172
1683135159973380400,3.76538037109375,0.013430595397949219,-0.23268216848373413,0.20260828733444214
1683135159991225900,3.783225830078125,-0.15458202362060547,0.2270166277885437,-0.1604989469051361
1683135160009064700,3.801064697265625,-0.07406902313232422,0.07381916046142578,0.18470463156700134
1683135160026905600,3.818905517578125,0.04841804504394531,-0.052081406116485596,-0.14592933654785156
1683135160044743700,3.83674365234375,-0.19889354705810547,0.03219324350357056,0.13131001591682434
1683135160062581800,3.854581787109375,0.00746917724609375,0.23351657390594482,-0.08450743556022644
1683135160080414700,3.872414794921875,-0.10258865356445312,-0.35364675521850586,0.05522081255912781
1683135160098263800,3.890263916015625,-0.040283203125,0.35700905323028564,-0.03803884983062744
1683135160116104000,3.90810400390625,-0.004258155822753906,-0.27200448513031006,0.12498268485069275
1683135160133944000,3.925944091796875,0.012146949768066406,0.319343626499176,-0.035228610038757324
1683135160151783400,3.943783447265625,-0.08809947967529297,-0.1180952787399292,0.09039357304573059
1683135160169623300,3.961623291015625,-0.11393165588378906,-0.1638011336326599,-0.05622228980064392
1683135160187462100,3.979462158203125,-0.0461883544921875,0.18354743719100952,0.00262334942817688
1683135160205303300,3.99730322265625,0.039702415466308594,-0.04459238052368164,0.026263117790222168
1683135160223137500,4.015137451171875,-0.2440929412841797,-0.15522873401641846,-0.03205674886703491
1683135160240982500,4.032982421875,-0.018919944763183594,0.3248147964477539,0.03532087802886963
1683135160258822000,4.05082177734375,0.0350494384765625,-0.22250407934188843,-0.029445230960845947
1683135160276662300,4.068662353515625,-0.1773548126220703,0.20077329874038696,0.09000816941261292
1683135160294497000,4.0864970703125,-0.05383872985839844,0.1028866171836853,-0.07629269361495972
1683135160312341800,4.104341796875,0.03551769256591797,-0.25985491275787354,0.1342904269695282
1683135160330180600,4.1221806640625,-0.2451152801513672,0.38239896297454834,-0.07092621922492981
1683135160348021500,4.140021484375,0.1432180404663086,-0.009887278079986572,0.15968221426010132
1683135160365860400,4.1578603515625,-0.12950515747070312,-0.19014781713485718,-0.1492883563041687
1683135160383700700,4.17570068359375,-0.04518413543701172,0.15867775678634644,0.180264413356781
1683135160401539300,4.193539306640625,0.029026031494140625,0.10493093729019165,-0.11848697066307068
1683135160419381500,4.211381591796875,0.01119232177734375,-0.20145916938781738,0.16810870170593262
1683135160437219600,4.229219482421875,-0.21407127380371094,0.03841555118560791,-0.16785433888435364
1683135160455060000,4.24706005859375,0.06636810302734375,0.008941173553466797,0.21081137657165527
1683135160472899000,4.264899169921875,-0.0015125274658203125,0.07373201847076416,-0.15469145774841309
1683135160490725600,4.2827255859375,-0.20113086700439453,-0.07070267200469971,0.18427467346191406
1683135160508578800,4.300578857421875,-0.013510704040527344,0.3010485768318176,-0.16313377022743225
1683135160526418700,4.318418701171875,0.050965309143066406,-0.2895093560218811,0.23677335679531097
1683135160544254000,4.33625390625,-0.20985889434814453,0.343783974647522,-0.1196240484714508
1683135160562099000,4.354098876953125,-0.06532478332519531,-0.029409170150756836,0.1383465826511383
1683135160579938000,4.37193798828125,0.02159595489501953,-0.07978767156600952,-0.12308740615844727
1683135160597778400,4.3897783203125,-0.14824676513671875,0.18407434225082397,0.18960237503051758
1683135160615605200,4.407605224609375,0.04699993133544922,0.15848618745803833,-0.13122671842575073
1683135160633458700,4.425458740234375,-0.10122966766357422,-0.29158085584640503,0.15666651725769043
1683135160651295700,4.443295654296875,-0.09080982208251953,0.4242308735847473,-0.12159323692321777
1683135160669138000,4.461137939453125,-0.017096519470214844,-0.41554051637649536,0.10771730542182922
1683135160686977500,4.4789775390625,-0.009862899780273438,0.3447505235671997,-0.05666342377662659
1683135160704818000,4.49681787109375,-0.10888385772705078,-0.1407163143157959,0.06757494807243347
1683135160722644700,4.514644775390625,-0.13995075225830078,-0.07895350456237793,-0.08153682947158813
1683135160740487700,4.53248779296875,-0.029592514038085938,0.2159293293952942,0.07448190450668335
1683135160758335200,4.550335205078125,0.017279624938964844,0.017697393894195557,-0.03837493062019348
1683135160776175000,4.568175048828125,-0.18170928955078125,-0.07353770732879639,0.06797948479652405
1683135160794018300,4.586018310546875,-0.10276126861572266,0.3086504340171814,0.021086543798446655
1683135160811856100,4.603856201171875,0.04312610626220703,-0.3481397032737732,-0.018017292022705078
1683135160829695000,4.621695068359375,-0.06435489654541016,0.2661595344543457,0.0861254632472992
1683135160847524400,4.6395244140625,-0.12204456329345703,-0.0814923644065857,-0.03789162635803223
1683135160865370600,4.65737060546875,0.041484832763671875,0.05863529443740845,0.09888195991516113
1683135160883215400,4.67521533203125,-0.11745929718017578,0.17824101448059082,-0.04251512885093689
1683135160901055000,4.693054931640625,-0.09161567687988281,-0.04979228973388672,0.09104961156845093
1683135160918895400,4.710895263671875,-0.08624458312988281,0.10073751211166382,-0.0902063250541687
1683135160936729900,4.728729736328125,-0.02321910858154297,-0.12391817569732666,0.15653997659683228
1683135160954574800,4.746574951171875,-0.1825237274169922,0.23298269510269165,-0.11190199851989746
1683135160972411100,4.7644111328125,0.06693840026855469,0.04854989051818848,0.19435462355613708
1683135160990253800,4.78225390625,-0.13891124725341797,-0.15738451480865479,-0.16510024666786194
1683135161008095200,4.80009521484375,-0.032764434814453125,0.21805089712142944,0.26545193791389465
1683135161025934300,4.817934326171875,0.013692855834960938,0.05353593826293945,-0.15658363699913025
1683135161043770000,4.83577001953125,-0.05335807800292969,-0.3391951322555542,0.16426262259483337
1683135161061617700,4.85361767578125,-0.13380908966064453,0.39553481340408325,-0.1349048912525177
1683135161079453400,4.871453369140625,0.02588653564453125,-0.31481820344924927,0.19178658723831177
1683135161097293600,4.88929345703125,-0.13303375244140625,0.19031411409378052,-0.16739434003829956
1683135161115133000,4.9071328125,-0.10942554473876953,0.01325613260269165,0.21695759892463684
1683135161132968000,4.924968017578125,0.09708976745605469,0.13417524099349976,-0.16365620493888855
1683135161150813000,4.94281298828125,-0.0794830322265625,-0.13327419757843018,0.22276079654693604
1683135161168653300,4.9606533203125,-0.19400596618652344,0.20230811834335327,-0.12746983766555786
1683135161186486300,4.978486328125,-0.034768104553222656,-0.04124855995178223,0.1283712387084961
1683135161204334300,4.996334228515625,0.032942771911621094,0.09013628959655762,-0.0761403739452362
1683135161222172000,5.014171875,-0.20164203643798828,0.09262639284133911,0.14743059873580933
1683135161240012300,5.03201220703125,0.02482891082763672,0.1672380566596985,-0.09065863490104675
1683135161257833700,5.049833740234375,-0.06220817565917969,-0.27400076389312744,0.12282514572143555
1683135161275692800,5.06769287109375,-0.05749225616455078,0.46927735209465027,-0.03988721966743469
1683135161293529000,5.085529052734375,-0.0001239776611328125,-0.29290395975112915,0.10290306806564331
1683135161311373600,5.10337353515625,-0.11170291900634766,-0.04737299680709839,-0.09851214289665222
1683135161329212700,5.121212646484375,-0.11433219909667969,0.138796865940094,0.061156392097473145
1683135161347051800,5.1390517578125,0.04434490203857422,-0.09829753637313843,-0.026610523462295532
1683135161364891400,5.156891357421875,-0.19624614715576172,-0.12431854009628296,0.007053673267364502
1683135161382723000,5.17472314453125,-0.03529167175292969,0.33336693048477173,0.013291746377944946
1683135161400570600,5.192570556640625,0.03574085235595703,-0.311459481716156,0.015308201313018799
1683135161418409000,5.210408935546875,-0.17260169982910156,0.25196385383605957,0.05079013109207153
1683135161436252000,5.228251953125,-0.06809139251708984,0.020706236362457275,-0.01828324794769287
1683135161454093300,5.24609326171875,0.06234264373779297,-0.1323716640472412,0.0690397322177887
1683135161471929900,5.263929931640625,-0.23481464385986328,0.17243915796279907,-0.06887173652648926
1683135161489759000,5.281759033203125,0.013869285583496094,0.021448194980621338,0.1281135380268097
1683135161507610400,5.2996103515625,-0.11846733093261719,-0.12066525220870972,-0.116700679063797
1683135161525450800,5.31745068359375,0.018016815185546875,0.21575647592544556,0.15180522203445435
1683135161543289600,5.33528955078125,-0.057158470153808594,-0.17702358961105347,-0.1125606894493103
1683135161561130800,5.353130859375,-0.008287429809570312,-0.008122444152832031,0.20092880725860596
1683135161578969600,5.370969482421875,-0.09188175201416016,0.15918970108032227,-0.1316082775592804
1683135161596810200,5.388810302734375,-0.060901641845703125,-0.1168246865272522,0.1900065839290619
1683135161614649000,5.406649169921875,-0.1573476791381836,0.24445891380310059,-0.1433205008506775
1683135161632478000,5.42447802734375,0.03789806365966797,-0.24675554037094116,0.2192908376455307
1683135161650330600,5.44233056640625,-0.07691287994384766,0.3552204370498657,-0.11723896861076355
1683135161668170000,5.460169921875,0.02303600311279297,-0.10101532936096191,0.2229773998260498
1683135161686008800,5.4780087890625,-0.1204233169555664,-0.17826628684997559,-0.2003823220729828
1683135161703856600,5.495856689453125,-0.09937095642089844,0.11629331111907959,0.20153942704200745
1683135161721688600,5.5136884765625,0.04892730712890625,0.02984750270843506,-0.1412753462791443
1683135161739519700,5.531519775390625,-0.1702728271484375,-0.2915617823600769,0.12717780470848083
1683135161757368300,5.549368408203125,-0.05486011505126953,0.41532403230667114,-0.12683099508285522
1683135161775209700,5.567209716796875,0.0028772354125976562,-0.32787346839904785,0.20533829927444458
1683135161793048800,5.585048828125,-0.14931392669677734,0.26927894353866577,-0.13653576374053955
1683135161810889200,5.60288916015625,-0.09203815460205078,0.07730889320373535,0.1614157259464264
1683135161828728000,5.62072802734375,0.054802894592285156,-0.1049150824546814,-0.09955298900604248
1683135161846557200,5.63855712890625,-0.2239389419555664,0.1062387228012085,0.10758581757545471
1683135161864408000,5.656407958984375,0.01676177978515625,0.20735055208206177,-0.04695051908493042
1683135161882248700,5.674248779296875,-0.05763816833496094,-0.3342035412788391,0.06147441267967224
1683135161900087600,5.692087646484375,-0.07838916778564453,0.48132193088531494,0.022334933280944824
1683135161917928400,5.709928466796875,0.016968727111816406,-0.18727439641952515,0.09317836165428162
1683135161935767800,5.727767822265625,-0.12403678894042969,0.007093846797943115,-0.05947369337081909
1683135161953606000,5.74560595703125,-0.13947486877441406,0.0869898796081543,0.041189491748809814
1683135161971445000,5.763445068359375,0.0011911392211914062,0.024097681045532227,0.03955960273742676
1683135161989288200,5.7812880859375,-0.11642837524414062,0.05390650033950806,-0.028127014636993408
1683135162007127600,5.79912744140625,-0.08020591735839844,-0.026180505752563477,0.06122055649757385
1683135162024968000,5.816968017578125,-0.06454181671142578,0.20261448621749878,0.022036314010620117
1683135162042803500,5.834803466796875,0.03635978698730469,0.09138154983520508,0.06704127788543701
1683135162060649200,5.852649169921875,-0.15259742736816406,-0.38711798191070557,-0.10303851962089539
1683135162078483000,5.87048291015625,-0.08988380432128906,0.22682136297225952,0.1501249372959137
1683135162096332300,5.888332275390625,0.02543354034423828,-0.08599019050598145,-0.13340342044830322
1683135162114166800,5.906166748046875,-0.08618450164794922,-0.18380939960479736,0.14000749588012695
1683135162132007400,5.92400732421875,-0.19084835052490234,0.3218158483505249,-0.12408074736595154
1683135162149831700,5.941831787109375,0.1720132827758789,-0.22942352294921875,0.20188695192337036
1683135162167687700,5.959687744140625,-0.220245361328125,0.17938876152038574,-0.14362266659736633
1683135162185523700,5.977523681640625,-0.027960777282714844,0.12995755672454834,0.21153470873832703
1683135162203367200,5.9953671875,-0.014575958251953125,-0.2136508822441101,-0.17235681414604187
1683135162221210000,6.013210205078125,-0.09462928771972656,0.08711743354797363,0.23636990785598755
1683135162239047000,6.031046875,-0.08738422393798828,0.0781129002571106,-0.16969034075737
1683135162256886500,6.048886474609375,0.04740142822265625,-0.12564420700073242,0.1853034794330597
1683135162274715600,6.066715576171875,-0.13141727447509766,0.18098002672195435,-0.1446675956249237
1683135162292551000,6.084551025390625,-0.14344501495361328,-0.09446835517883301,0.20417484641075134
1683135162310410000,6.102409912109375,0.0632314682006836,0.33246660232543945,-0.166650652885437
1683135162328233500,6.1202333984375,-0.06963443756103516,-0.2867189645767212,0.18821853399276733
1683135162346088200,6.138088134765625,-0.17932796478271484,0.2804078459739685,-0.07365530729293823
1683135162363923700,6.155923828125,-0.036324501037597656,0.0003744959831237793,0.1134728193283081
1683135162381769500,6.17376953125,0.02743244171142578,-0.021630525588989258,-0.12020936608314514
1683135162399603700,6.191603759765625,-0.21323299407958984,0.1459553837776184,0.18797972798347473
1683135162417448200,6.2094482421875,0.027101516723632812,0.11860829591751099,-0.1244177520275116
1683135162435287300,6.227287353515625,-0.06390857696533203,-0.3835097551345825,0.11809390783309937
1683135162453126700,6.245126708984375,-0.10793685913085938,0.4690486788749695,-0.04031440615653992
1683135162470966000,6.262966064453125,-0.025407791137695312,-0.3287668824195862,0.047405749559402466
1683135162488807200,6.28080712890625,-0.14727497100830078,-0.016778945922851562,-0.06917467713356018
1683135162506646000,6.29864599609375,-0.0782318115234375,0.19996005296707153,0.08206039667129517
1683135162524484900,6.31648486328125,0.07022666931152344,-0.10517853498458862,-0.025239616632461548
1683135162542325800,6.33432568359375,-0.2137899398803711,-0.08100128173828125,0.042797595262527466
1683135162560163600,6.35216357421875,-0.07201671600341797,0.3633376359939575,-0.02209615707397461
1683135162578009300,6.37000927734375,0.0740976333618164,-0.3434838652610779,0.0027180016040802
1683135162595841800,6.387841796875,-0.20252513885498047,0.2696707844734192,0.06449741125106812
1683135162613685500,6.405685546875,-0.09500885009765625,0.07652288675308228,-0.05951946973800659
1683135162631526700,6.423526611328125,0.040152549743652344,-0.2199951410293579,0.07898315787315369
1683135162649364500,6.441364501953125,-0.2104969024658203,0.3768513798713684,-0.007105737924575806
1683135162667193000,6.459193115234375,0.10612201690673828,-0.013598442077636719,0.11956214904785156
1683135162685048600,6.477048583984375,-0.12724018096923828,-0.33495116233825684,-0.10390007495880127
1683135162702886700,6.49488671875,-0.10868644714355469,0.3161160945892334,0.19915121793746948
1683135162720721200,6.51272119140625,0.0023212432861328125,-0.12805849313735962,-0.1450960636138916
1683135162738567700,6.530567626953125,-0.08936119079589844,-0.24059522151947021,0.1544012725353241
1683135162756405500,6.548405517578125,-0.17450809478759766,0.4207324981689453,-0.13240069150924683
1683135162774235000,6.56623486328125,0.14943599700927734,-0.30717015266418457,0.214101642370224
1683135162792085800,6.584085693359375,-0.2763490676879883,0.12598532438278198,-0.18739712238311768
1683135162809926400,6.601926513671875,-0.0016031265258789062,0.1760650873184204,0.20252704620361328
1683135162827765500,6.619765625,-0.009237289428710938,-0.22779428958892822,-0.177453875541687
1683135162845603600,6.637603515625,-0.07478046417236328,0.09202361106872559,0.23162367939949036
1683135162863445500,6.655445556640625,-0.07268047332763672,0.140505850315094,-0.15445879101753235
1683135162881289200,6.673289306640625,-0.08922290802001953,-0.353285551071167,0.14071831107139587
1683135162899125200,6.691125244140625,-0.07100963592529297,0.45988738536834717,-0.14381787180900574
1683135162916954600,6.70895458984375,-0.03950786590576172,-0.27855056524276733,0.19548693299293518
1683135162934805800,6.7268056640625,-0.13737201690673828,0.1870763897895813,-0.15328258275985718
1683135162952647000,6.74464697265625,-0.049243927001953125,0.11956822872161865,0.20553267002105713
1683135162970482700,6.762482666015625,0.0771646499633789,-0.12006509304046631,-0.12972962856292725
1683135162988327000,6.780326904296875,-0.21763992309570312,-0.02289372682571411,0.12352460622787476
1683135163006168600,6.79816845703125,-0.04335975646972656,0.05576169490814209,-0.07370525598526001
1683135163024006100,6.816006103515625,-0.005148887634277344,-0.05513596534729004,0.07204464077949524
1683135163041842200,6.83384228515625,-0.0923757553100586,0.1535436511039734,-0.0565662682056427
1683135163059688200,6.851688232421875,-0.1871500015258789,-0.16449272632598877,0.09765133261680603
1683135163077526000,6.869526123046875,0.031084060668945312,0.32646143436431885,-0.08398142457008362
1683135163095365600,6.88736572265625,-0.039936065673828125,-0.2502729296684265,0.07509323954582214
1683135163113206300,6.905206298828125,-0.1482715606689453,0.23234587907791138,0.02077731490135193
1683135163131047000,6.923046875,-0.04589557647705078,0.02849656343460083,-0.011172771453857422
1683135163148886300,6.94088623046875,-0.00069427490234375,-0.05545306205749512,0.003556370735168457
1683135163166726700,6.9587265625,-0.1643524169921875,0.22245293855667114,0.047994375228881836
1683135163184565800,6.976565673828125,0.015440940856933594,-0.0003374814987182617,0.021145999431610107
1683135163202407400,6.994407470703125,-0.10162353515625,-0.3677857518196106,-0.04493623971939087
1683135163220243200,7.0122431640625,-0.09836578369140625,0.37425297498703003,0.1237105131149292
1683135163238090200,7.03009033203125,0.0057830810546875,-0.1888411045074463,-0.09465011954307556
1683135163255925800,7.04792578125,-0.1378154754638672,-0.19721496105194092,0.08793121576309204
1683135163273767200,7.06576708984375,-0.14763450622558594,0.3353731036186218,-0.08488783240318298
1683135163291603200,7.083603271484375,0.1771717071533203,-0.23935335874557495,0.13613557815551758
1683135163309449500,7.101449462890625,-0.3087911605834961,0.0867735743522644,-0.12626966834068298
1683135163327286000,7.1192861328125,-0.010980606079101562,0.16581755876541138,0.1765715777873993
1683135163345127200,7.137127197265625,0.019582748413085938,-0.20081299543380737,-0.15478384494781494
1683135163362958800,7.154958740234375,-0.1358776092529297,0.10049396753311157,0.22204457223415375
1683135163380810000,7.17281005859375,-0.08353328704833984,0.21307891607284546,-0.14488521218299866
1683135163398634200,7.19063427734375,0.05583477020263672,-0.37988317012786865,0.17530059814453125
1683135163416479000,7.20847900390625,-0.1916351318359375,0.3700166940689087,-0.14260435104370117
1683135163434327000,7.2263271484375,0.010127067565917969,-0.21232807636260986,0.21578791737556458
1683135163452167200,7.244167236328125,-0.013261795043945312,0.13499432802200317,-0.1893969476222992
1683135163469995000,7.2619951171875,-0.11598777770996094,-0.15664982795715332,0.19632041454315186
1683135163487847400,7.279847412109375,-0.06986808776855469,0.15475094318389893,-0.13721510767936707
1683135163505686800,7.297686767578125,-0.0688028335571289,-0.1038174033164978,0.1359446942806244
1683135163523527200,7.315527099609375,-0.027433395385742188,0.16863340139389038,-0.10585677623748779
1683135163541354800,7.333354736328125,-0.14265823364257812,-0.17581772804260254,0.14142602682113647
1683135163559208200,7.351208251953125,-0.005397796630859375,0.26132023334503174,-0.15004748106002808
1683135163577047300,7.36904736328125,-0.05122661590576172,-0.2221556305885315,0.17606765031814575
1683135163594887700,7.3868876953125,-0.13889789581298828,0.2747974395751953,-0.09217822551727295
1683135163612723500,7.404723388671875,-0.05154705047607422,-0.040017545223236084,0.10446345806121826
1683135163630568000,7.42256787109375,-0.014405250549316406,0.003754734992980957,-0.0674901008605957
1683135163648393000,7.44039306640625,-0.17175674438476562,0.1048121452331543,0.09517461061477661
1683135163666252300,7.458252197265625,0.05386066436767578,0.12457847595214844,-0.07395690679550171
1683135163684079600,7.47607958984375,-0.09439945220947266,-0.31898248195648193,0.05247184634208679
1683135163701931500,7.493931640625,-0.11301231384277344,0.43723583221435547,0.0063374340534210205
1683135163719766800,7.511766845703125,0.05812358856201172,-0.26136505603790283,0.050812989473342896
1683135163737609000,7.52960888671875,-0.13432025909423828,0.0758969783782959,-0.035897403955459595
1683135163755447600,7.547447509765625,-0.12932586669921875,0.10568493604660034,-0.017827093601226807
1683135163773288400,7.565288330078125,0.029460906982421875,-0.2044445276260376,0.05343085527420044
1683135163791127300,7.583127197265625,-0.14577960968017578,0.16789495944976807,-0.04120701551437378
1683135163808968400,7.600968505859375,0.031615257263183594,-0.04976201057434082,0.07723629474639893
1683135163826808800,7.618808837890625,-0.04812908172607422,0.05963730812072754,-0.04109421372413635
1683135163844649200,7.636649169921875,-0.05280494689941406,0.0018848180770874023,0.09366783499717712
1683135163862486300,7.654486328125,-0.1339435577392578,-0.3345258831977844,-0.14735490083694458
1683135163880331000,7.6723310546875,0.019121170043945312,0.19487714767456055,0.16987568140029907
1683135163898168000,7.69016796875,-0.06856536865234375,-0.018446385860443115,-0.15570729970932007
1683135163916009700,7.708009765625,-0.07272911071777344,-0.10362833738327026,0.15908116102218628
1683135163933844200,7.72584423828125,-0.17081356048583984,0.23758918046951294,-0.13260263204574585
1683135163951689700,7.743689697265625,0.1079263687133789,-0.1212887167930603,0.19146108627319336
1683135163969528800,7.76152880859375,-0.09948539733886719,0.21357965469360352,-0.1554676592350006
1683135163987370000,7.779369873046875,-0.08409309387207031,-0.2393265962600708,0.1876203417778015
1683135164005204700,7.797204833984375,-0.11815071105957031,0.21974068880081177,-0.1467791199684143
1683135164023049500,7.815049560546875,0.016605377197265625,0.05042535066604614,0.18471986055374146
1683135164040888800,7.832888916015625,-0.08665943145751953,-0.08811146020889282,-0.16990822553634644
1683135164058729200,7.850729248046875,-0.117889404296875,0.015051007270812988,0.22308003902435303
1683135164076571000,7.86857080078125,-0.03590202331542969,0.12364029884338379,-0.17786580324172974
1683135164094410500,7.886410400390625,-0.01834392547607422,-0.05199289321899414,0.16688823699951172
1683135164112245500,7.90424560546875,-0.10868644714355469,0.0901939868927002,-0.11413487792015076
1683135164130086400,7.92208642578125,-0.17003440856933594,-0.08466917276382446,0.14445087313652039
1683135164147931000,7.939930908203125,0.03961181640625,0.3100060224533081,-0.09289589524269104
1683135164165770800,7.957770751953125,-0.1129150390625,-0.281211256980896,0.10534560680389404
1683135164183592400,7.975592529296875,-0.0803060531616211,0.32469624280929565,-0.03086555004119873
1683135164201451000,7.993450927734375,-0.026502609252929688,-0.10201835632324219,0.14740967750549316
1683135164219290600,8.01129052734375,-0.025415420532226562,0.03074413537979126,-0.14983698725700378
1683135164237132000,8.029132080078124,-0.14074420928955078,0.027501702308654785,0.11990717053413391
1683135164254965000,8.046965087890625,-0.00016117095947265625,-0.0030398964881896973,-0.07884028553962708
1683135164272807700,8.0648076171875,-0.15196895599365234,-0.2572057247161865,0.005161762237548828
1683135164290651000,8.08265087890625,-0.04370307922363281,0.35338956117630005,-0.02193659543991089
1683135164308491500,8.100491455078124,-0.030417442321777344,-0.27039676904678345,0.05479001998901367
1683135164326326300,8.118326171875,-0.22205352783203125,0.15713614225387573,-0.041227906942367554
1683135164344162000,8.136162109375,0.0024271011352539062,0.13044017553329468,0.04497343301773071
1683135164362011100,8.15401123046875,-0.05991363525390625,-0.10929715633392334,0.0032708942890167236
1683135164379849500,8.171849365234374,-0.20725154876708984,0.13458716869354248,0.005312412977218628
1683135164397694200,8.189694091796875,0.0025997161865234375,0.11924439668655396,0.05835554003715515
1683135164415533600,8.207533447265625,-0.10169696807861328,-0.23544538021087646,-0.07755297422409058
1683135164433371000,8.225370849609375,-0.06289100646972656,0.2504068613052368,0.09470519423484802
1683135164451211800,8.243211669921875,-0.1341562271118164,-0.10119730234146118,-0.0848415195941925
1683135164469052700,8.261052734375,0.05322837829589844,0.06976419687271118,0.09093359112739563
1683135164486893600,8.2788935546875,-0.15833568572998047,-0.026089966297149658,-0.09267151355743408
1683135164504732700,8.296732666015625,-0.14099502563476562,-0.0016847848892211914,0.17917180061340332
1683135164522573300,8.3145732421875,-0.047461509704589844,0.25102484226226807,-0.15878522396087646
1683135164540409900,8.332409912109375,0.01887226104736328,-0.23904943466186523,0.19673088192939758
1683135164558244600,8.35024462890625,-0.2600584030151367,0.3154051899909973,-0.10751384496688843
1683135164576089300,8.36808935546875,0.11252593994140625,-0.04311281442642212,0.21946199238300323
1683135164593931800,8.385931884765625,-0.08942794799804688,-0.17018193006515503,-0.2017781138420105
1683135164611773400,8.4037734375,-0.11789417266845703,0.18032914400100708,0.24232031404972076
1683135164629616400,8.421616455078125,-0.005382537841796875,-0.05004322528839111,-0.17086413502693176
1683135164647453700,8.43945361328125,-0.14362812042236328,-0.3404387831687927,0.1584470272064209
1683135164665294000,8.457294189453124,-0.07931709289550781,0.4832470417022705,-0.13545793294906616
1683135164683133400,8.475133544921874,0.02474498748779297,-0.34110426902770996,0.19266074895858765
1683135164700973800,8.492973876953124,-0.19887161254882812,0.11687779426574707,-0.18229719996452332
1683135164718815500,8.5108154296875,-0.03421497344970703,0.1714286208152771,0.22604137659072876
1683135164736655000,8.528655029296875,0.09563541412353516,-0.08531802892684937,-0.15977692604064941
1683135164754494200,8.546494140625,-0.275421142578125,0.004659831523895264,0.15776872634887695
1683135164772334600,8.56433447265625,-0.023438453674316406,0.26180315017700195,-0.09755715727806091
1683135164790176000,8.582176025390625,-0.039793968200683594,-0.3642977476119995,0.06903409957885742
1683135164808015400,8.600015380859375,-0.0729827880859375,0.2979736924171448,-0.05387306213378906
1683135164825855000,8.61785498046875,-0.09102916717529297,0.02270561456680298,0.15347236394882202
1683135164843696400,8.6356962890625,-0.0038938522338867188,0.0538446307182312,-0.10454079508781433
1683135164861535700,8.65353564453125,-0.14834117889404297,-0.23556452989578247,0.0874285101890564
1683135164879376100,8.671376220703126,-0.041106224060058594,0.329109787940979,-0.001326143741607666
1683135164897216000,8.689216064453126,0.014391899108886719,-0.22766071557998657,0.011962085962295532
1683135164915045000,8.707045166015625,-0.17981338500976562,-0.05793142318725586,-0.05143779516220093
1683135164932896800,8.724896728515626,-0.09205055236816406,0.11527520418167114,-0.001693427562713623
1683135164950737400,8.7427373046875,0.07208538055419922,-0.07372283935546875,0.009399831295013428
1683135164968564700,8.760564697265625,-0.19498062133789062,-0.04831498861312866,-0.009843051433563232
1683135164986417700,8.778417724609374,-0.05994224548339844,0.2792360186576843,0.013199567794799805
1683135165004258300,8.79625830078125,0.031095504760742188,-0.3151700496673584,-0.033136069774627686
1683135165022095400,8.814095458984376,-0.1960611343383789,0.2408771514892578,0.1094500720500946
1683135165039938300,8.831938232421875,-0.07116985321044922,0.12857335805892944,-0.10246261954307556
1683135165057778400,8.8497783203125,0.05698394775390625,-0.2972906827926636,0.11713558435440063
1683135165075616300,8.8676162109375,-0.2063455581665039,0.39899104833602905,-0.058186739683151245
1683135165093453800,8.885453857421876,0.11635398864746094,-0.04318642616271973,0.13179215788841248
1683135165111295200,8.903295166015624,-0.12854766845703125,-0.27661383152008057,-0.15259844064712524
1683135165129142500,8.921142578125,-0.0777292251586914,0.2216535210609436,0.20348384976387024
1683135165146979800,8.938979736328125,0.021909713745117188,-0.08710771799087524,-0.15754342079162598
1683135165164819000,8.95681884765625,-0.1319742202758789,-0.2873545289039612,0.14875724911689758
1683135165182662000,8.974661865234374,-0.1509847640991211,0.45041555166244507,-0.14516156911849976
1683135165200499700,8.992499755859376,0.1328592300415039,-0.34883254766464233,0.21265825629234314
1683135165218338300,9.01033837890625,-0.26033973693847656,0.135958731174469,-0.1951884925365448
1683135165236180700,9.0281806640625,-0.0022125244140625,0.17883038520812988,0.20499572157859802
1683135165254016800,9.046016845703125,0.06335926055908203,-0.18324881792068481,-0.18483206629753113
1683135165271861000,9.063861083984374,-0.1522655487060547,0.022006571292877197,0.18755388259887695
1683135165289703000,9.081702880859375,-0.08215713500976562,0.07459414005279541,-0.14265844225883484
1683135165307541000,9.099541015625,0.015073776245117188,-0.15453851222991943,0.12083131074905396
1683135165325370000,9.1173701171875,-0.08577251434326172,0.14144563674926758,-0.12854298949241638
1683135165343215600,9.135215576171875,-0.22255897521972656,-0.21394503116607666,0.14058101177215576
1683135165361059800,9.153059814453124,0.06945419311523438,0.40228208899497986,-0.16699111461639404
1683135165378902500,9.170902587890625,-0.05523681640625,-0.29709523916244507,0.15382716059684753
1683135165396741000,9.1887412109375,-0.2369546890258789,0.2788010239601135,-0.07218006253242493
1683135165414577700,9.20657763671875,-0.027273178100585938,0.021587073802947998,0.07794588804244995
1683135165432421600,9.224421630859375,0.03658485412597656,-0.0389559268951416,-0.06269201636314392
1683135165450257400,9.24225732421875,-0.19405555725097656,0.18863266706466675,0.11243227124214172
1683135165468102100,9.26010205078125,0.007151603698730469,0.06433874368667603,-0.07312941551208496
1683135165485940700,9.277940673828125,-0.04318523406982422,-0.3720555901527405,0.041602760553359985
1683135165503785500,9.295785400390624,-0.10595130920410156,0.4891825318336487,0.02876579761505127
1683135165521623300,9.313623291015626,0.0278778076171875,-0.31119072437286377,-0.006236165761947632
1683135165539463000,9.331462890625,-0.11530685424804688,-0.08608096837997437,-0.020542889833450317
1683135165557304300,9.34930419921875,-0.11671066284179688,0.23889923095703125,-0.02860039472579956
1683135165575142400,9.367142333984376,0.1050863265991211,-0.14844995737075806,0.04471033811569214
1683135165592992000,9.384991943359376,-0.20440101623535156,0.15195602178573608,-0.024073690176010132
1683135165610825700,9.40282568359375,-0.050487518310546875,0.14583390951156616,0.10205626487731934
1683135165628663600,9.42066357421875,-0.05400562286376953,-0.3605508804321289,-0.1167866587638855
1683135165646504400,9.43850439453125,-0.06244468688964844,0.2901858687400818,0.151680588722229
1683135165664333800,9.456333740234374,-0.068572998046875,-0.09281313419342041,-0.15366750955581665
1683135165682184400,9.474184326171875,-0.10686969757080078,-0.329831063747406,0.14798277616500854
1683135165700023800,9.49202392578125,-0.15323448181152344,0.4362422227859497,-0.15300419926643372
1683135165717867300,9.5098671875,0.1670999526977539,-0.22594177722930908,0.19802382588386536
1683135165735701500,9.527701416015624,-0.2623863220214844,0.06699687242507935,-0.16345152258872986
1683135165753544400,9.54554443359375,-0.029470443725585938,0.1610909104347229,0.2062804400920868
1683135165771388700,9.563388671875,0.031208038330078125,-0.19803780317306519,-0.1809389889240265
1683135165789225000,9.581224853515625,-0.06744670867919922,0.07910102605819702,0.22184744477272034
1683135165807068400,9.599068359375,-0.11484813690185547,0.07803308963775635,-0.18886631727218628
1683135165824906500,9.616906494140625,-0.05401325225830078,-0.31425994634628296,0.14944615960121155
1683135165842744300,9.634744384765625,-0.020313262939453125,0.44044914841651917,-0.16873964667320251
1683135165860573200,9.6525732421875,0.004860877990722656,-0.27881187200546265,0.21056094765663147
1683135165878431000,9.670430908203125,-0.18306255340576172,0.1781267523765564,-0.144366055727005
1683135165896267800,9.688267822265624,-0.08721256256103516,0.09138482809066772,0.16643166542053223
1683135165914108700,9.706108642578124,0.08286285400390625,-0.0892522931098938,-0.1201387345790863
1683135165931948300,9.7239482421875,-0.16942691802978516,0.0037419795989990234,0.13414379954338074
1683135165949789200,9.7417890625,-0.03332328796386719,0.08603978157043457,-0.0985175371170044
1683135165967628800,9.75962890625,-0.1045522689819336,-0.003407120704650879,0.1322612464427948
1683135165985465300,9.77746533203125,-0.053012847900390625,0.28507888317108154,-0.08755311369895935
1683135166003309600,9.7953095703125,-0.08143997192382812,-0.4509190320968628,0.10030895471572876
1683135166021150200,9.813150146484375,-0.05872821807861328,0.38030534982681274,-0.05198708176612854
1683135166038989300,9.8309892578125,-0.029150009155273438,-0.16476082801818848,0.045073509216308594
1683135166056830500,9.84883056640625,-0.13066577911376953,0.07501888275146484,-0.04781770706176758
1683135166074670800,9.8666708984375,-0.14009380340576172,0.06782138347625732,0.036864131689071655
1683135166092511000,9.884510986328126,0.020952224731445312,-0.07274371385574341,-0.014563798904418945
1683135166110338300,9.90233837890625,-0.03318023681640625,0.07917946577072144,0.01813623309135437
1683135166128193300,9.920193359375,-0.10826969146728516,0.008088111877441406,-0.007412254810333252
1683135166146031000,9.938031005859376,-0.11909675598144531,-0.07250303030014038,-0.018734008073806763
1683135166163869400,9.955869384765625,-0.025081634521484375,0.2650274634361267,0.034186601638793945
1683135166181714400,9.97371435546875,-0.06062793731689453,-0.20333224534988403,-0.0655713677406311
1683135166199553300,9.99155322265625,-0.12866497039794922,0.20595288276672363,0.14167094230651855
1683135166217392600,10.009392578125,-0.08023262023925781,0.11820811033248901,-0.0784643292427063
1683135166235233000,10.02723291015625,0.09528732299804688,-0.241723895072937,0.0887971818447113
1683135166253075000,10.045074951171875,-0.13340377807617188,0.2979586720466614,-0.047781020402908325
1683135166270910000,10.062909912109374,0.05780601501464844,-0.19867229461669922,0.15430164337158203
1683135166288758300,10.08075830078125,-0.117401123046875,-0.20296311378479004,-0.16912922263145447
1683135166306589700,10.098589599609374,-0.058075904846191406,0.1973533034324646,0.1991751492023468
1683135166324434000,10.116433837890625,-0.04339027404785156,-0.07293468713760376,-0.19298061728477478
1683135166342280400,10.134280517578125,-0.060428619384765625,-0.19265252351760864,0.18305093050003052
1683135166360111900,10.15211181640625,-0.1296529769897461,0.40174585580825806,-0.16158649325370789
1683135166377958700,10.169958740234375,0.12018966674804688,-0.3181772232055664,0.20764490962028503
1683135166395792100,10.187792236328125,-0.22105693817138672,0.227272629737854,-0.17950904369354248
1683135166413639400,10.205639404296875,-0.050253868103027344,0.026905357837677002,0.16612118482589722
1683135166431474700,10.223474609375,0.0173187255859375,-0.1230652928352356,-0.16193777322769165
1683135166449318100,10.241318115234375,-0.1679239273071289,0.0697789192199707,0.19957232475280762
1683135166467144700,10.259144775390626,-0.020369529724121094,0.1885840892791748,-0.15135806798934937
1683135166484997600,10.27699755859375,-0.06612968444824219,-0.2397788166999817,0.18323096632957458
1683135166502833000,10.2948330078125,-0.057990074157714844,0.3435060977935791,-0.15077665448188782
1683135166520677400,10.312677490234375,-0.027746200561523438,-0.288581907749176,0.16832566261291504
1683135166538517500,10.330517578125,-0.016027450561523438,0.18667542934417725,-0.10616493225097656
1683135166556358700,10.348358642578125,-0.1378040313720703,0.0052953362464904785,0.09453156590461731
1683135166574198300,10.3661982421875,-0.0034770965576171875,0.04953247308731079,-0.08450314402580261
1683135166592039000,10.384038818359375,-0.14541912078857422,-0.10211628675460815,0.04595634341239929
1683135166609879000,10.401879150390625,-0.011961936950683594,0.31317365169525146,-0.013396799564361572
1683135166627704000,10.4197041015625,0.008731842041015625,-0.1466091275215149,0.08272778987884521
1683135166645559800,10.437559814453126,-0.11947917938232422,-0.051138103008270264,-0.07025408744812012
1683135166663397600,10.455397705078125,-0.06159210205078125,0.07128560543060303,0.08031073212623596
1683135166681242400,10.473242431640625,0.046265602111816406,-0.033412277698516846,-0.021645277738571167
1683135166699069200,10.491069091796875,-0.22229671478271484,-0.2459489107131958,-0.06448894739151001
1683135166716920600,10.508920654296874,-0.017574310302734375,0.26717060804367065,0.03954535722732544
1683135166734761700,10.52676171875,-0.027077674865722656,-0.21110230684280396,-0.04612317681312561
1683135166752600800,10.544600830078124,-0.16893482208251953,0.1580539345741272,0.02639731764793396
1683135166770430500,10.562430419921874,-0.047593116760253906,0.161526620388031,-0.04799288511276245
1683135166788280800,10.58028076171875,0.047011375427246094,-0.2499338984489441,0.10265061259269714
1683135166806123500,10.59812353515625,-0.21833515167236328,0.2211032509803772,-0.0772944986820221
1683135166823968000,10.615968017578124,0.02752685546875,0.03838765621185303,0.14219561219215393
1683135166841803500,10.633803466796875,-0.13773345947265625,-0.21318590641021729,-0.17175772786140442
1683135166859643400,10.651643310546875,0.0031948089599609375,0.21034777164459229,0.16652333736419678
1683135166877481200,10.669481201171875,-0.06761646270751953,-0.08269411325454712,-0.1473904550075531
1683135166895326500,10.687326416015624,0.013136863708496094,-0.04705458879470825,0.16431313753128052
1683135166913164500,10.70516455078125,-0.16820240020751953,0.1790667176246643,-0.1486826241016388
1683135166931004200,10.723004150390626,0.023838043212890625,-0.17605984210968018,0.17059984803199768
1683135166948835600,10.740835693359376,-0.1051492691040039,0.082569420337677,-0.1590576171875
1683135166966684700,10.7586845703125,-0.02791595458984375,0.10620760917663574,0.22556650638580322
1683135166984525800,10.77652587890625,0.005265235900878906,0.1586310863494873,-0.172838032245636
1683135167002365700,10.79436572265625,-0.06907463073730469,-0.23090559244155884,0.20141121745109558
1683135167020206300,10.812206298828125,-0.05500507354736328,0.38769716024398804,-0.10036662220954895
1683135167038045700,10.830045654296875,0.035887718200683594,-0.2280312180519104,0.1921897828578949
1683135167055887400,10.847887451171875,-0.06546211242675781,-0.08774042129516602,-0.1560353934764862
1683135167073717500,10.865717529296875,-0.1288156509399414,0.07900530099868774,0.14168381690979004
1683135167091567900,10.88356787109375,0.03965473175048828,-0.03477656841278076,-0.13130924105644226
1683135167109407500,10.901407470703125,-0.21079063415527344,-0.1489042043685913,0.095328688621521
1683135167127248600,10.91924853515625,-0.029560089111328125,0.40106290578842163,-0.11356061697006226
1683135167145088000,10.937087890625,0.017625808715820312,-0.3746986985206604,0.13919079303741455
1683135167162926800,10.9549267578125,-0.1912832260131836,0.3203781247138977,-0.09039467573165894
1683135167180770800,10.972770751953124,-0.04119396209716797,0.011045277118682861,0.06972858309745789
1683135167198608600,10.990608642578126,0.02949237823486328,-0.08500635623931885,-0.07480993866920471
1683135167216450600,11.008450439453124,-0.17747974395751953,0.16051453351974487,0.07393258810043335
1683135167234290400,11.02629052734375,0.04285240173339844,0.12240570783615112,-0.031698256731033325
1683135167252129800,11.0441298828125,-0.047763824462890625,-0.3334782123565674,0.020830214023590088
1683135167269971500,11.061971435546875,-0.1043701171875,0.4671340882778168,0.03744611144065857
1683135167287810600,11.079810546875,0.08686256408691406,-0.2142903208732605,0.013691127300262451
1683135167305651700,11.097651611328125,-0.09223651885986328,-0.17595255374908447,-0.01153552532196045
1683135167323491000,11.115490966796875,-0.12693405151367188,0.2573237419128418,-0.03556859493255615
1683135167341332700,11.133332763671875,0.08417987823486328,-0.20188409090042114,0.06306752562522888
1683135167359171800,11.151171875,-0.22823810577392578,-0.05619436502456665,-0.11234846711158752
1683135167377013200,11.16901318359375,0.018808364868164062,0.28313499689102173,0.11152076721191406
1683135167394847700,11.18684765625,0.016393661499023438,-0.2273634672164917,-0.09684798121452332
1683135167412690400,11.2046904296875,-0.12806129455566406,0.09520667791366577,0.13664329051971436
1683135167430533400,11.222533447265626,-0.07884597778320312,0.16887259483337402,-0.13034042716026306
1683135167448366000,11.240365966796874,0.048996925354003906,-0.33533763885498047,0.15078666806221008
1683135167466215000,11.25821484375,-0.20927715301513672,0.3605915904045105,-0.12461516261100769
1683135167484048600,11.276048583984375,0.10835075378417969,-0.07912921905517578,0.1939154863357544
1683135167501896000,11.29389599609375,-0.10880374908447266,-0.1180269718170166,-0.19878119230270386
1683135167519732500,11.311732421875,-0.036696434020996094,0.2724841833114624,0.255088746547699
1683135167537578000,11.329577880859375,0.04326915740966797,-0.009572744369506836,-0.18230941891670227
1683135167555416300,11.347416259765625,-0.034325599670410156,-0.41633355617523193,0.14707103371620178
1683135167573256000,11.365255859375,-0.08467864990234375,0.4429011940956116,-0.12156006693840027
1683135167591096800,11.383096923828125,0.03954601287841797,-0.3534198999404907,0.1703214943408966
1683135167608936400,11.4009365234375,-0.12444782257080078,0.13615643978118896,-0.16299661993980408
1683135167626777900,11.41877783203125,-0.14122772216796875,0.02671259641647339,0.19442710280418396
1683135167644617500,11.436617431640625,0.12110137939453125,0.15057915449142456,-0.18217733502388
1683135167662453800,11.454453857421875,-0.07568359375,-0.20426106452941895,0.19456925988197327
1683135167680302300,11.47230224609375,-0.181793212890625,0.20729798078536987,-0.1387365758419037
1683135167698139000,11.490138916015624,-0.0028886795043945312,-0.08042174577713013,0.09981504082679749
1683135167715967000,11.507967041015625,0.04839134216308594,0.09785091876983643,-0.07259488105773926
1683135167733819600,11.525819580078124,-0.19643688201904297,0.09852766990661621,0.11021202802658081
1683135167751659300,11.5436591796875,0.05117034912109375,0.09483355283737183,-0.08068674802780151
1683135167769497600,11.56149755859375,-0.034523963928222656,-0.28230756521224976,0.08962032198905945
1683135167787342800,11.5793427734375,-0.02872467041015625,0.4745451509952545,-0.01445150375366211
1683135167805181000,11.597180908203125,0.013264656066894531,-0.33734130859375,0.053513139486312866
1683135167823020300,11.615020263671875,-0.10791301727294922,-0.0997052788734436,-0.07676276564598083
1683135167840854500,11.6328544921875,-0.07349014282226562,0.18939721584320068,0.009339064359664917
1683135167858698500,11.650698486328125,0.08476066589355469,-0.14508527517318726,0.014638423919677734
1683135167876546000,11.668546142578125,-0.24052715301513672,-0.10492557287216187,-0.057473957538604736
1683135167894383000,11.686383056640626,-0.016839981079101562,0.2848703861236572,0.041245490312576294
1683135167912222000,11.704221923828126,0.06849956512451172,-0.2736271619796753,-0.06109350919723511
1683135167930062600,11.7220625,-0.16437053680419922,0.20778167247772217,0.0697680115699768
1683135167947903700,11.73990380859375,-0.0239410400390625,0.08875089883804321,-0.09094259142875671
1683135167965734400,11.757734375,0.05062103271484375,-0.29237401485443115,0.10677894949913025
1683135167983584500,11.77558447265625,-0.22388458251953125,0.3718198537826538,-0.08942219614982605
1683135168001424400,11.79342431640625,0.16066551208496094,-0.01662743091583252,0.14594218134880066
1683135168019265000,11.81126513671875,-0.10932350158691406,-0.248757004737854,-0.17253082990646362
1683135168037104400,11.8291044921875,-0.03192615509033203,0.3200552463531494,0.21175432205200195
1683135168054945800,11.84694580078125,0.04242706298828125,-0.0658300518989563,-0.1487094759941101
1683135168072777200,11.864777099609375,-0.009321212768554688,-0.3637552261352539,0.13775816559791565
1683135168090624500,11.88262451171875,-0.10072898864746094,0.4419151246547699,-0.13043782114982605
1683135168108467200,11.90046728515625,0.0976247787475586,-0.3667569160461426,0.17647835612297058
1683135168126307300,11.918307373046876,-0.17766380310058594,0.018624484539031982,-0.19704949855804443
1683135168144144100,11.93614404296875,-0.007006645202636719,0.21914899349212646,0.2338256537914276
1683135168161989600,11.95398974609375,0.07841205596923828,-0.10153424739837646,-0.19449341297149658
1683135168179828500,11.971828369140624,-0.20379638671875,0.005216240882873535,0.18849784135818481
1683135168197668600,11.989668701171874,-0.011928558349609375,0.35468071699142456,-0.12198829650878906
1683135168215502300,12.00750244140625,0.0283050537109375,-0.44857853651046753,0.1382523477077484
1683135168233348000,12.02534814453125,-0.14075279235839844,0.4157918691635132,-0.057793647050857544
1683135168251188500,12.0431884765625,-0.004178047180175781,-0.06321877241134644,0.12765491008758545
1683135168269030700,12.06103076171875,0.02096080780029297,-0.08284163475036621,-0.15124857425689697
1683135168286869800,12.078869873046875,-0.15041732788085938,0.05312931537628174,0.1610867977142334
1683135168304709400,12.09670947265625,0.06859588623046875,0.2123323678970337,-0.09897032380104065
1683135168322551300,12.11455126953125,-0.053015708923339844,-0.2648547291755676,0.06197977066040039
1683135168340391400,12.132391357421875,-0.11301422119140625,0.08756202459335327,-0.08093047142028809
1683135168358230300,12.150230224609375,0.012063980102539062,-0.03345900774002075,0.035155683755874634
1683135168376073200,12.1680732421875,0.03723621368408203,0.01992577314376831,-0.02878671884536743
1683135168393911600,12.18591162109375,-0.19185638427734375,-0.16738498210906982,0.03288790583610535
1683135168411748900,12.203748779296875,-0.02165508270263672,0.2483276128768921,-0.03016573190689087
1683135168429590800,12.2215908203125,0.0905609130859375,-0.24945634603500366,0.045241862535476685
1683135168447436000,12.23943603515625,-0.21402740478515625,0.26328539848327637,0.02912124991416931
1683135168465272800,12.25727294921875,-0.013118743896484375,0.025140881538391113,-0.05061405897140503
1683135168483109600,12.275109619140625,0.05987548828125,-0.16926389932632446,0.07291215658187866
1683135168500945400,12.2929453125,-0.19780349731445312,0.32375651597976685,-0.018573284149169922
1683135168518794800,12.310794677734375,0.13562774658203125,0.024028539657592773,0.07614600658416748
1683135168536634000,12.328634033203125,-0.09136295318603516,-0.2963712215423584,-0.11098340153694153
1683135168554475500,12.3464755859375,-0.05531024932861328,0.3271089792251587,0.1788899302482605
1683135168572315100,12.364315185546875,0.04279518127441406,-0.09929996728897095,-0.13127946853637695
1683135168590156000,12.382156005859375,-0.031395912170410156,-0.2968955636024475,0.13576483726501465
1683135168607995600,12.39999560546875,-0.14067840576171875,0.38769078254699707,-0.12013405561447144
1683135168625837000,12.417837158203126,0.1537771224975586,-0.353992223739624,0.18836677074432373
1683135168643677000,12.435677001953126,-0.25652313232421875,0.08669084310531616,-0.20498883724212646
1683135168661515000,12.453514892578125,0.023001670837402344,0.21541529893875122,0.21709921956062317
1683135168679359500,12.471359375,0.05748176574707031,-0.21373438835144043,-0.19905778765678406
1683135168697198300,12.4891982421875,-0.09248828887939453,0.08965539932250977,0.2317703664302826
1683135168715037700,12.50703759765625,-0.057923316955566406,0.17120474576950073,-0.16216379404067993
1683135168732874000,12.5248740234375,-0.07347488403320312,-0.2019147276878357,0.166986346244812
1683135168750700000,12.542699951171874,-0.06997299194335938,0.32606667280197144,-0.12937915325164795
1683135168768548600,12.560548583984374,0.00522613525390625,-0.3370717167854309,0.16963672637939453
1683135168786399200,12.578399169921875,0.0023889541625976562,0.35638427734375,-0.10287952423095703
1683135168804235500,12.596235595703124,0.005473136901855469,-0.07291632890701294,0.18790900707244873
1683135168822079700,12.614079833984375,-0.0764017105102539,0.004463016986846924,-0.17825943231582642
1683135168839921200,12.631921142578125,-0.14866256713867188,-0.016424119472503662,0.1280708611011505
1683135168857760500,12.649760498046875,0.08448410034179688,0.012927889823913574,-0.07911977171897888
1683135168875589600,12.667589599609375,-0.08970832824707031,-0.013701438903808594,0.04987320303916931
1683135168893441300,12.685441162109376,-0.026933670043945312,0.08709657192230225,-0.05582967400550842
1683135168911278800,12.70327880859375,-0.05291557312011719,0.021418213844299316,0.10910707712173462
1683135168929124600,12.72112451171875,0.005431175231933594,0.1936267614364624,-0.0798138678073883
1683135168946964000,12.7389638671875,-0.06856536865234375,-0.4470064043998718,0.058843791484832764
1683135168964802300,12.75680224609375,-0.03444671630859375,0.36837244033813477,-0.010263144969940186
1683135168982643700,12.774643798828125,0.047446250915527344,-0.21399599313735962,0.015150874853134155
1683135169000472000,12.79247216796875,-0.13385486602783203,-0.11165231466293335,-0.025867998600006104
1683135169018323700,12.81032373046875,-0.09235763549804688,0.1937369704246521,-0.02361917495727539
1683135169036150300,12.828150390625,0.11715221405029297,-0.08884251117706299,0.03355023264884949
1683135169054003700,12.846003662109375,-0.1709909439086914,0.012034952640533447,-0.025252610445022583
1683135169071844900,12.863844970703125,-0.0347900390625,0.21943902969360352,0.053893834352493286
1683135169089677800,12.881677734375,0.034149169921875,-0.3049706220626831,-0.09720847010612488
1683135169107525600,12.899525634765626,-0.14247703552246094,0.19606178998947144,0.13636502623558044
1683135169125361400,12.917361328125,-0.07836723327636719,0.13198858499526978,-0.1425550878047943
1683135169143206100,12.9352060546875,0.08271503448486328,-0.27364373207092285,0.1286107301712036
1683135169161046800,12.953046875,-0.17390727996826172,0.3818531632423401,-0.06760644912719727
1683135169178885400,12.970885498046876,0.1564035415649414,-0.0743560791015625,0.1496908962726593
1683135169196726300,12.988726318359374,-0.106201171875,-0.2415826916694641,-0.1809932291507721
1683135169214570000,13.006570068359375,-0.041759490966796875,0.19495028257369995,0.2218146026134491
1683135169232398000,13.024398193359374,0.05810260772705078,-0.05950355529785156,-0.18558424711227417
1683135169250247000,13.042246826171874,-0.10291671752929688,-0.28839242458343506,0.14841675758361816
1683135169268090600,13.060090576171875,-0.11385536193847656,0.4414830803871155,-0.15021735429763794
1683135169285928700,13.0779287109375,0.12214279174804688,-0.33031201362609863,0.1947082281112671
1683135169303769900,13.095769775390625,-0.21537494659423828,0.16598689556121826,-0.1758129596710205
1683135169321605400,13.11360546875,0.006554603576660156,0.1635875701904297,0.1929636299610138
1683135169339454500,13.131454345703125,0.10748767852783203,-0.12444370985031128,-0.16633260250091553
1683135169357290200,13.149290283203126,-0.204498291015625,0.026897192001342773,0.16323894262313843
1683135169375120100,13.1671201171875,0.012874603271484375,0.2712724804878235,-0.104529470205307
1683135169392970800,13.184970703125,-0.0006122589111328125,-0.34399187564849854,0.1006125807762146
1683135169410812200,13.202812255859374,-0.06526565551757812,0.4508664309978485,-0.05348551273345947
1683135169428651300,13.2206513671875,-0.04508686065673828,-0.14222568273544312,0.14090698957443237
1683135169446487600,13.238487548828125,-0.013936996459960938,-0.003093898296356201,-0.18025004863739014
1683135169464332500,13.25633251953125,-0.13291168212890625,0.03500717878341675,0.11914461851119995
1683135169482173000,13.2741728515625,0.05911731719970703,0.0546342134475708,-0.0865744948387146
1683135169500011800,13.29201171875,-0.09752845764160156,-0.13514208793640137,0.04595136642456055
1683135169517854700,13.309854736328125,-0.08307933807373047,0.2316136360168457,-0.017181307077407837
1683135169535693300,13.327693359375,-0.04209327697753906,-0.27679163217544556,0.011061787605285645
1683135169553534500,13.345534423828125,0.0070896148681640625,0.3185698986053467,-0.03718221187591553
1683135169571371800,13.363371826171875,-0.004809379577636719,-0.2348758578300476,0.049620985984802246
1683135169589217500,13.381217529296874,-0.18634414672851562,0.15723192691802979,0.011276841163635254
1683135169607054600,13.3990546875,0.041378021240234375,0.12201356887817383,-0.018839269876480103
1683135169624895700,13.416895751953126,0.04713916778564453,-0.13999617099761963,0.039727360010147095
1683135169642725600,13.4347255859375,-0.2018871307373047,0.1784372329711914,-0.021588027477264404
1683135169660576300,13.452576171875,0.09539127349853516,0.06570982933044434,0.07163187861442566
1683135169678415600,13.47041552734375,-0.08513736724853516,-0.22288358211517334,-0.11381420493125916
1683135169696249900,13.488249755859375,-0.062193870544433594,0.20059287548065186,0.09916555881500244
1683135169714095600,13.506095703125,-0.022149085998535156,-0.2861955165863037,-0.11334064602851868
1683135169731941600,13.523941650390626,0.04538249969482422,0.07593280076980591,0.15825486183166504
1683135169749777700,13.541777587890625,-0.11516857147216797,0.07927358150482178,-0.16260823607444763
1683135169767618600,13.55961865234375,-0.0070247650146484375,-0.3949798345565796,0.16681942343711853
1683135169785453800,13.577453857421874,-0.0862417221069336,0.40981119871139526,-0.1740671992301941
1683135169803303200,13.59530322265625,0.14233970642089844,-0.18526923656463623,0.2174864411354065
1683135169821137400,13.613137451171875,-0.2192850112915039,0.05400031805038452,-0.1899290680885315
1683135169838980900,13.63098095703125,0.005573272705078125,0.11394709348678589,0.20208579301834106
1683135169856821000,13.648821044921876,0.0630960464477539,-0.13200688362121582,-0.18797263503074646
1683135169874658600,13.666658447265625,-0.05965995788574219,0.04500079154968262,0.22204720973968506
1683135169892499700,13.684499755859376,-0.0684804916381836,0.0544317364692688,-0.1798858940601349
1683135169910341400,13.70234130859375,-0.059566497802734375,-0.3232418894767761,0.13521108031272888
1683135169928165000,13.7201650390625,0.027355194091796875,0.4709191918373108,-0.1685326099395752
1683135169946021400,13.738021484375,0.034615516662597656,-0.32013630867004395,0.19002917408943176
1683135169963856600,13.755856689453125,-0.1668691635131836,0.1986711025238037,-0.14644867181777954
1683135169981706500,13.77370654296875,-0.03200054168701172,0.0708966851234436,0.16237950325012207
1683135169999530200,13.7915302734375,0.14247608184814453,-0.12768948078155518,-0.12323826551437378
1683135170017367300,13.8093671875,-0.17187023162841797,0.044571518898010254,0.09561803936958313
1683135170035222300,13.82722216796875,0.03350353240966797,0.02127695083618164,-0.08199593424797058
1683135170053047800,13.8450478515625,-0.11418819427490234,-0.14792805910110474,0.07412752509117126
1683135170070903000,13.862903076171875,-0.021576881408691406,0.42475074529647827,-0.08512008190155029
1683135170088744400,13.880744384765626,0.02655792236328125,-0.41987234354019165,0.08926120400428772
1683135170106583600,13.89858349609375,-0.08919715881347656,0.2794386148452759,-0.028904885053634644
1683135170124426200,13.91642626953125,-0.012411117553710938,-0.05670058727264404,0.02455475926399231
1683135170142251300,13.934251220703125,0.014619827270507812,0.09509897232055664,-0.008734405040740967
1683135170160107000,13.95210693359375,-0.13708209991455078,0.03983414173126221,-0.013848334550857544
1683135170177944800,13.96994482421875,-0.0352783203125,-0.15013712644577026,0.013632804155349731
1683135170195775000,13.98777490234375,0.015946388244628906,0.2199217677116394,0.03603646159172058
1683135170213621000,14.00562109375,0.024526596069335938,0.09284520149230957,0.02311345934867859
1683135170231466800,14.023466796875,-0.10328388214111328,-0.4378948211669922,-0.09044867753982544
1683135170249311500,14.0413115234375,-0.050487518310546875,0.251254677772522,0.10466837882995605
1683135170267136000,14.059135986328124,0.04661273956298828,-0.06336051225662231,-0.11756247282028198
1683135170284987400,14.0769873046875,0.001171112060546875,0.0604439377784729,0.13032221794128418
1683135170302824200,14.09482421875,-0.18698787689208984,0.1758529543876648,-0.10566785931587219
1683135170320667400,14.11266748046875,0.1399822235107422,-0.3107033967971802,0.13839805126190186
1683135170338497000,14.1304970703125,-0.042205810546875,0.36070138216018677,-0.10317251086235046
1683135170356348200,14.14834814453125,0.03604888916015625,-0.17180484533309937,0.17994803190231323
1683135170374189000,14.16618896484375,-0.1497030258178711,-0.07798558473587036,-0.18963608145713806
1683135170392028700,14.184028564453126,-0.0484771728515625,0.084095299243927,0.18485242128372192
1683135170409869800,14.201869873046874,-0.0018129348754882812,0.14487767219543457,-0.15130725502967834
1683135170427709400,14.21970947265625,0.006855010986328125,-0.034931063652038574,0.19646158814430237
1683135170445550300,14.23755029296875,-0.1405010223388672,0.05692833662033081,-0.18403270840644836
1683135170463382300,14.25538232421875,0.08379936218261719,-0.007055759429931641,0.19048309326171875
1683135170481234200,14.273234130859375,0.029547691345214844,0.06609988212585449,-0.17083775997161865
1683135170499071000,14.291071044921875,-0.16419029235839844,-0.06337356567382812,0.15539053082466125
1683135170516912000,14.308912109375,0.005489349365234375,0.2188495397567749,-0.1254425346851349
1683135170534746600,14.32674658203125,-0.04394340515136719,-0.25595957040786743,0.1075335443019867
1683135170552592400,14.34459228515625,-0.023744583129882812,0.38448625802993774,-0.04741859436035156
1683135170570432300,14.362432373046875,-0.03122425079345703,-0.10915935039520264,0.1529051661491394
1683135170588272400,14.3802724609375,-0.0008869171142578125,-0.03170686960220337,-0.1737537682056427
1683135170606113300,14.39811328125,-0.0951528549194336,0.0779348611831665,0.16334497928619385
1683135170623954000,14.415953857421876,0.09716987609863281,0.035325825214385986,-0.1144174337387085
1683135170641785600,14.43378564453125,-0.14260196685791016,-0.33385169506073,0.03827652335166931
1683135170659634700,14.451634765625,-0.0337982177734375,0.38413965702056885,-0.03348913788795471
1683135170677473800,14.469473876953124,0.04078388214111328,-0.2706618309020996,0.030167073011398315
1683135170695315200,14.487315185546874,-0.13549041748046875,0.1289854645729065,-0.07105016708374023
1683135170713138700,14.505138671875,-0.013872146606445312,0.12894612550735474,0.07074153423309326
1683135170730999300,14.522999267578125,0.006667137145996094,-0.08026319742202759,-0.03994986414909363
1683135170748834800,14.540834716796875,-0.15344905853271484,0.077842116355896,0.023251354694366455
1683135170766676200,14.55867626953125,0.010306358337402344,0.16751718521118164,0.016895174980163574
1683135170784509400,14.576509521484375,-0.02610492706298828,-0.2864975333213806,-0.0772564709186554
1683135170802356700,14.594356689453125,-0.03220844268798828,0.2441800832748413,0.06573528051376343
1683135170820193300,14.612193359375,-0.09081649780273438,-0.15063941478729248,-0.08221998810768127
1683135170838040300,14.630040283203124,0.07863330841064453,0.10413753986358643,0.04175272583961487
1683135170855872300,14.647872314453124,-0.1161355972290039,-0.050485968589782715,-0.09347257018089294
1683135170873717800,14.6657177734375,-0.08223533630371094,0.010497868061065674,0.12015014886856079
1683135170891545300,14.68354541015625,0.015583038330078125,0.2094990611076355,-0.14965757727622986
1683135170909397200,14.701397216796876,0.04146575927734375,-0.21766924858093262,0.17310002446174622
1683135170927239400,14.719239501953124,-0.2546501159667969,0.30360913276672363,-0.11891061067581177
1683135170945078800,14.737078857421874,0.1662912368774414,-0.009495258331298828,0.17663484811782837
1683135170962918400,14.75491845703125,-0.07552146911621094,-0.18102562427520752,-0.1970796287059784
1683135170980759800,14.772759765625,-0.05885601043701172,0.20432722568511963,0.2287726104259491
1683135170998599700,14.790599609375,0.04130744934082031,-0.050781071186065674,-0.18424507975578308
1683135171016440300,14.8084404296875,-0.02613067626953125,-0.34586477279663086,0.1413307785987854
1683135171034279700,14.82627978515625,-0.08385944366455078,0.4555057883262634,-0.14732930064201355
1683135171052121300,14.844121337890625,0.10184001922607422,-0.3464905619621277,0.17010709643363953
1683135171069956900,14.861956787109374,-0.17155933380126953,0.06910806894302368,-0.19901412725448608
1683135171087805400,14.879805419921874,-0.010365486145019531,0.1863483190536499,0.22416675090789795
1683135171105636400,14.89763623046875,0.10426712036132812,-0.09214895963668823,-0.17282319068908691
1683135171123479800,14.915479736328125,-0.2484149932861328,0.014956355094909668,0.15641754865646362
1683135171141312500,14.9333125,0.03011322021484375,0.3007097840309143,-0.1208513081073761
1683135171159162600,14.95116259765625,0.00347137451171875,-0.3843027949333191,0.07852816581726074
1683135171177002500,14.96900244140625,-0.09999847412109375,0.4095141887664795,-0.03922426700592041
1683135171194841600,14.986841552734376,-0.04558753967285156,-0.07323956489562988,0.10357409715652466
1683135171212682000,15.004681884765626,-0.03496742248535156,-0.04149603843688965,-0.147223562002182
1683135171230523000,15.02252294921875,-0.09809112548828125,0.11177808046340942,0.11916318535804749
1683135171248359700,15.040359619140625,0.030071258544921875,-0.05426967144012451,-0.09152466058731079
1683135171266202000,15.0582021484375,-0.10562610626220703,-0.03279280662536621,0.046019017696380615
1683135171284041500,15.07604150390625,-0.02155017852783203,0.2559661865234375,-0.030906200408935547
1683135171301888000,15.093887939453126,-0.08566665649414062,-0.3731379508972168,-0.02973279356956482
1683135171319724800,15.111724853515625,-0.04452800750732422,0.27070319652557373,-0.01694747805595398
1683135171337566000,15.12956591796875,0.0066738128662109375,-0.1360689401626587,0.0133303701877594
1683135171355405300,15.1474052734375,-0.023805618286132812,0.07534199953079224,-0.025141268968582153
1683135171373246200,15.16524609375,-0.12291717529296875,-0.04189842939376831,-0.02405071258544922
1683135171391074000,15.183073974609375,-0.04870796203613281,0.060565948486328125,0.029994726181030273
1683135171408927200,15.20092724609375,-0.05987834930419922,-0.08070260286331177,-0.0821240246295929
1683135171426762000,15.218761962890625,-0.040869712829589844,0.25401467084884644,0.13000541925430298
1683135171444607500,15.236607421875,-0.04227161407470703,0.05177503824234009,-0.09559321403503418
1683135171462444800,15.25444482421875,0.05120086669921875,-0.22208952903747559,0.091986745595932
1683135171480290300,15.272290283203125,-0.08589458465576172,0.31639981269836426,-0.033143073320388794
1683135171498128000,15.2901279296875,0.12697219848632812,-0.17982500791549683,0.14423176646232605
1683135171515968500,15.307968505859375,-0.1361989974975586,-0.23048996925354004,-0.17553532123565674
1683135171533808400,15.325808349609375,-0.05941200256347656,0.13852638006210327,0.18808716535568237
1683135171551648800,15.343648681640625,0.0027332305908203125,-0.0656963586807251,-0.20399996638298035
1683135171569490400,15.361490478515625,-0.016762733459472656,-0.148517906665802,0.1545821726322174
1683135171587330000,15.379330078125,-0.13452816009521484,0.3669683337211609,-0.1681305468082428
1683135171605170200,15.397170166015625,0.13352012634277344,-0.3142169117927551,0.20381540060043335
1683135171623010000,15.415010009765625,-0.18477916717529297,0.26339685916900635,-0.1771332323551178
1683135171640851200,15.432851318359376,-0.019113540649414062,0.026803135871887207,0.1702318787574768
1683135171658690300,15.450690185546875,0.011208534240722656,-0.17073994874954224,-0.1800084114074707
1683135171676524800,15.46852490234375,-0.13036346435546875,0.061302781105041504,0.2031121850013733
1683135171694372400,15.486372314453124,-0.00394439697265625,0.09411603212356567,-0.18472367525100708
1683135171712209000,15.504208984375,-0.049500465393066406,-0.007930278778076172,0.2040647268295288
1683135171730055400,15.522055419921875,-0.04707145690917969,0.23321622610092163,-0.14592263102531433
1683135171747881200,15.539881103515626,-0.04910850524902344,-0.46033477783203125,0.13710501790046692
1683135171765733000,15.557733154296875,0.060059547424316406,0.4410414695739746,-0.09199926257133484
1683135171783572700,15.57557275390625,-0.04767036437988281,-0.22707372903823853,0.08156126737594604
1683135171801413600,15.59341357421875,-0.12069320678710938,-0.12592780590057373,-0.1425495445728302
1683135171819253000,15.6112529296875,-0.05734062194824219,0.1599988341331482,0.05736589431762695
1683135171837094400,15.629094482421875,0.1253833770751953,-0.023334920406341553,-0.0713975727558136
1683135171854930200,15.64693017578125,-0.19438457489013672,-0.047931969165802,0.0693572461605072
1683135171872775000,15.66477490234375,-0.037055015563964844,0.3514098525047302,-0.06741747260093689
1683135171890602500,15.6826025390625,0.04813385009765625,-0.45563262701034546,0.04418322443962097
1683135171908456000,15.7004560546875,-0.07736968994140625,0.3353932499885559,-0.0016627907752990723
1683135171926280000,15.718280029296874,-0.05474376678466797,-0.11215043067932129,-0.03153836727142334
1683135171944136000,15.736135986328126,-0.015566825866699219,0.0649595856666565,0.025524407625198364
1683135171961972500,15.753972412109375,-0.13697242736816406,0.13732671737670898,-0.02743026614189148
1683135171979817200,15.771817138671874,-0.0073909759521484375,-0.2093421220779419,0.011243730783462524
1683135171997656000,15.789656005859374,-0.0325469970703125,0.16617977619171143,-0.013319849967956543
1683135172015497500,15.80749755859375,-0.010110855102539062,0.0020292997360229492,0.06790292263031006
1683135172033336600,15.825336669921874,-0.13741779327392578,-0.30250394344329834,-0.12989592552185059
1683135172051166000,15.843166015625,-0.030193328857421875,0.18540000915527344,0.12897688150405884
1683135172069015000,15.86101513671875,-0.03306865692138672,-0.034881532192230225,-0.1355275809764862
1683135172086861300,15.878861328125,0.03953266143798828,0.07000046968460083,0.16400465369224548
1683135172104694800,15.89669482421875,-0.14726924896240234,0.1625010371208191,-0.11569875478744507
1683135172122542300,15.914542236328124,0.056468963623046875,-0.1951671838760376,0.14341259002685547
1683135172140379000,15.93237890625,-0.0769338607788086,0.22796744108200073,-0.15254300832748413
1683135172158219300,15.95021923828125,0.002613067626953125,-0.1509854793548584,0.16172316670417786
1683135172176060000,15.968059814453126,-0.10382270812988281,0.09859168529510498,-0.172183096408844
1683135172193896200,15.985896240234375,-0.028876304626464844,-0.1176941990852356,0.18342739343643188
1683135172211740200,16.003740234375,-0.052825927734375,0.3243769407272339,-0.12763822078704834
1683135172229566700,16.021566650390625,0.04498481750488281,-0.06294268369674683,0.21256893873214722
1683135172247423200,16.03942333984375,-0.08451080322265625,-0.09308576583862305,-0.192132830619812
1683135172265261800,16.05726171875,-0.038539886474609375,0.11187171936035156,0.23584628105163574
1683135172283089400,16.07508935546875,0.08500099182128906,0.05951589345932007,-0.14413419365882874
1683135172300942000,16.092942138671877,-0.17847156524658203,-0.4051332473754883,0.06584736704826355
1683135172318780700,16.11078076171875,-0.06518173217773438,0.3869062066078186,-0.10777375102043152
1683135172336612600,16.128612548828126,0.06449031829833984,-0.3033515214920044,0.1224987804889679
1683135172354462500,16.14646240234375,-0.15524578094482422,0.1760374903678894,-0.14243751764297485
1683135172372304000,16.164303955078125,-0.07228565216064453,0.08476752042770386,0.16018575429916382
1683135172390142700,16.182142822265625,0.05666160583496094,-0.05238908529281616,-0.13674452900886536
1683135172407972600,16.19997265625,-0.16857337951660156,0.0002180933952331543,0.10025474429130554
1683135172425823700,16.21782373046875,-0.012715339660644531,0.23322367668151855,-0.08560356497764587
1683135172443665400,16.23566552734375,-0.03116130828857422,-0.31578367948532104,0.023759275674819946
1683135172461503700,16.253503662109374,-0.08600425720214844,0.23905521631240845,-0.03849196434020996
1683135172479345400,16.271345458984374,-0.015503883361816406,-0.09262603521347046,0.034594714641571045
1683135172497185000,16.28918505859375,-0.00594329833984375,0.10500448942184448,-0.06416112184524536
1683135172515021300,16.307021240234373,-0.059726715087890625,-0.12839126586914062,0.04052582383155823
1683135172532870700,16.32487060546875,-0.14001178741455078,0.1512305736541748,0.0051163434982299805
1683135172550707000,16.34270703125,0.03500938415527344,0.043965816497802734,-0.032884299755096436
1683135172568533500,16.360533447265624,-0.04192924499511719,-0.06503540277481079,0.042087554931640625
1683135172586388500,16.378388427734375,-0.19324207305908203,0.20559358596801758,0.0023878812789916992
1683135172604226800,16.396226806640627,0.16498374938964844,0.07234346866607666,0.07516500353813171
1683135172622068200,16.414068115234375,-0.10530757904052734,-0.2811741232872009,-0.10312360525131226
1683135172639906600,16.431906494140627,-0.10142803192138672,0.27634668350219727,0.15307599306106567
1683135172657738000,16.449738037109373,0.03546333312988281,-0.1275373101234436,-0.13288798928260803
1683135172675588600,16.467588623046876,-0.034249305725097656,-0.19186639785766602,0.10888317227363586
1683135172693429500,16.485429443359376,-0.15914154052734375,0.33196377754211426,-0.1370798647403717
1683135172711261000,16.503260986328126,0.11437702178955078,-0.30875879526138306,0.1760750710964203
1683135172729110300,16.5211103515625,-0.2599449157714844,0.06486916542053223,-0.20806238055229187
1683135172746947300,16.538947265625,0.04157257080078125,0.20759963989257812,0.19390547275543213
1683135172764792600,16.55679248046875,0.018988609313964844,-0.19478178024291992,-0.19025811553001404
1683135172782635800,16.5746357421875,-0.086578369140625,-0.01828932762145996,0.22134146094322205
1683135172800471600,16.592471435546877,-0.045739173889160156,0.23821651935577393,-0.16696208715438843
1683135172818310000,16.610309814453124,-0.0032186508178710938,-0.37419557571411133,0.1571073830127716
1683135172836148500,16.6281484375,-0.08170700073242188,0.32657963037490845,-0.15912163257598877
1683135172853991700,16.64599169921875,-0.03102397918701172,-0.21060794591903687,0.18027228116989136
1683135172871832800,16.663832763671873,-0.10008716583251953,0.11499756574630737,-0.18513524532318115
1683135172889671000,16.6816708984375,0.008434295654296875,0.1575968861579895,0.1904202699661255
1683135172907514400,16.699514404296874,0.03180408477783203,-0.10448771715164185,-0.1527388095855713
1683135172925353000,16.71735302734375,-0.17301559448242188,-0.04313921928405762,0.13536423444747925
1683135172943191300,16.73519140625,0.022184371948242188,0.20901566743850708,-0.08789768815040588
1683135172961035300,16.75303515625,-0.06316947937011719,-0.051751673221588135,0.07753291726112366
1683135172978876000,16.7708759765625,-0.05286884307861328,0.22204679250717163,-0.05872678756713867
1683135172996714200,16.78871435546875,-0.08466434478759766,-0.3623296022415161,0.08880007266998291
1683135173014555000,16.806554931640626,0.026929855346679688,0.4275834858417511,-0.06056073307991028
1683135173032394500,16.82439453125,0.029125213623046875,-0.19410419464111328,0.0785541832447052
1683135173050236400,16.842236328125,-0.16521930694580078,-0.03477466106414795,-0.11282399296760559
1683135173068075800,16.86007568359375,-0.14159393310546875,0.052213430404663086,0.004068911075592041
1683135173085915000,16.877914794921875,0.10186481475830078,0.06493586301803589,0.00421750545501709
1683135173103753200,16.895753173828126,-0.1412029266357422,-0.1262381672859192,-0.03108978271484375
1683135173121598500,16.913598388671875,-0.07150077819824219,0.2302674651145935,-0.0034111738204956055
1683135173139438800,16.93143896484375,0.03696918487548828,-0.26061922311782837,-0.01660788059234619
1683135173157278000,16.94927783203125,-0.13016510009765625,0.23138922452926636,0.02203953266143799
1683135173175117600,16.96711767578125,-0.023362159729003906,0.08935815095901489,-0.0662401020526886
1683135173192962600,16.984962646484377,-0.013325691223144531,-0.2646212577819824,0.07354244589805603
1683135173210797600,17.002797607421876,-0.2297506332397461,0.3119952082633972,-0.059275150299072266
1683135173228640300,17.02064013671875,0.15742015838623047,0.04088699817657471,0.09540382027626038
1683135173246475500,17.0384755859375,-0.13764572143554688,-0.2015303373336792,-0.15214574337005615
1683135173264314600,17.056314697265623,-0.0668020248413086,0.17812615633010864,0.13495638966560364
1683135173282158300,17.074158447265624,-0.06149578094482422,-0.04724466800689697,-0.1523914337158203
1683135173300007700,17.092007568359374,0.07318973541259766,-0.027871012687683105,0.1448536217212677
1683135173317840000,17.10983984375,-0.15941810607910156,0.0602763295173645,-0.1498631238937378
1683135173335681800,17.127681884765625,-0.04213428497314453,-0.005413413047790527,0.22157022356987
1683135173353521000,17.14552099609375,-0.011274337768554688,0.29601842164993286,-0.18220219016075134
1683135173371347200,17.16334716796875,0.035994529724121094,-0.2850302457809448,0.19361326098442078
1683135173389204200,17.181204345703126,-0.13901901245117188,0.2887899875640869,-0.13490280508995056
1683135173407042600,17.19904248046875,0.06750297546386719,-0.16719019412994385,0.18416354060173035
1683135173424874200,17.216874267578124,-0.10499286651611328,0.05648446083068848,-0.20495396852493286
1683135173442719700,17.2347197265625,-0.14795780181884766,-0.12984037399291992,0.1504077911376953
1683135173460563000,17.25256298828125,0.059250831604003906,0.16492730379104614,-0.13041824102401733
1683135173478404600,17.270404541015626,-0.03847503662109375,-0.19204455614089966,0.13602927327156067
1683135173496244700,17.28824462890625,-0.20056438446044922,0.06532430648803711,-0.16591623425483704
1683135173514083300,17.306083251953126,0.0007762908935546875,0.026310980319976807,0.13082805275917053
1683135173531923000,17.3239228515625,0.06117725372314453,0.03964352607727051,-0.15835142135620117
1683135173549755100,17.341755126953124,-0.2574625015258789,-0.034875452518463135,0.12345007061958313
1683135173567596300,17.35959619140625,0.028267860412597656,0.304635226726532,-0.11850801110267639
1683135173585449000,17.377448974609376,-0.008874893188476562,-0.33182305097579956,0.060404032468795776
1683135173603281000,17.395281005859374,-0.14940452575683594,0.39645689725875854,0.0001329481601715088
1683135173621126700,17.413126708984375,-0.010024070739746094,-0.04086291790008545,0.045153021812438965
1683135173638966500,17.430966552734375,0.008680343627929688,-0.12030762434005737,-0.08968552947044373
1683135173656807200,17.44880712890625,-0.10038566589355469,0.19172757863998413,0.11626166105270386
1683135173674635000,17.466635009765625,-0.00052642822265625,-0.015458106994628906,-0.054473817348480225
1683135173692488200,17.48448828125,-0.10358715057373047,-0.3556588888168335,-0.04877486824989319
1683135173710328000,17.502328125,-0.06404399871826172,0.3409520983695984,0.035279691219329834
1683135173728164600,17.52016455078125,-0.005835533142089844,-0.21512752771377563,-0.06218954920768738
1683135173746008300,17.53800830078125,-0.06862735748291016,-0.029769837856292725,0.03021174669265747
1683135173763845400,17.555845458984376,-0.10512161254882812,0.2292104959487915,-0.05678427219390869
1683135173781693200,17.573693115234374,0.06604671478271484,-0.17488670349121094,0.06887882947921753
1683135173799518200,17.591518310546874,-0.21464157104492188,0.10714852809906006,-0.11239427328109741
1683135173817369600,17.60936962890625,-0.012722969055175781,0.10694491863250732,0.12244942784309387
1683135173835211500,17.62721142578125,-0.03888225555419922,-0.17738193273544312,-0.16894930601119995
1683135173853046300,17.64504638671875,-0.09614753723144531,0.21236145496368408,0.22777202725410461
1683135173870891300,17.662891357421874,-0.09474945068359375,0.14016985893249512,-0.16519054770469666
1683135173888732700,17.680732666015626,0.0717916488647461,-0.33715927600860596,0.1764332354068756
1683135173906571300,17.6985712890625,-0.13876914978027344,0.4052833020687103,-0.13388651609420776
1683135173924407600,17.716407470703125,0.05725288391113281,-0.22203993797302246,0.1858762502670288
1683135173942253000,17.734253173828126,-0.14860057830810547,0.010546207427978516,-0.2054293155670166
1683135173960082700,17.752082763671876,-0.10259532928466797,0.026207268238067627,0.1885385513305664
1683135173977934300,17.769934326171875,0.018003463745117188,0.13492357730865479,-0.15702998638153076
1683135173995774000,17.78777392578125,-0.021317481994628906,-0.026323437690734863,0.2012902796268463
1683135174013614000,17.805614013671875,-0.08316516876220703,-0.007154405117034912,-0.17426243424415588
1683135174031442200,17.823442138671876,0.012188911437988281,0.07389122247695923,0.23846668004989624
1683135174049294300,17.84129443359375,0.044806480407714844,0.1392885446548462,-0.15790754556655884
1683135174067125000,17.859125,-0.18310070037841797,-0.4396500587463379,0.09711259603500366
1683135174084975900,17.876975830078123,-0.014853477478027344,0.3507852554321289,-0.07684335112571716
1683135174102805500,17.894805419921877,0.013638496398925781,-0.23834288120269775,0.07150501012802124
1683135174120657400,17.912657470703124,-0.09656429290771484,0.13324874639511108,-0.08906188607215881
1683135174138494700,17.93049462890625,-0.15197372436523438,0.048893868923187256,0.12128981947898865
1683135174156339700,17.948339599609376,0.07082366943359375,0.0898628830909729,-0.0988444983959198
1683135174174172200,17.966172119140627,-0.05978679656982422,-0.09715557098388672,0.10175642371177673
1683135174192018700,17.984018798828124,-0.14421749114990234,0.17357009649276733,-0.07577788829803467
1683135174209849600,18.001849609375,-0.03299522399902344,-0.10356694459915161,0.004070878028869629
1683135174227694600,18.019694580078124,-0.021821975708007812,0.052980005741119385,-0.011524111032485962
1683135174245534200,18.0375341796875,-0.13927459716796875,0.16962158679962158,0.05531004071235657
1683135174263376600,18.055376708984376,0.042557716369628906,0.10363000631332397,-0.010917216539382935
1683135174281222400,18.073222412109374,-0.06345844268798828,-0.3322664499282837,-0.03533649444580078
1683135174299059200,18.09105908203125,-0.0920400619506836,0.38275206089019775,0.07768923044204712
1683135174316891600,18.1088916015625,0.06209278106689453,-0.20475906133651733,-0.07644495368003845
1683135174334740200,18.126740234375,-0.1342630386352539,-0.2242717146873474,0.03743249177932739
1683135174352581000,18.1445810546875,-0.15764713287353516,0.2731980085372925,-0.08415195345878601
1683135174370421000,18.1624208984375,0.15458393096923828,-0.26096224784851074,0.12438476085662842
1683135174388259600,18.180259521484373,-0.27689361572265625,0.07106626033782959,-0.1397455334663391
1683135174406105900,18.19810595703125,0.054879188537597656,0.20414084196090698,0.15049582719802856
1683135174423942400,18.2159423828125,0.0106964111328125,-0.2617352604866028,-0.14852112531661987
1683135174441783800,18.23378369140625,-0.029645919799804688,0.13287198543548584,0.20679929852485657
1683135174459623000,18.251622802734374,-0.07069778442382812,0.06814819574356079,-0.16598090529441833
1683135174477452000,18.2694521484375,-0.06810569763183594,-0.20198863744735718,0.1650879979133606
1683135174495299600,18.287299560546874,-0.1313610076904297,0.338512122631073,-0.1511700451374054
1683135174513145000,18.30514501953125,0.058930397033691406,-0.262931227684021,0.18204790353775024
1683135174530984700,18.322984619140627,-0.0908050537109375,0.2019147276878357,-0.17545157670974731
1683135174548825900,18.340825927734375,-0.01699542999267578,-0.20679140090942383,0.19354718923568726
1683135174566660900,18.358660888671874,0.008497238159179688,0.23051488399505615,-0.15955960750579834
1683135174584502500,18.37650244140625,-0.0725250244140625,-0.25160592794418335,0.13842976093292236
1683135174602346000,18.394345947265624,-0.1611194610595703,-0.09960299730300903,-0.16045722365379333
1683135174620181500,18.412181396484375,0.009901046752929688,0.0970258116722107,0.1225750744342804
1683135174638028000,18.430028076171876,0.0561065673828125,0.017877697944641113,-0.15346217155456543
1683135174655868400,18.447868408203124,-0.2813863754272461,-0.12330514192581177,0.1413246989250183
1683135174673707300,18.465707275390624,-0.0027666091918945312,0.41461488604545593,-0.15142899751663208
1683135174691553300,18.48355322265625,0.025829315185546875,-0.33480173349380493,0.11572986841201782
1683135174709380400,18.50138037109375,-0.13390731811523438,0.33592307567596436,-0.0628681480884552
1683135174727230000,18.51922998046875,-0.05845928192138672,-0.07083618640899658,0.06018036603927612
1683135174745069000,18.537069091796877,0.010686874389648438,-0.08720946311950684,-0.06932616233825684
1683135174762910500,18.554910400390625,-0.14306640625,0.11587214469909668,0.055501729249954224
1683135174780750000,18.57275,-0.03410816192626953,-0.019006192684173584,-0.08219292759895325
1683135174798589200,18.590589111328125,-0.007229804992675781,-0.09354519844055176,0.033048003911972046
1683135174816428000,18.608427978515625,-0.13486862182617188,0.16726452112197876,-0.02678641676902771
1683135174834272300,18.626272216796874,-0.10235023498535156,-0.04646080732345581,0.020804136991500854
1683135174852112000,18.64411181640625,0.025838851928710938,0.1771165132522583,0.010255575180053711
1683135174869953000,18.661953125,-0.10809040069580078,-0.14764130115509033,-0.05565962195396423
1683135174887792600,18.679792724609374,-0.016411781311035156,0.21153241395950317,0.11366939544677734
1683135174905633500,18.697633544921874,-0.032962799072265625,0.03037881851196289,-0.06168583035469055
1683135174923473200,18.71547314453125,-0.020030975341796875,-0.18423593044281006,0.06472837924957275
1683135174941313000,18.73331298828125,-0.10157585144042969,0.19230443239212036,-0.05273866653442383
1683135174959155500,18.751155517578123,0.05762958526611328,-0.19836026430130005,0.10716024041175842
1683135174976995300,18.768995361328123,-0.1805591583251953,-0.17236346006393433,-0.19252726435661316
1683135174994835500,18.78683544921875,0.00077056884765625,0.1854088306427002,0.18553602695465088
1683135175012672800,18.8046728515625,-0.06475448608398438,-0.08663374185562134,-0.1869460642337799
1683135175030516200,18.82251611328125,-0.09250831604003906,-0.03965491056442261,0.16483548283576965
1683135175048358700,18.840358642578124,-0.06130027770996094,0.30468475818634033,-0.16293078660964966
1683135175066197500,18.858197509765624,0.09116649627685547,-0.30512088537216187,0.1943112313747406
1683135175084036000,18.8760361328125,-0.25509166717529297,0.27907246351242065,-0.16104808449745178
1683135175101879600,18.893879638671876,-0.007381439208984375,-0.04473012685775757,0.17969879508018494
1683135175119718400,18.911718505859376,-0.014646530151367188,-0.06776696443557739,-0.18158966302871704
1683135175137558300,18.929558349609376,-0.08963775634765625,0.1764048933982849,0.22988778352737427
1683135175155399200,18.947399169921876,0.03241252899169922,0.12420189380645752,-0.17470088601112366
1683135175173236700,18.96523681640625,-0.03483772277832031,-0.3447245955467224,0.17750057578086853
1683135175191082200,18.983082275390625,-0.07487773895263672,0.4710191786289215,-0.11104440689086914
1683135175208919800,19.000919921875,0.0011816024780273438,-0.3055846095085144,0.12390854954719543
1683135175226761000,19.018760986328125,-0.07006359100341797,-0.0716172456741333,-0.1469581425189972
1683135175244600600,19.0366005859375,-0.11782550811767578,0.13859093189239502,0.1085902750492096
1683135175262440400,19.0544404296875,0.09204387664794922,-0.07698655128479004,-0.11116313934326172
1683135175280282400,19.072282470703126,-0.24839305877685547,-0.07796555757522583,0.09868547320365906
1683135175298122800,19.090122802734374,-0.041439056396484375,0.39561527967453003,-0.08714526891708374
1683135175315962000,19.107962158203126,0.06530094146728516,-0.4529713988304138,0.1038728654384613
1683135175333799200,19.125799072265625,-0.12542247772216797,0.3764488697052002,-0.03806498646736145
1683135175351640300,19.143640380859374,-0.07321929931640625,-0.1633749008178711,0.030652552843093872
1683135175369484500,19.161484619140627,0.005183219909667969,0.08041507005691528,-0.035363227128982544
1683135175387323000,19.179322998046874,-0.12404060363769531,0.1012001633644104,-0.00848039984703064
1683135175405151700,19.19715185546875,-0.024415969848632812,-0.17983561754226685,-0.022492200136184692
1683135175423008000,19.215008056640624,-0.035866737365722656,0.14268875122070312,0.04193699359893799
1683135175440845800,19.232845703125,-0.010202407836914062,0.1313052773475647,-0.0019324421882629395
1683135175458685400,19.250685546875,-0.08880615234375,-0.41316890716552734,-0.06774270534515381
1683135175476515000,19.26851513671875,-0.08790302276611328,0.26650846004486084,0.0734664797782898
1683135175494366700,19.28636669921875,-0.00119781494140625,-0.09709173440933228,-0.088043212890625
1683135175512208000,19.304207763671876,-0.04833221435546875,0.06256413459777832,0.1041077971458435
1683135175530044400,19.32204443359375,-0.18627166748046875,0.19008302688598633,-0.09420359134674072
1683135175547891500,19.339891357421877,0.08777809143066406,-0.20241689682006836,0.10951420664787292
1683135175565728300,19.357728271484376,-0.0951547622680664,0.17499840259552002,-0.12147566676139832
1683135175583564800,19.375564697265624,-0.007761955261230469,-0.08731144666671753,0.14965838193893433
1683135175601408500,19.393408447265625,-0.07501220703125,0.03552830219268799,-0.16614046692848206
1683135175619250400,19.41125048828125,-0.06072998046875,-0.13782578706741333,0.16244909167289734
1683135175637092000,19.429092041015625,-0.12545299530029297,0.3133240342140198,-0.14341214299201965
1683135175654925000,19.446925048828124,0.1376495361328125,-0.05968695878982544,0.20697933435440063
1683135175672767000,19.46476708984375,-0.1467885971069336,-0.09659075736999512,-0.2091677188873291
1683135175690612500,19.482612548828126,-0.0049915313720703125,0.15823239088058472,0.2607946991920471
1683135175708450600,19.500450439453125,0.07596969604492188,0.03972071409225464,-0.18979588150978088
1683135175726293800,19.518293701171874,-0.10232067108154297,-0.43902814388275146,0.10532453656196594
1683135175744129500,19.536129638671873,-0.0707998275756836,0.375629723072052,-0.12411728501319885
1683135175761976600,19.5539765625,0.04208087921142578,-0.3503168821334839,0.12319684028625488
1683135175779813400,19.5718134765625,-0.12769126892089844,0.1161840558052063,-0.18213406205177307
1683135175797654300,19.589654296875,-0.11295890808105469,0.13724279403686523,0.17125332355499268
1683135175815494000,19.607493896484375,0.06645679473876953,-0.03732234239578247,-0.1779288947582245
1683135175833323800,19.62532373046875,-0.19228553771972656,-0.015931248664855957,0.144363135099411
1683135175851175200,19.643175048828127,0.015115737915039062,0.3182387948036194,-0.13667693734169006
1683135175869016600,19.6610166015625,-0.040480613708496094,-0.4178657531738281,0.07547533512115479
1683135175886856400,19.6788564453125,-0.1413278579711914,0.3970276415348053,-0.02243688702583313
1683135175904692700,19.696692626953126,0.0063877105712890625,-0.0273207426071167,0.04461711645126343
1683135175922532000,19.714531982421875,-0.0062961578369140625,-0.12926489114761353,-0.09061256051063538
1683135175940382500,19.732382568359377,-0.14925098419189453,0.1398136019706726,0.08036857843399048
1683135175958216700,19.750216796875,0.013628005981445312,-0.10143011808395386,-0.07017263770103455
1683135175976054800,19.7680546875,-0.025961875915527344,-0.035809874534606934,0.028949379920959473
1683135175993898500,19.7858984375,-0.07726764678955078,0.15740901231765747,-0.012917160987854004
1683135176011739600,19.80373974609375,-0.09404468536376953,-0.05692213773727417,-0.03737512230873108
1683135176029578000,19.821577880859376,0.02763652801513672,0.17113375663757324,0.04192298650741577
1683135176047419400,19.83941943359375,-0.09301376342773438,-0.25479578971862793,-0.06853392720222473
1683135176065263400,19.857263427734374,-0.008120536804199219,0.2935153841972351,0.11095291376113892
1683135176083101400,19.875101318359373,-0.009146690368652344,-0.06550347805023193,-0.08964478969573975
1683135176100929000,19.892928955078126,-0.07183456420898438,-0.3005346655845642,0.05536583065986633
1683135176118780200,19.9107802734375,-0.10429191589355469,0.23103678226470947,-0.10230147838592529
1683135176136625000,19.928625,0.09945869445800781,-0.23515331745147705,0.14693856239318848
1683135176154463200,19.946463134765626,-0.29126834869384766,-0.002498030662536621,-0.1999289095401764
1683135176172301800,19.9643017578125,0.05961799621582031,0.1975671648979187,0.15710842609405518
1683135176190145800,19.982145751953126,0.0022706985473632812,-0.18873590230941772,-0.17265650629997253
1683135176207984000,19.999984130859374,-0.03233623504638672,0.1588151454925537,0.22233930230140686
1683135176225820400,20.0178203125,-0.06941509246826172,0.0838281512260437,-0.16819891333580017
1683135176243665000,20.035664794921875,-0.03315448760986328,-0.44788795709609985,0.14090222120285034
1683135176261506600,20.053506591796875,-0.07859516143798828,0.4030066132545471,-0.1555836796760559
1683135176279346000,20.071345947265623,0.06990242004394531,-0.2621734142303467,0.17588666081428528
1683135176297187300,20.089187255859375,-0.1557474136352539,0.027757346630096436,-0.18860691785812378
1683135176315026200,20.107026123046875,-0.039299964904785156,0.17017853260040283,0.2158949375152588
1683135176332868000,20.1248681640625,0.0760955810546875,-0.05306720733642578,-0.18501436710357666
1683135176350706700,20.142706787109375,-0.20200824737548828,-0.058507561683654785,0.17453822493553162
1683135176368538400,20.160538330078126,-0.022719383239746094,0.23257726430892944,-0.13175177574157715
1683135176386379000,20.17837890625,-0.05150318145751953,-0.25687217712402344,0.07665887475013733
1683135176404230000,20.19622998046875,-0.07548999786376953,0.2550817131996155,-0.08480021357536316
1683135176422069500,20.214069580078124,-0.13462352752685547,-0.20086640119552612,0.09042707085609436
1683135176439910700,20.23191064453125,0.03840827941894531,0.2523946762084961,-0.1253773272037506
1683135176457750000,20.24975,-0.05617713928222656,-0.2059604525566101,0.14031997323036194
1683135176475591700,20.267591796875,-0.20732688903808594,0.22536498308181763,-0.09008076786994934
1683135176493411000,20.2854111328125,0.00188446044921875,-0.0022472739219665527,0.048257023096084595
1683135176511275300,20.303275146484374,0.0039825439453125,0.002466559410095215,-0.06321433186531067
1683135176529112000,20.321112060546874,-0.17880535125732422,0.08576309680938721,0.08087620139122009
1683135176546953500,20.338953369140626,0.03551292419433594,0.09853166341781616,-0.041652560234069824
1683135176564794600,20.356794677734374,-0.025295257568359375,-0.30532509088516235,-0.009522944688796997
1683135176582632700,20.3746328125,-0.1154165267944336,0.3984844386577606,0.016816049814224243
1683135176600473600,20.3924736328125,0.07668018341064453,-0.25081634521484375,-0.0013896822929382324
1683135176618302500,20.410302490234375,-0.09635639190673828,-0.16630923748016357,-0.019491076469421387
1683135176636156000,20.428156005859375,-0.10429668426513672,0.24404501914978027,-0.02737635374069214
1683135176653996300,20.445996337890627,0.07213687896728516,-0.20589643716812134,0.05029591917991638
1683135176671835000,20.4638349609375,-0.2466888427734375,-0.06900787353515625,-0.10349750518798828
1683135176689678000,20.481677978515624,0.03718757629394531,0.2750051021575928,0.10374543070793152
1683135176707516700,20.4995166015625,0.01676654815673828,-0.23269379138946533,-0.10122165083885193
1683135176725358300,20.5173583984375,-0.08847618103027344,0.04198098182678223,0.151172935962677
1683135176743197200,20.535197265625,-0.061697959899902344,0.19740813970565796,-0.11454910039901733
1683135176761041200,20.553041259765624,0.07246780395507812,-0.30929994583129883,0.14443105459213257
1683135176778879000,20.57087890625,-0.2560863494873047,0.05974942445755005,-0.19610729813575745
1683135176796720000,20.58872021484375,0.10964679718017578,0.030705630779266357,0.21148380637168884
1683135176814559700,20.606559814453124,-0.05277538299560547,-0.051723361015319824,-0.20394152402877808
1683135176832389400,20.624389404296874,-0.15020751953125,-0.0033675432205200195,0.17112421989440918
1683135176850240500,20.642240478515625,-0.028037071228027344,0.2545049786567688,-0.17574197053909302
1683135176868070100,20.660070068359374,0.07221698760986328,-0.34925520420074463,0.18098312616348267
1683135176885921300,20.67792138671875,-0.23586463928222656,0.37027883529663086,-0.13626855611801147
1683135176903762700,20.6957626953125,-0.037253379821777344,-0.06427419185638428,0.16076797246932983
1683135176921602800,20.713602783203125,0.012379646301269531,-0.06667941808700562,-0.18595147132873535
1683135176939444200,20.7314443359375,-0.15391826629638672,0.24022090435028076,0.24319884181022644
1683135176957282600,20.749282470703125,0.06891918182373047,0.11256027221679688,-0.17417830228805542
1683135176975113200,20.76711328125,-0.06325626373291016,-0.43941354751586914,0.14023414254188538
1683135176992959500,20.78495947265625,-0.0567169189453125,0.47052258253097534,-0.07420104742050171
1683135177010805500,20.802805419921874,-0.02229595184326172,-0.3368891477584839,0.07997861504554749
1683135177028645000,20.82064501953125,-0.08245563507080078,-0.03438013792037964,-0.12595775723457336
1683135177046486800,20.83848681640625,-0.09741783142089844,0.17112529277801514,0.07564768195152283
1683135177064312000,20.85631201171875,0.06785106658935547,-0.11531615257263184,-0.09917598962783813
1683135177082167300,20.874167236328127,-0.20437049865722656,-0.0426408052444458,0.09225386381149292
1683135177100007000,20.8920068359375,-0.02205944061279297,0.3714379668235779,-0.08195605874061584
1683135177117848600,20.9098486328125,0.03180503845214844,-0.487440288066864,0.04306492209434509
1683135177135688400,20.9276884765625,-0.1137542724609375,0.3288765549659729,-0.014315277338027954
1683135177153529600,20.945529541015624,-0.051807403564453125,-0.16177082061767578,-0.02338707447052002
1683135177171369200,20.963369140625,0.02237701416015625,-0.02520442008972168,-0.011928588151931763
1683135177189206000,20.9812060546875,-0.15897655487060547,0.17925971746444702,-0.013848304748535156
1683135177207051800,20.9990517578125,0.0179443359375,-0.0046898722648620605,0.02682596445083618
1683135177224894500,21.01689453125,-0.07373046875,-0.22561115026474,-0.06431359052658081
1683135177242719700,21.0347197265625,-0.039765357971191406,0.30057454109191895,0.11298736929893494
1683135177260572700,21.05257275390625,0.013268470764160156,-0.18894976377487183,-0.12793904542922974
1683135177278400300,21.070400146484374,-0.14464378356933594,-0.23580753803253174,0.07837730646133423
1683135177296253000,21.0882529296875,-0.10615921020507812,0.30612868070602417,-0.11830362677574158
1683135177314087700,21.106087646484376,0.1917438507080078,-0.2368018627166748,0.1163986325263977
1683135177331935500,21.123935546875,-0.31427669525146484,0.058391273021698,-0.14528951048851013
1683135177349762600,21.141762451171875,0.030884742736816406,0.17750412225723267,0.1672348976135254
1683135177367615500,21.159615478515626,0.041961669921875,-0.19990438222885132,-0.16823247075080872
1683135177385454800,21.177454833984374,-0.04249095916748047,0.06811773777008057,0.22116076946258545
1683135177403296300,21.195296142578126,-0.08286571502685547,0.08401179313659668,-0.18815398216247559
1683135177421136000,21.213135986328126,0.03331756591796875,-0.11625772714614868,0.1779402792453766
1683135177438976300,21.230976318359374,-0.09035682678222656,0.30746376514434814,-0.1505226194858551
1683135177456817200,21.248817138671875,-0.014859199523925781,-0.3411062955856323,0.18826299905776978
1683135177474659300,21.266659423828123,-0.023405075073242188,0.3295876979827881,-0.13649311661720276
1683135177492498000,21.284497802734375,0.007067680358886719,-0.14649677276611328,0.17810285091400146
1683135177510339300,21.30233935546875,-0.11421489715576172,0.027865350246429443,-0.19010505080223083
1683135177528184800,21.320184814453125,-0.12403678894042969,-0.01294034719467163,0.11543664336204529
1683135177546020400,21.338020263671876,0.0011386871337890625,-0.09051984548568726,-0.13357222080230713
1683135177563860000,21.35585986328125,-0.025621414184570312,0.0671587586402893,0.13681527972221375
1683135177581701000,21.373701171875,-0.03095245361328125,0.07330000400543213,-0.1418439745903015
1683135177599540500,21.39154052734375,-0.17406749725341797,-0.15774881839752197,0.1368447244167328
1683135177617382700,21.409382568359376,-0.004147529602050781,0.4097025394439697,-0.13200879096984863
1683135177635214600,21.427214599609375,-0.013034820556640625,-0.36507993936538696,0.07197469472885132
1683135177653063200,21.445063232421877,-0.15218734741210938,0.2609431743621826,-0.04079577326774597
1683135177670902800,21.46290283203125,-0.03877830505371094,-0.008592665195465088,0.0406130850315094
1683135177688740400,21.480740234375,0.018098831176757812,-0.11911559104919434,-0.07202547788619995
1683135177706588200,21.498588134765626,-0.1660900115966797,0.10103517770767212,0.04845947027206421
1683135177724425000,21.516425048828125,0.0020399093627929688,-0.07040572166442871,-0.0618802011013031
1683135177742264800,21.534264892578125,0.046418190002441406,0.028338372707366943,0.06120187044143677
1683135177760102400,21.552102294921873,-0.10078811645507812,0.08032453060150146,-0.009051412343978882
1683135177777947100,21.569947021484374,-0.14218902587890625,-0.40472590923309326,-0.07809910178184509
1683135177795784400,21.587784423828126,0.01705169677734375,0.27300792932510376,0.027738243341445923
1683135177813626600,21.605626708984374,-0.029282569885253906,-0.07905828952789307,-0.061466753482818604
1683135177831470600,21.623470703125,-0.03305339813232422,0.10217475891113281,0.09005981683731079
1683135177849308400,21.641308349609375,-0.11592483520507812,0.07017713785171509,-0.0740913450717926
1683135177867137500,21.659137451171876,0.009975433349609375,-0.2400761842727661,0.07992470264434814
1683135177884988700,21.67698876953125,-0.055596351623535156,0.23166316747665405,-0.10372194647789001
1683135177902826200,21.694826171875,0.0058231353759765625,-0.22966080904006958,0.13028627634048462
1683135177920668000,21.71266796875,-0.21923446655273438,-0.15781134366989136,-0.20155397057533264
1683135177938513400,21.730513427734376,0.05747032165527344,0.1730031967163086,0.1876596212387085
1683135177956346000,21.74834619140625,-0.06000518798828125,-0.06377905607223511,-0.181423157453537
1683135177974192000,21.766192138671876,-0.024679183959960938,0.08420276641845703,0.22192257642745972
