time,seconds_elapsed,z,y,x
1683135156298422800,0.0904228515625,9.571290969848633,-1.0654042959213257,-0.17527425289154053
1683135156316260900,0.1082607421875,9.896714210510254,-0.7974081635475159,-0.6263213157653809
1683135156334099500,0.126099365234375,9.495916366577148,-0.8261220455169678,-0.2566302418708801
1683135156351937000,0.14393701171875,9.797411918640137,-0.5246263742446899,-0.5509474277496338
1683135156369781800,0.16178173828125,9.542576789855957,-1.439282774925232,-0.3696911036968231
1683135156387618800,0.179618896484375,9.849455833435059,-0.22193430364131927,-0.3607180118560791
1683135156405445600,0.197445556640625,9.69093132019043,-1.0558329820632935,-0.32183465361595154
1683135156423298000,0.215298095703125,9.625128746032715,-0.8937192559242249,-0.5557330846786499
1683135156441137000,0.233136962890625,9.54377269744873,-0.9702895879745483,-0.4085744619369507
1683135156458977000,0.25097705078125,9.833903312683105,-1.012762188911438,-0.44027936458587646
1683135156476812800,0.268812744140625,9.573084831237793,-0.6011967062950134,-0.4378865361213684
1683135156494658600,0.286658447265625,9.738788604736328,-0.7639086246490479,-0.3601198196411133
1683135156512481800,0.304481689453125,9.55753231048584,-1.3968101739883423,-0.5748756527900696
1683135156530336300,0.322336181640625,9.781859397888184,-0.37507495284080505,-0.21296121180057526
1683135156548173600,0.340173583984375,9.820143699645996,-1.0803594589233398,-0.5832505226135254
1683135156566014000,0.358013916015625,9.543174743652344,-0.9888339638710022,-0.3326023519039154
1683135156583853000,0.37585302734375,9.597013473510742,-0.8075776696205139,-0.6418746709823608
1683135156601693000,0.39369287109375,9.78963565826416,-1.2903295755386353,-0.21176479756832123
1683135156619531800,0.41153173828125,9.574281692504883,-0.29012975096702576,-0.6047859191894531
1683135156637360400,0.4293603515625,9.80937671661377,-1.0456634759902954,-0.18305093050003052
1683135156655211300,0.447211181640625,9.525228500366211,-1.2197413444519043,-0.7322037220001221
1683135156673051400,0.465051513671875,9.852447509765625,-0.7202396392822266,-0.1501496136188507
1683135156690890200,0.48289013671875,9.777671813964844,-1.176072359085083,-0.7405785918235779
1683135156708731000,0.50073095703125,9.856635093688965,-0.9595218896865845,-0.049651071429252625
1683135156726567200,0.518567138671875,9.630513191223145,-0.8123632669448853,-0.7178468108177185
1683135156744411400,0.536411376953125,9.646066665649414,-1.597209095954895,-0.1740778535604477
1683135156762248200,0.554248291015625,9.760323524475098,-0.2757728099822998,-0.7657032608985901
1683135156780088800,0.5720888671875,9.893723487854004,-1.472184181213379,-0.06340979784727097
1683135156797931500,0.589931640625,9.33141040802002,-0.6215356588363647,-0.7770691514015198
1683135156815767300,0.607767333984375,9.837491989135742,-0.8638089895248413,-0.09272187948226929
1683135156833601800,0.625601806640625,9.858428955078125,-0.9942178130149841,-0.745364248752594
1683135156851445000,0.643445068359375,9.604789733886719,-0.9020941257476807,-0.09870393574237823
1683135156869288200,0.6612880859375,9.7064847946167,-0.7980063557624817,-0.6460621356964111
1683135156887125500,0.67912548828125,9.667003631591797,-1.0271191596984863,-0.26979073882102966
1683135156904964400,0.69696435546875,9.797411918640137,-0.5533402562141418,-0.6125625967979431
1683135156922791000,0.714791015625,9.546764373779297,-1.444068431854248,-0.21296121180057526
1683135156940646700,0.732646728515625,9.80219841003418,-0.5006981492042542,-0.641276478767395
1683135156958481200,0.750481201171875,9.647262573242188,-1.1419745683670044,-0.2554338276386261
1683135156976323000,0.768322998046875,9.777671813964844,-0.649053156375885,-0.5700899958610535
1683135156994165500,0.78616552734375,9.556933403015137,-1.3244273662567139,-0.40319061279296875
1683135157012001800,0.804001708984375,9.8871431350708,-0.6197410821914673,-0.4546363055706024
1683135157029842200,0.82184228515625,9.623932838439941,-1.1665010452270508,-0.4462614357471466
1683135157047664400,0.839664306640625,9.605986595153809,-0.6969096064567566,-0.4707878530025482
1683135157065521700,0.857521728515625,9.734002113342285,-0.9361918568611145,-0.43609192967414856
1683135157083357400,0.875357421875,9.753145217895508,-0.9936196208000183,-0.41216370463371277
1683135157101203500,0.893203369140625,9.449256896972656,-0.6346961855888367,-0.44327038526535034
1683135157119039000,0.9110390625,9.80518913269043,-0.8261220455169678,-0.3690928816795349
1683135157136879900,0.9288798828125,9.677172660827637,-1.1808580160140991,-0.5838487148284912
1683135157154713900,0.9467138671875,9.725028991699219,-0.37507495284080505,-0.18963119387626648
1683135157172547000,0.964547119140625,9.691530227661133,-1.0995019674301147,-0.641276478767395
1683135157190397700,0.982397705078125,9.704689979553223,-1.1850453615188599,-0.2787638306617737
1683135157208224300,1.000224365234375,9.697511672973633,-0.5198407173156738,-0.5748756527900696
1683135157226079500,1.01807958984375,9.77527904510498,-1.409970760345459,-0.2021935135126114
1683135157243913000,1.035912841796875,9.501898765563965,-1.0666006803512573,-0.7519445419311523
1683135157261759700,1.053759765625,9.790233612060547,-0.7728816866874695,-0.12681959569454193
1683135157279601400,1.071601318359375,9.720243453979492,-1.1617153882980347,-0.7172485589981079
1683135157297428500,1.089428466796875,9.757332801818848,-0.7441678643226624,-0.08374879509210587
1683135157315275300,1.107275146484375,9.630513191223145,-0.7022934556007385,-0.7040880918502808
1683135157333102000,1.12510205078125,9.875179290771484,-1.155733346939087,-0.04905286431312561
1683135157350954800,1.142954833984375,9.616754531860352,-0.5724828243255615,-0.7232306599617004
1683135157368793600,1.160793701171875,9.704092025756836,-1.165902853012085,-0.10767702013254166
1683135157386633500,1.178633544921875,9.711869239807129,-0.6777670383453369,-0.727418065071106
1683135157404466700,1.196466796875,9.765707015991211,-1.170688509941101,-0.11665010452270508
1683135157422313200,1.214313232421875,9.68375301361084,-0.30927231907844543,-0.6514459848403931
1683135157440152000,1.232152099609375,9.765707015991211,-1.2616157531738281,-0.07357929646968842
1683135157457992000,1.249991943359375,9.620942115783691,-0.9415757060050964,-0.7561319470405579
1683135157475826200,1.267826171875,9.804591178894043,-0.849452018737793,-0.07417750358581543
1683135157493671200,1.285671142578125,9.882357597351074,-0.9505487680435181,-0.625723123550415
1683135157511507200,1.303507080078125,9.399605751037598,-1.4063814878463745,-0.34217363595962524
1683135157529344000,1.321343994140625,9.859027862548828,-0.44745782017707825,-0.5838487148284912
1683135157547190300,1.339190185546875,9.732208251953125,-1.4434702396392822,-0.2309073805809021
1683135157565030100,1.357030029296875,9.531210899353027,-0.41934216022491455,-0.6239284873008728
1683135157582869500,1.374869384765625,9.657432556152344,-1.0079765319824219,-0.29371899366378784
1683135157600704800,1.392704833984375,9.90568733215332,-0.9649057388305664,-0.5593222975730896
1683135157618550500,1.410550537109375,9.458230018615723,-0.6729813814163208,-0.33798620104789734
1683135157636388400,1.428388427734375,9.805787086486816,-0.7734799385070801,-0.48873403668403625
1683135157654223000,1.44622314453125,9.609575271606445,-1.3052847385406494,-0.45523449778556824
1683135157672071000,1.46407080078125,9.739386558532715,-0.5718846321105957,-0.40319061279296875
1683135157689906000,1.481906005859375,9.734002113342285,-1.1228320598602295,-0.45523449778556824
1683135157707746600,1.49974658203125,9.715457916259766,-0.7974081635475159,-0.40797626972198486
1683135157725582600,1.51758251953125,9.572486877441406,-0.9026923179626465,-0.503689169883728
1683135157743428400,1.535428466796875,9.776474952697754,-0.9601200819015503,-0.3978067636489868
1683135157761264400,1.553264404296875,9.667601585388184,-0.9798609018325806,-0.5892325639724731
1683135157779104800,1.571104736328125,9.710672378540039,-0.4899304509162903,-0.1986042857170105
1683135157796936400,1.5889365234375,9.629914283752441,-0.9655039310455322,-0.6083751320838928
1683135157814786800,1.606786865234375,9.80937671661377,-1.1371889114379883,-0.22612173855304718
1683135157832622600,1.62462255859375,9.707083702087402,-0.42352959513664246,-0.5132604837417603
1683135157850460700,1.642460693359375,9.780064582824707,-1.2759727239608765,-0.19262222945690155
1683135157868304600,1.6603046875,9.558728218078613,-1.2005987167358398,-0.7986045479774475
1683135157886143200,1.678143310546875,9.766305923461914,-0.7920243144035339,-0.09810572862625122
1683135157903981000,1.69598095703125,9.748957633972168,-1.0995019674301147,-0.7645068168640137
1683135157921821200,1.7138212890625,9.661619186401367,-1.0510473251342773,-0.17946170270442963
1683135157939655700,1.73165576171875,9.640682220458984,-0.5581258535385132,-0.7561319470405579
1683135157957501200,1.749501220703125,9.969695091247559,-1.4141582250595093,-0.09152546525001526
1683135157975335700,1.767335693359375,9.465408325195312,-0.2949153780937195,-0.7722834944725037
1683135157993187000,1.78518701171875,9.784850120544434,-1.1748759746551514,-0.13100704550743103
1683135158011019300,1.803019287109375,9.744172096252441,-1.089930772781372,-0.7740781307220459
1683135158028859400,1.820859375,9.671191215515137,-0.7920243144035339,-0.05563312768936157
1683135158046686500,1.8386865234375,9.78245735168457,-0.8841479420661926,-0.7268198728561401
1683135158064543000,1.85654296875,9.737591743469238,-0.8207381963729858,-0.05024927482008934
1683135158082377700,1.874377685546875,9.631111145019531,-0.6059823632240295,-0.6801598072052002
1683135158100215300,1.89221533203125,9.693922996520996,-1.6067804098129272,-0.18305093050003052
1683135158118059500,1.9100595703125,9.878767967224121,-0.2847459018230438,-0.6269195079803467
1683135158135897300,1.9278974609375,9.718449592590332,-1.420140266418457,-0.29730820655822754
1683135158153736000,1.94573583984375,9.587442398071289,-0.5533402562141418,-0.5611169338226318
1683135158171567400,1.9635673828125,9.591031074523926,-0.8979067206382751,-0.32243284583091736
1683135158189416400,1.98141650390625,9.853643417358398,-0.9218349456787109,-0.597607433795929
1683135158207256000,1.999256103515625,9.514460563659668,-0.9505487680435181,-0.27038896083831787
1683135158225095000,2.017094970703125,9.806385040283203,-0.7495517134666443,-0.5838487148284912
1683135158242930400,2.034930419921875,9.54796028137207,-1.0707881450653076,-0.39421752095222473
1683135158260773600,2.052773681640625,9.730413436889648,-0.5144568681716919,-0.48454657196998596
1683135158278614500,2.070614501953125,9.643074989318848,-1.2765709161758423,-0.45523449778556824
1683135158296448300,2.0884482421875,9.79681396484375,-0.37028929591178894,-0.2841476798057556
1683135158314293800,2.106293701171875,9.64367389678955,-0.9457631707191467,-0.4654040038585663
1683135158332132900,2.1241328125,9.67657470703125,-1.0510473251342773,-0.4504488706588745
1683135158349973000,2.141972900390625,9.638887405395508,-0.9314061999320984,-0.5126622319221497
1683135158367817200,2.159817138671875,9.728618621826172,-1.2041879892349243,-0.32183465361595154
1683135158385647600,2.177647705078125,9.772886276245117,-0.638883650302887,-0.5318048596382141
1683135158403495200,2.1954951171875,9.675976753234863,-1.0845468044281006,-0.26500511169433594
1683135158421331700,2.213331787109375,9.491728782653809,-1.0803594589233398,-0.6562315821647644
1683135158439170600,2.231170654296875,9.919445991516113,-0.6287141442298889,-0.27816563844680786
1683135158456993800,2.248993896484375,9.724431037902832,-1.2574282884597778,-0.6550351977348328
1683135158474849800,2.266849853515625,9.638289451599121,-0.7202396392822266,-0.1178465187549591
1683135158492686800,2.284686767578125,9.67777156829834,-0.9176474809646606,-0.722034215927124
1683135158510526200,2.302526123046875,9.727422714233398,-1.4195420742034912,-0.19262222945690155
1683135158528363000,2.320363037109375,9.678967475891113,-0.3762713670730591,-0.7232306599617004
1683135158546209000,2.338208984375,9.869794845581055,-1.5487544536590576,-0.12023933976888657
1683135158564041700,2.356041748046875,9.345169067382812,-0.711864709854126,-0.7722834944725037
1683135158581890800,2.373890869140625,9.871589660644531,-0.7244270443916321,-0.11665010452270508
1683135158599727900,2.391727783203125,9.81117057800293,-1.0803594589233398,-0.7692924737930298
1683135158617566700,2.409566650390625,9.589835166931152,-0.9786644577980042,-0.02273181453347206
1683135158635405000,2.427405029296875,9.692726135253906,-0.5964110493659973,-0.7417750358581543
1683135158653249500,2.44524951171875,9.794421195983887,-1.2664014101028442,-0.13998012244701385
1683135158671086600,2.463086669921875,9.616754531860352,-0.4336991012096405,-0.6849454641342163
1683135158688924700,2.480924560546875,9.732806205749512,-1.155733346939087,-0.13100704550743103
1683135158706767400,2.498767333984375,9.787840843200684,-0.7495517134666443,-0.722034215927124
1683135158724605400,2.51660546875,9.714262008666992,-0.9116654396057129,-0.15074782073497772
1683135158742445300,2.5344453125,9.787242889404297,-0.8787640929222107,-0.6741777658462524
1683135158760281300,2.55228125,9.55753231048584,-0.9505487680435181,-0.2560320198535919
1683135158778128000,2.5701279296875,9.835099220275879,-0.5479564070701599,-0.5455635786056519
1683135158795964000,2.5879638671875,9.585647583007812,-1.3722838163375854,-0.3696911036968231
1683135158813799200,2.605799072265625,9.797411918640137,-0.28893333673477173,-0.42711883783340454
1683135158831642600,2.623642578125,9.619147300720215,-1.1419745683670044,-0.28893333673477173
1683135158849484000,2.641484130859375,9.725627899169922,-0.7447660565376282,-0.6269195079803467
1683135158867322400,2.659322265625,9.591031074523926,-1.0079765319824219,-0.37507495284080505
1683135158885158700,2.67715869140625,9.78664493560791,-1.036690354347229,-0.48813581466674805
1683135158903001600,2.695001708984375,9.558728218078613,-0.7208378314971924,-0.4660021960735321
1683135158920842200,2.71284228515625,9.753145217895508,-0.7393822073936462,-0.40797626972198486
1683135158938680000,2.73068017578125,9.528818130493164,-1.3148560523986816,-0.5222335457801819
1683135158956522500,2.7485224609375,9.768099784851074,-0.5670989751815796,-0.37926238775253296
1683135158974360800,2.76636083984375,9.80937671661377,-1.3674981594085693,-0.5162515044212341
1683135158992198700,2.78419873046875,9.725028991699219,-0.50907301902771,-0.2841476798057556
1683135159010041600,2.80204150390625,9.681958198547363,-1.1425727605819702,-0.5647061467170715
1683135159027881500,2.819881591796875,9.642477035522461,-1.357926845550537,-0.32183465361595154
1683135159045714700,2.837714599609375,9.721440315246582,-0.49591249227523804,-0.6699903607368469
1683135159063560000,2.855559814453125,9.832706451416016,-1.2376874685287476,-0.2829512655735016
1683135159081398800,2.873398681640625,9.44028377532959,-0.7310073375701904,-0.6191428303718567
1683135159099239000,2.891239013671875,9.818947792053223,-0.8446664214134216,-0.16929219663143158
1683135159117078000,2.909078125,9.8207426071167,-0.8835497498512268,-0.7214360237121582
1683135159134914300,2.926914306640625,9.589835166931152,-1.2951152324676514,-0.11246266216039658
1683135159152753700,2.944753662109375,9.668798446655273,-0.5629115104675293,-0.7178468108177185
1683135159170599200,2.96259912109375,9.841679573059082,-1.4673985242843628,-0.12502498924732208
1683135159188436700,2.980436767578125,9.44028377532959,-0.7597211599349976,-0.7950153350830078
1683135159206274800,2.99827490234375,9.951749801635742,-0.9158528447151184,-0.09690931439399719
1683135159224116700,3.01611669921875,9.730413436889648,-1.0947163105010986,-0.8123632669448853
1683135159241956600,3.03395654296875,9.500103950500488,-0.7968099117279053,-0.08973085135221481
1683135159259779000,3.051779052734375,9.769296646118164,-0.5150550603866577,-0.7651050686836243
1683135159277637400,3.069637451171875,9.827322959899902,-1.5391831398010254,-0.14416755735874176
1683135159295475700,3.087475830078125,9.531808853149414,-0.13160525262355804,-0.6095715761184692
1683135159313315600,3.105315673828125,9.799206733703613,-1.2418749332427979,-0.19740787148475647
1683135159331153400,3.1231533203125,9.792028427124023,-0.9026923179626465,-0.7214360237121582
1683135159348996600,3.14099658203125,9.623932838439941,-0.6239284873008728,0.0011964113218709826
1683135159366834200,3.158834228515625,9.868000984191895,-0.9026923179626465,-0.6831508874893188
1683135159384674600,3.176674560546875,9.527621269226074,-1.4488540887832642,-0.2267199456691742
1683135159402512600,3.1945126953125,9.821340560913086,-0.16929219663143158,-0.527019202709198
1683135159420355000,3.21235498046875,9.732806205749512,-1.534995675086975,-0.40677985548973083
1683135159438193200,3.230193115234375,9.620942115783691,-0.5479564070701599,-0.4899304509162903
1683135159456028700,3.248028564453125,9.510273933410645,-0.9936196208000183,-0.3517449200153351
1683135159473858800,3.26585888671875,9.94397258758545,-0.8207381963729858,-0.5970092415809631
1683135159491698700,3.28369873046875,9.509675025939941,-1.189831018447876,-0.31764721870422363
1683135159509552000,3.30155224609375,9.511469841003418,-0.5000999569892883,-0.4713860750198364
1683135159527390700,3.319390625,9.809974670410156,-1.0606186389923096,-0.5258227586746216
1683135159545235700,3.337235595703125,9.757930755615234,-0.9212366938591003,-0.37866419553756714
1683135159563072000,3.355072021484375,9.516255378723145,-0.5288137793540955,-0.45224347710609436
1683135159580909800,3.372909912109375,9.890732765197754,-0.9930213689804077,-0.38285163044929504
1683135159598742500,3.390742431640625,9.629316329956055,-1.2047861814498901,-0.5790630578994751
1683135159616590000,3.408590087890625,9.739386558532715,-0.29850462079048157,-0.21296121180057526
1683135159634430200,3.42643017578125,9.814760208129883,-1.3866406679153442,-0.6161518096923828
1683135159652267500,3.444267578125,9.561718940734863,-1.170688509941101,-0.31764721870422363
1683135159670113500,3.462113525390625,9.697511672973633,-0.48574298620224,-0.6418746709823608
1683135159687949000,3.479948974609375,9.92243766784668,-1.5056836605072021,-0.2392822653055191
1683135159705790000,3.4977900390625,9.364311218261719,-0.7357929348945618,-0.7004988193511963
1683135159723616800,3.51561669921875,9.871589660644531,-0.7339983582496643,-0.17347964644432068
1683135159741469400,3.533469482421875,9.791430473327637,-1.2191431522369385,-0.7405785918235779
1683135159759304000,3.551303955078125,9.623334884643555,-0.8009973764419556,-0.0323031060397625
1683135159777153300,3.5691533203125,9.731011390686035,-0.6681957244873047,-0.722034215927124
1683135159794988000,3.586988037109375,9.789037704467773,-1.5726827383041382,-0.1537388563156128
1683135159812824000,3.604823974609375,9.53659439086914,-0.37148571014404297,-0.7573283910751343
1683135159830666800,3.622666748046875,9.893723487854004,-1.399801254272461,-0.11066804826259613
1683135159848492800,3.640492919921875,9.674181938171387,-0.34217363595962524,-0.7184450030326843
1683135159866346800,3.6583466796875,9.746564865112305,-1.098305583000183,-0.040677983313798904
1683135159884184000,3.67618408203125,9.616155624389648,-1.1330015659332275,-0.8177471160888672
1683135159902027800,3.69402783203125,9.804591178894043,-0.844068169593811,-0.13100704550743103
1683135159919870700,3.71187060546875,9.792028427124023,-0.8404789566993713,-0.6789634227752686
1683135159937705700,3.729705810546875,9.418747901916504,-1.4297115802764893,-0.2799602448940277
1683135159955534300,3.747534423828125,9.797411918640137,-0.45224347710609436,-0.6604190468788147
1683135159973380400,3.76538037109375,9.736993789672852,-1.3668999671936035,-0.17347964644432068
1683135159991225900,3.783225830078125,9.55513858795166,-0.42412781715393066,-0.6807580590248108
1683135160009064700,3.801064697265625,9.671191215515137,-1.0121639966964722,-0.24586252868175507
1683135160026905600,3.818905517578125,9.848857879638672,-0.9457631707191467,-0.6352944374084473
1683135160044743700,3.83674365234375,9.467801094055176,-0.7591229677200317,-0.31405797600746155
1683135160062581800,3.854581787109375,9.853643417358398,-0.7537391185760498,-0.5359922647476196
1683135160080414700,3.872414794921875,9.528818130493164,-1.3483555316925049,-0.48454657196998596
1683135160098263800,3.890263916015625,9.830313682556152,-0.4995017349720001,-0.43609192967414856
1683135160116104000,3.90810400390625,9.728020668029785,-1.43389892578125,-0.4019941985607147
1683135160133944000,3.925944091796875,9.849455833435059,-0.37028929591178894,-0.40319061279296875
1683135160151783400,3.943783447265625,9.638289451599121,-1.2185449600219727,-0.45523449778556824
1683135160169623300,3.961623291015625,9.614361763000488,-1.1850453615188599,-0.45523449778556824
1683135160187462100,3.979462158203125,9.739984512329102,-0.6197410821914673,-0.5940182209014893
1683135160205303300,3.99730322265625,9.851848602294922,-1.2041879892349243,-0.3206382393836975
1683135160223137500,4.015137451171875,9.367900848388672,-0.9990034699440002,-0.6191428303718567
1683135160240982500,4.032982421875,9.78664493560791,-0.638883650302887,-0.3361915946006775
1683135160258822000,4.05082177734375,9.80518913269043,-1.2526426315307617,-0.6496513485908508
1683135160276662300,4.068662353515625,9.486943244934082,-0.5335994362831116,-0.20937198400497437
1683135160294497000,4.0864970703125,9.772886276245117,-0.8691928386688232,-0.7172485589981079
1683135160312341800,4.104341796875,9.765707015991211,-1.3621143102645874,-0.1782652884721756
1683135160330180600,4.1221806640625,9.474381446838379,-0.12203395366668701,-0.6245267391204834
1683135160348021500,4.140021484375,10.00857925415039,-1.2131611108779907,-0.16749759018421173
1683135160365860400,4.1578603515625,9.553942680358887,-1.0660024881362915,-0.7896314859390259
1683135160383700700,4.17570068359375,9.751948356628418,-0.8536394834518433,-0.12622138857841492
1683135160401539300,4.193539306640625,9.892526626586914,-0.7447660565376282,-0.7357929348945618
1683135160419381500,4.211381591796875,9.751350402832031,-1.332802176475525,-0.12083754688501358
1683135160437219600,4.229219482421875,9.497711181640625,-0.7884350419044495,-0.7758727669715881
1683135160455060000,4.24706005859375,9.966106414794922,-1.0689935684204102,-0.12023933976888657
1683135160472899000,4.264899169921875,9.76391315460205,-0.802193820476532,-0.7172485589981079
1683135160490725600,4.2827255859375,9.452247619628906,-1.036690354347229,-0.1704886108636856
1683135160508578800,4.300578857421875,9.807581901550293,-0.5533402562141418,-0.7980063557624817
1683135160526418700,4.318418701171875,9.831509590148926,-1.428515076637268,-0.07776673883199692
1683135160544254000,4.33625390625,9.464810371398926,-0.15553347766399384,-0.6293123364448547
1683135160562099000,4.354098876953125,9.699904441833496,-1.1850453615188599,-0.3074777126312256
1683135160579938000,4.37193798828125,9.80100154876709,-0.9457631707191467,-0.6071787476539612
1683135160597778400,4.3897783203125,9.581459999084473,-0.5958128571510315,-0.19920247793197632
1683135160615605200,4.407605224609375,9.930213928222656,-0.849452018737793,-0.6400800347328186
1683135160633458700,4.425458740234375,9.513862609863281,-1.2903295755386353,-0.2841476798057556
1683135160651295700,4.443295654296875,9.697511672973633,-0.3565305769443512,-0.6131607890129089
1683135160669138000,4.461137939453125,9.751350402832031,-1.6019947528839111,-0.397208571434021
1683135160686977500,4.4789775390625,9.79262638092041,-0.37028929591178894,-0.4749752879142761
1683135160704818000,4.49681787109375,9.619147300720215,-1.2185449600219727,-0.46002015471458435
1683135160722644700,4.514644775390625,9.610174179077148,-1.017547845840454,-0.4983053207397461
1683135160740487700,4.53248779296875,9.67777156829834,-0.6675975322723389,-0.503689169883728
1683135160758335200,4.550335205078125,9.814760208129883,-1.0456634759902954,-0.4211367964744568
1683135160776175000,4.568175048828125,9.472586631774902,-0.8117650747299194,-0.4707878530025482
1683135160794018300,4.586018310546875,9.667601585388184,-0.6436693072319031,-0.3415754437446594
1683135160811856100,4.603856201171875,9.809974670410156,-1.353141188621521,-0.6113662123680115
1683135160829695000,4.621695068359375,9.729216575622559,-0.600000262260437,-0.2315055876970291
1683135160847524400,4.6395244140625,9.648459434509277,-1.085145115852356,-0.6460621356964111
1683135160865370600,4.65737060546875,9.833304405212402,-0.7770691514015198,-0.19740787148475647
1683135160883215400,4.67521533203125,9.616155624389648,-0.7112665176391602,-0.6705885529518127
1683135160901055000,4.693054931640625,9.590433120727539,-1.0360921621322632,-0.21296121180057526
1683135160918895400,4.710895263671875,9.644869804382324,-0.7256234884262085,-0.7417750358581543
1683135160936729900,4.728729736328125,9.736993789672852,-1.2370892763137817,-0.12143574655056
1683135160954574800,4.746574951171875,9.56471061706543,-0.29431718587875366,-0.6951149702072144
1683135160972411100,4.7644111328125,9.851848602294922,-1.088136076927185,-0.11605189740657806
1683135160990253800,4.78225390625,9.553942680358887,-1.0660024881362915,-0.7848458290100098
1683135161008095200,4.80009521484375,9.814162254333496,-0.623330295085907,0.01615155301988125
1683135161025934300,4.817934326171875,9.801599502563477,-0.9361918568611145,-0.802193820476532
1683135161043770000,4.83577001953125,9.637093544006348,-1.472184181213379,-0.15493527054786682
1683135161061617700,4.85361767578125,9.660423278808594,-0.28953152894973755,-0.7280163168907166
1683135161079453400,4.871453369140625,9.8267240524292,-1.567897081375122,-0.13459627330303192
1683135161097293600,4.88929345703125,9.569496154785156,-0.42412781715393066,-0.7184450030326843
1683135161115133000,4.9071328125,9.623334884643555,-1.069591760635376,-0.14117653667926788
1683135161132968000,4.924968017578125,9.973284721374512,-0.7393822073936462,-0.7304090857505798
1683135161150813000,4.94281298828125,9.608977317810059,-1.1461620330810547,-0.12681959569454193
1683135161168653300,4.9606533203125,9.54078197479248,-0.5102694034576416,-0.6472585201263428
1683135161186486300,4.978486328125,9.709476470947266,-1.103689432144165,-0.35473597049713135
1683135161204334300,4.996334228515625,9.806385040283203,-0.7250252366065979,-0.5264210104942322
1683135161222172000,5.014171875,9.519845008850098,-0.6532405614852905,-0.29012975096702576
1683135161240012300,5.03201220703125,9.8871431350708,-0.7968099117279053,-0.5401797294616699
1683135161257833700,5.049833740234375,9.53360366821289,-1.252044439315796,-0.3607180118560791
1683135161275692800,5.06769287109375,9.844670295715332,-0.22193430364131927,-0.4366901218891144
1683135161293529000,5.085529052734375,9.747162818908691,-1.5152549743652344,-0.41156548261642456
1683135161311373600,5.10337353515625,9.562915802001953,-0.9122636318206787,-0.5324030518531799
1683135161329212700,5.121212646484375,9.672985076904297,-0.763310432434082,-0.5126622319221497
1683135161347051800,5.1390517578125,9.871589660644531,-1.2323036193847656,-0.41575294733047485
1683135161364891400,5.156891357421875,9.401400566101074,-0.9272187948226929,-0.5712863802909851
1683135161382723000,5.17472314453125,9.805787086486816,-0.666999340057373,-0.373878538608551
1683135161400570600,5.192570556640625,9.79083251953125,-1.3716856241226196,-0.5874379873275757
1683135161418409000,5.210408935546875,9.506086349487305,-0.48035913705825806,-0.26620152592658997
1683135161436252000,5.228251953125,9.734601020812988,-0.9361918568611145,-0.631106972694397
1683135161454093300,5.24609326171875,9.823135375976562,-1.2083754539489746,-0.27337998151779175
1683135161471929900,5.263929931640625,9.45045280456543,-0.4815555512905121,-0.6526423692703247
1683135161489759000,5.281759033203125,9.827920913696289,-1.0839486122131348,-0.19740787148475647
1683135161507610400,5.2996103515625,9.592227935791016,-0.989432156085968,-0.7465606927871704
1683135161525450800,5.31745068359375,9.7998046875,-0.7770691514015198,-0.15972091257572174
1683135161543289600,5.33528955078125,9.725028991699219,-1.1665010452270508,-0.7549355626106262
1683135161561130800,5.353130859375,9.823135375976562,-0.9684949517250061,-0.05922235921025276
1683135161578969600,5.370969482421875,9.668798446655273,-0.6729813814163208,-0.7369893789291382
1683135161596810200,5.388810302734375,9.66102123260498,-1.1078768968582153,-0.12681959569454193
1683135161614649000,5.406649169921875,9.550353050231934,-0.529412031173706,-0.7328019142150879
1683135161632478000,5.42447802734375,9.846465110778809,-1.3758729696273804,-0.08733802288770676
1683135161650330600,5.44233056640625,9.731609344482422,-0.24646073579788208,-0.6849454641342163
1683135161668170000,5.460169921875,9.798608779907227,-1.337587833404541,-0.0729810893535614
1683135161686008800,5.4780087890625,9.53061294555664,-1.0277173519134521,-0.8231309652328491
1683135161703856600,5.495856689453125,9.747760772705078,-0.8536394834518433,-0.16450655460357666
1683135161721688600,5.5136884765625,9.853643417358398,-0.9457631707191467,-0.6735795736312866
1683135161739519700,5.531519775390625,9.452247619628906,-1.319043517112732,-0.29431718587875366
1683135161757368300,5.549368408203125,9.811769485473633,-0.42831525206565857,-0.6837490797042847
1683135161775209700,5.567209716796875,9.70349407196045,-1.4769697189331055,-0.19740787148475647
1683135161793048800,5.585048828125,9.559925079345703,-0.3086741268634796,-0.6281159520149231
1683135161810889200,5.60288916015625,9.66221809387207,-1.00259268283844,-0.32183465361595154
1683135161828728000,5.62072802734375,9.848259925842285,-1.00259268283844,-0.544965386390686
1683135161846557200,5.63855712890625,9.454042434692383,-0.5718846321105957,-0.37148571014404297
1683135161864408000,5.656407958984375,9.881759643554688,-0.8590233325958252,-0.4731806814670563
1683135161882248700,5.674248779296875,9.562317848205566,-1.2664014101028442,-0.49351966381073
1683135161900087600,5.692087646484375,9.8207426071167,-0.17347964644432068,-0.3032902777194977
1683135161917928400,5.709928466796875,9.790233612060547,-1.3812568187713623,-0.4492524564266205
1683135161935767800,5.727767822265625,9.520442962646484,-0.7926225066184998,-0.4468596279621124
1683135161953606000,5.74560595703125,9.586843490600586,-0.802193820476532,-0.5467599630355835
1683135161971445000,5.763445068359375,9.818947792053223,-0.9308080077171326,-0.29730820655822754
1683135161989288200,5.7812880859375,9.54915714263916,-0.7447660565376282,-0.6281159520149231
1683135162007127600,5.79912744140625,9.690333366394043,-1.069591760635376,-0.26919254660606384
1683135162024968000,5.816968017578125,9.76391315460205,-0.4420739710330963,-0.5413761138916016
1683135162042803500,5.834803466796875,9.761520385742188,-1.00259268283844,-0.24526432156562805
1683135162060649200,5.852649169921875,9.510273933410645,-1.4111671447753906,-0.7651050686836243
1683135162078483000,5.87048291015625,9.752547264099121,-0.7052844762802124,-0.1501496136188507
1683135162096332300,5.888332275390625,9.848857879638672,-1.079761266708374,-0.7639086246490479
1683135162114166800,5.906166748046875,9.565906524658203,-1.2233306169509888,-0.18424734473228455
1683135162132007400,5.92400732421875,9.583852767944336,-0.4815555512905121,-0.7615157961845398
1683135162149831700,5.941831787109375,10.04148006439209,-1.3657035827636719,-0.08135596662759781
1683135162167687700,5.959687744140625,9.43609619140625,-0.4145565330982208,-0.7621139883995056
1683135162185523700,5.977523681640625,9.747162818908691,-1.0163514614105225,-0.0975075215101242
1683135162203367200,5.9953671875,9.730413436889648,-1.0707881450653076,-0.7932206988334656
1683135162221210000,6.013210205078125,9.68076229095459,-0.8201399445533752,-0.03170489892363548
1683135162239047000,6.031046875,9.701699256896973,-0.8644071817398071,-0.755533754825592
1683135162256886500,6.048886474609375,9.81356430053711,-1.1365907192230225,-0.16390834748744965
1683135162274715600,6.066715576171875,9.630513191223145,-0.6538388133049011,-0.7082754969596863
1683135162292551000,6.084551025390625,9.556933403015137,-1.0456634759902954,-0.14656038582324982
1683135162310410000,6.102409912109375,9.854840278625488,-0.42831525206565857,-0.7645068168640137
1683135162328233500,6.1202333984375,9.665806770324707,-1.4386845827102661,-0.18783657252788544
1683135162346088200,6.138088134765625,9.58325481414795,-0.24586252868175507,-0.5234299302101135
1683135162363923700,6.155923828125,9.7005033493042,-1.0360921621322632,-0.3601198196411133
1683135162381769500,6.17376953125,9.81535816192627,-0.9355936646461487,-0.6071787476539612
1683135162399603700,6.191603759765625,9.458230018615723,-0.6340979933738708,-0.22372891008853912
1683135162417448200,6.2094482421875,9.90568733215332,-0.8685946464538574,-0.6065805554389954
1683135162435287300,6.227287353515625,9.575477600097656,-1.4434702396392822,-0.3696911036968231
1683135162453126700,6.245126708984375,9.70229721069336,-0.26979073882102966,-0.45164528489112854
1683135162470966000,6.262966064453125,9.719047546386719,-1.4626128673553467,-0.49710890650749207
1683135162488807200,6.28080712890625,9.558130264282227,-0.8691928386688232,-0.4893322288990021
1683135162506646000,6.29864599609375,9.682557106018066,-0.6963114142417908,-0.48454657196998596
1683135162524484900,6.31648486328125,9.909276962280273,-1.2275179624557495,-0.4061816334724426
1683135162542325800,6.33432568359375,9.396614074707031,-0.8548358678817749,-0.5330012440681458
1683135162560163600,6.35216357421875,9.725028991699219,-0.5904290080070496,-0.43190449476242065
1683135162578009300,6.37000927734375,9.852447509765625,-1.3525429964065552,-0.592223584651947
1683135162595841800,6.387841796875,9.472586631774902,-0.4085744619369507,-0.23808585107326508
1683135162613685500,6.405685546875,9.696913719177246,-0.8835497498512268,-0.6933203339576721
1683135162631526700,6.423526611328125,9.808777809143066,-1.2370892763137817,-0.23988047242164612
1683135162649364500,6.441364501953125,9.516854286193848,-0.16929219663143158,-0.5575276613235474
1683135162667193000,6.459193115234375,9.970293998718262,-1.2269197702407837,-0.19621145725250244
1683135162685048600,6.477048583984375,9.544371604919434,-1.2239288091659546,-0.7459624409675598
1683135162702886700,6.49488671875,9.67657470703125,-0.5994020700454712,-0.06041877344250679
1683135162720721200,6.51272119140625,9.810572624206543,-1.1515458822250366,-0.7974081635475159
1683135162738567700,6.530567626953125,9.57069206237793,-1.2562319040298462,-0.15074782073497772
1683135162756405500,6.548405517578125,9.607781410217285,-0.2991028428077698,-0.7471588850021362
1683135162774235000,6.56623486328125,9.993623733520508,-1.495514154434204,-0.08135596662759781
1683135162792085800,6.584085693359375,9.33141040802002,-0.5246263742446899,-0.8105686902999878
1683135162809926400,6.601926513671875,9.814162254333496,-0.9206385016441345,-0.13998012244701385
1683135162827765500,6.619765625,9.720243453979492,-1.1330015659332275,-0.8027920126914978
1683135162845603600,6.637603515625,9.732806205749512,-0.7962117195129395,-0.059820566326379776
1683135162863445500,6.655445556640625,9.7064847946167,-0.768694281578064,-0.7268198728561401
1683135162881289200,6.673289306640625,9.585049629211426,-1.3860424757003784,-0.26440688967704773
1683135162899125200,6.691125244140625,9.745368003845215,-0.3086741268634796,-0.698704183101654
1683135162916954600,6.70895458984375,9.66102123260498,-1.4386845827102661,-0.19262222945690155
1683135162934805800,6.7268056640625,9.602396965026855,-0.37088751792907715,-0.6664010882377625
1683135162952647000,6.74464697265625,9.742975234985352,-0.9493523836135864,-0.21176479756832123
1683135162970482700,6.762482666015625,9.876974105834961,-1.0408778190612793,-0.6113662123680115
1683135162988327000,6.780326904296875,9.45763111114502,-0.8638089895248413,-0.34217363595962524
1683135163006168600,6.79816845703125,9.81954574584961,-0.973878800868988,-0.511465847492218
1683135163024006100,6.816006103515625,9.677172660827637,-0.9451649188995361,-0.47916272282600403
1683135163041842200,6.83384228515625,9.715457916259766,-0.7776673436164856,-0.46480581164360046
1683135163059688200,6.851688232421875,9.467203140258789,-1.074975609779358,-0.42771705985069275
1683135163077526000,6.869526123046875,9.830313682556152,-0.5138586759567261,-0.5264210104942322
1683135163095365600,6.88736572265625,9.671789169311523,-1.2472587823867798,-0.4737788736820221
1683135163113206300,6.905206298828125,9.634700775146484,-0.45643091201782227,-0.3086741268634796
1683135163131047000,6.923046875,9.720243453979492,-0.882951557636261,-0.607776939868927
1683135163148886300,6.94088623046875,9.742975234985352,-1.031306505203247,-0.3595215976238251
1683135163166726700,6.9587265625,9.573683738708496,-0.4713860750198364,-0.50907301902771
1683135163184565800,6.976565673828125,9.814162254333496,-1.1270195245742798,-0.32123643159866333
1683135163202407400,6.994407470703125,9.572486877441406,-1.32921302318573,-0.6789634227752686
1683135163220243200,7.0122431640625,9.7005033493042,-0.4989035129547119,-0.1746760457754135
1683135163238090200,7.03009033203125,9.810572624206543,-1.2185449600219727,-0.7112665176391602
1683135163255925800,7.04792578125,9.518648147583008,-1.184447169303894,-0.2512463629245758
1683135163273767200,7.06576708984375,9.640682220458984,-0.4570291340351105,-0.6993024349212646
1683135163291603200,7.083603271484375,10.02712345123291,-1.4135600328445435,-0.17647066712379456
1683135163309449500,7.101449462890625,9.30748176574707,-0.5581258535385132,-0.7579265832901001
1683135163327286000,7.1192861328125,9.7998046875,-0.9397810697555542,-0.13579268753528595
1683135163345127200,7.137127197265625,9.787242889404297,-1.0510473251342773,-0.7926225066184998
1683135163362958800,7.154958740234375,9.600004196166992,-0.7387840151786804,-0.0323031060397625
1683135163380810000,7.17281005859375,9.68794059753418,-0.6436693072319031,-0.7459624409675598
1683135163398634200,7.19063427734375,9.827322959899902,-1.4811571836471558,-0.1537388563156128
1683135163416479000,7.20847900390625,9.55513858795166,-0.3278166949748993,-0.7286145091056824
1683135163434327000,7.2263271484375,9.822537422180176,-1.399801254272461,-0.11066804826259613
1683135163452167200,7.244167236328125,9.707083702087402,-0.6197410821914673,-0.8129615187644958
1683135163469995000,7.2619951171875,9.656235694885254,-1.2993026971817017,-0.15972091257572174
1683135163487847400,7.279847412109375,9.707083702087402,-0.5383850932121277,-0.6652047038078308
1683135163505686800,7.297686767578125,9.633503913879395,-1.1078768968582153,-0.2835494875907898
1683135163523527200,7.315527099609375,9.792028427124023,-0.6771687865257263,-0.5886343717575073
1683135163541354800,7.333354736328125,9.542576789855957,-1.2041879892349243,-0.28893333673477173
1683135163559208200,7.351208251953125,9.835697174072266,-0.5623133182525635,-0.6789634227752686
1683135163577047300,7.36904736328125,9.642477035522461,-1.2945170402526855,-0.26440688967704773
1683135163594887700,7.3868876953125,9.607182502746582,-0.3415754437446594,-0.5419743061065674
1683135163612723500,7.404723388671875,9.681360244750977,-1.0360921621322632,-0.40737804770469666
1683135163630568000,7.42256787109375,9.772287368774414,-0.8733802437782288,-0.48813581466674805
1683135163648393000,7.44039306640625,9.54915714263916,-0.5862415432929993,-0.39960137009620667
1683135163666252300,7.458252197265625,9.929018020629883,-0.9403793215751648,-0.4875376224517822
1683135163684079600,7.47607958984375,9.514460563659668,-1.2855439186096191,-0.5174478888511658
1683135163701931500,7.493931640625,9.748957633972168,-0.27397820353507996,-0.32721850275993347
1683135163719766800,7.511766845703125,9.862018585205078,-1.4051851034164429,-0.5108676552772522
1683135163737609000,7.52960888671875,9.530014038085938,-0.6867401003837585,-0.4133601188659668
1683135163755447600,7.547447509765625,9.611370086669922,-0.7776673436164856,-0.6418746709823608
1683135163773288400,7.565288330078125,9.856635093688965,-1.2945170402526855,-0.2727817893028259
1683135163791127300,7.583127197265625,9.554540634155273,-0.5431707501411438,-0.6329016089439392
1683135163808968400,7.600968505859375,9.856635093688965,-1.1940184831619263,-0.25363919138908386
1683135163826808800,7.618808837890625,9.739984512329102,-0.7010970115661621,-0.6460621356964111
1683135163844649200,7.636649169921875,9.66640567779541,-1.098305583000183,-0.21714866161346436
1683135163862486300,7.654486328125,9.620343208312988,-1.3100703954696655,-0.8075776696205139
1683135163880331000,7.6723310546875,9.866804122924805,-0.7621139883995056,-0.13519448041915894
1683135163898168000,7.69016796875,9.687342643737793,-0.9696913957595825,-0.7740781307220459
1683135163916009700,7.708009765625,9.642477035522461,-1.0163514614105225,-0.15553347766399384
1683135163933844200,7.72584423828125,9.592825889587402,-0.5623133182525635,-0.7657032608985901
1683135163951689700,7.743689697265625,9.93679428100586,-1.1599208116531372,-0.09631111472845078
1683135163969528800,7.76152880859375,9.602995872497559,-0.519242525100708,-0.794417142868042
1683135163987370000,7.779369873046875,9.698708534240723,-1.4093725681304932,-0.1256231814622879
1683135164005204700,7.797204833984375,9.631709098815918,-0.28953152894973755,-0.7184450030326843
1683135164023049500,7.815049560546875,9.761520385742188,-1.0211371183395386,-0.15912270545959473
1683135164040888800,7.832888916015625,9.65384292602539,-0.9840483069419861,-0.7316055297851562
1683135164058729200,7.850729248046875,9.65683364868164,-0.9254241585731506,-0.10289137065410614
1683135164076571000,7.86857080078125,9.754341125488281,-0.7250252366065979,-0.7597211599349976
1683135164094410500,7.886410400390625,9.675976753234863,-1.098305583000183,-0.22612173855304718
1683135164112245500,7.90424560546875,9.644869804382324,-0.6963114142417908,-0.641276478767395
1683135164130086400,7.92208642578125,9.581459999084473,-0.916451096534729,-0.26500511169433594
1683135164147931000,7.939930908203125,9.835099220275879,-0.5282155871391296,-0.5647061467170715
1683135164165770800,7.957770751953125,9.528220176696777,-1.2999008893966675,-0.364905446767807
1683135164183592400,7.975592529296875,9.835099220275879,-0.3361915946006775,-0.43130627274513245
1683135164201451000,7.993450927734375,9.671191215515137,-1.184447169303894,-0.3122633695602417
1683135164219290600,8.01129052734375,9.701699256896973,-0.8159525394439697,-0.6364908218383789
1683135164237132000,8.029132080078124,9.610174179077148,-0.8925228714942932,-0.3840480446815491
1683135164254965000,8.046965087890625,9.814760208129883,-1.007378339767456,-0.5018945336341858
1683135164272807700,8.0648076171875,9.491130828857422,-1.1419745683670044,-0.5700899958610535
1683135164290651000,8.08265087890625,9.810572624206543,-0.5808576941490173,-0.43130627274513245
1683135164308491500,8.100491455078124,9.647860527038574,-1.2903295755386353,-0.4977070987224579
1683135164326326300,8.118326171875,9.473184585571289,-0.5814558863639832,-0.4139583110809326
1683135164344162000,8.136162109375,9.78664493560791,-0.849452018737793,-0.5641079545021057
1683135164362011100,8.15401123046875,9.623932838439941,-1.093519926071167,-0.35054850578308105
1683135164379849500,8.171849365234374,9.492925643920898,-0.4139583110809326,-0.542572557926178
1683135164397694200,8.189694091796875,9.814162254333496,-0.9732806086540222,-0.30209386348724365
1683135164415533600,8.207533447265625,9.58205795288086,-1.0701899528503418,-0.6747759580612183
1683135164433371000,8.225370849609375,9.714859962463379,-0.6239284873008728,-0.2267199456691742
1683135164451211800,8.243211669921875,9.634700775146484,-1.0558329820632935,-0.7268198728561401
1683135164469052700,8.261052734375,9.795019149780273,-0.9302098155021667,-0.2309073805809021
1683135164486893600,8.2788935546875,9.553942680358887,-0.8739784955978394,-0.727418065071106
1683135164504732700,8.296732666015625,9.57607650756836,-0.8488538265228271,-0.07956135272979736
1683135164522573300,8.3145732421875,9.702896118164062,-0.5096712112426758,-0.784247636795044
1683135164540409900,8.332409912109375,9.756135940551758,-1.3423734903335571,-0.10169496387243271
1683135164558244600,8.35024462890625,9.479166984558105,-0.21296121180057526,-0.6526423692703247
1683135164576089300,8.36808935546875,9.955936431884766,-1.1694921255111694,-0.07238288223743439
1683135164593931800,8.385931884765625,9.57787036895752,-1.0516455173492432,-0.8560323119163513
1683135164611773400,8.4037734375,9.675976753234863,-0.776470959186554,-0.04127619042992592
1683135164629616400,8.421616455078125,9.792028427124023,-0.97926265001297,-0.7639086246490479
1683135164647453700,8.43945361328125,9.513264656066895,-1.3854442834854126,-0.18903298676013947
1683135164665294000,8.457294189453124,9.741181373596191,-0.2602194547653198,-0.6891329288482666
1683135164683133400,8.475133544921874,9.774680137634277,-1.5242279767990112,-0.17288143932819366
1683135164700973800,8.492973876953124,9.521639823913574,-0.5096712112426758,-0.7280163168907166
1683135164718815500,8.5108154296875,9.752547264099121,-0.877567708492279,-0.1788634955883026
1683135164736655000,8.528655029296875,9.900901794433594,-0.9882357716560364,-0.6825526356697083
1683135164754494200,8.546494140625,9.348159790039062,-0.7776673436164856,-0.25244277715682983
1683135164772334600,8.56433447265625,9.815957069396973,-0.6143572330474854,-0.5832505226135254
1683135164790176000,8.582176025390625,9.642477035522461,-1.3381860256195068,-0.4408775866031647
1683135164808015400,8.600015380859375,9.78245735168457,-0.5042873620986938,-0.45523449778556824
1683135164825855000,8.61785498046875,9.610174179077148,-0.8781659007072449,-0.32243284583091736
1683135164843696400,8.6356962890625,9.762716293334961,-0.8398807644844055,-0.5312066078186035
1683135164861535700,8.65353564453125,9.524032592773438,-1.2376874685287476,-0.45104706287384033
1683135164879376100,8.671376220703126,9.844072341918945,-0.4462614357471466,-0.3595215976238251
1683135164897216000,8.689216064453126,9.742975234985352,-1.256830096244812,-0.5497509837150574
1683135164915045000,8.707045166015625,9.505488395690918,-1.0169496536254883,-0.45104706287384033
1683135164932896800,8.724896728515626,9.682557106018066,-0.7776673436164856,-0.6221339106559753
1683135164950737400,8.7427373046875,9.870991706848145,-1.1359925270080566,-0.3397808074951172
1683135164968564700,8.760564697265625,9.463613510131836,-0.8309076428413391,-0.6185446381568909
1683135164986417700,8.778417724609374,9.725028991699219,-0.7052844762802124,-0.37926238775253296
1683135165004258300,8.79625830078125,9.809974670410156,-1.2664014101028442,-0.6352944374084473
1683135165022095400,8.814095458984376,9.467801094055176,-0.45164528489112854,-0.17587246000766754
1683135165039938300,8.831938232421875,9.720842361450195,-0.7920243144035339,-0.7411768436431885
1683135165057778400,8.8497783203125,9.832108497619629,-1.3513466119766235,-0.19202402234077454
1683135165075616300,8.8676162109375,9.550353050231934,-0.13579268753528595,-0.6239284873008728
1683135165093453800,8.885453857421876,9.965508460998535,-1.2460623979568481,-0.1818545162677765
1683135165111295200,8.903295166015624,9.530014038085938,-1.1234302520751953,-0.8081758618354797
1683135165129142500,8.921142578125,9.766305923461914,-0.747757077217102,-0.07417750358581543
1683135165146979800,8.938979736328125,9.834501266479492,-1.0606186389923096,-0.7734799385070801
1683135165164819000,8.95681884765625,9.518050193786621,-1.31365966796875,-0.1746760457754135
1683135165182662000,8.974661865234374,9.626923561096191,-0.2745763957500458,-0.7567301392555237
1683135165200499700,8.992499755859376,9.969695091247559,-1.552343726158142,-0.10049854964017868
1683135165218338300,9.01033837890625,9.364909172058105,-0.47198426723480225,-0.8003991842269897
1683135165236180700,9.0281806640625,9.82373332977295,-0.9014959335327148,-0.1543370634317398
1683135165254016800,9.046016845703125,9.820143699645996,-1.0654042959213257,-0.7782655358314514
1683135165271861000,9.063861083984374,9.609575271606445,-0.844068169593811,-0.15074782073497772
1683135165289703000,9.081702880859375,9.720842361450195,-0.8733802437782288,-0.6741777658462524
1683135165307541000,9.099541015625,9.742975234985352,-1.1413763761520386,-0.32602208852767944
1683135165325370000,9.1173701171875,9.711270332336426,-0.7489534616470337,-0.6317051649093628
1683135165343215600,9.135215576171875,9.42353343963623,-1.194616675376892,-0.31345975399017334
1683135165361059800,9.153059814453124,9.88833999633789,-0.3798605799674988,-0.7262216806411743
1683135165378902500,9.170902587890625,9.623334884643555,-1.3854442834854126,-0.3026920557022095
1683135165396741000,9.1887412109375,9.483354568481445,-0.25064817070961,-0.48574298620224
1683135165414577700,9.20657763671875,9.738788604736328,-0.9451649188995361,-0.4498506486415863
1683135165432421600,9.224421630859375,9.824331283569336,-0.9684949517250061,-0.4546363055706024
1683135165450257400,9.24225732421875,9.477970123291016,-0.4660021960735321,-0.380458801984787
1683135165468102100,9.26010205078125,9.881160736083984,-1.0169496536254883,-0.4875376224517822
1683135165485940700,9.277940673828125,9.614361763000488,-1.347757339477539,-0.5359922647476196
1683135165503785500,9.295785400390624,9.711270332336426,-0.2309073805809021,-0.3032902777194977
1683135165521623300,9.313623291015626,9.833304405212402,-1.4578272104263306,-0.5964110493659973
1683135165539463000,9.331462890625,9.576674461364746,-0.9595218896865845,-0.3936193287372589
1683135165557304300,9.34930419921875,9.692726135253906,-0.5623133182525635,-0.6508477330207825
1683135165575142400,9.367142333984376,9.937392234802246,-1.2795618772506714,-0.2913261651992798
1683135165592992000,9.384991943359376,9.464211463928223,-0.4426721930503845,-0.6143572330474854
1683135165610825700,9.40282568359375,9.719047546386719,-0.9110672473907471,-0.20757736265659332
1683135165628663600,9.42066357421875,9.662816047668457,-1.3046865463256836,-0.778863787651062
1683135165646504400,9.43850439453125,9.7005033493042,-0.5754738450050354,-0.13160525262355804
1683135165664333800,9.456333740234374,9.725028991699219,-1.0941181182861328,-0.7974081635475159
1683135165682184400,9.474184326171875,9.57069206237793,-1.3854442834854126,-0.16450655460357666
1683135165700023800,9.49202392578125,9.617352485656738,-0.27038896083831787,-0.7848458290100098
1683135165717867300,9.5098671875,9.998409271240234,-1.3992030620574951,-0.10049854964017868
1683135165735701500,9.527701416015624,9.379266738891602,-0.5485545992851257,-0.7860422134399414
1683135165753544400,9.54554443359375,9.775876998901367,-0.9056833982467651,-0.11186445504426956
1683135165771388700,9.563388671875,9.79681396484375,-1.0606186389923096,-0.8117650747299194
1683135165789225000,9.581224853515625,9.723235130310059,-0.8434699773788452,-0.05503492057323456
1683135165807068400,9.599068359375,9.659226417541504,-0.8309076428413391,-0.7794619798660278
1683135165824906500,9.616906494140625,9.665806770324707,-1.3040883541107178,-0.2309073805809021
1683135165842744300,9.634744384765625,9.802796363830566,-0.3415754437446594,-0.755533754825592
1683135165860573200,9.6525732421875,9.755537986755371,-1.4428720474243164,-0.14895321428775787
1683135165878431000,9.670430908203125,9.521639823913574,-0.3613162338733673,-0.6616154313087463
1683135165896267800,9.688267822265624,9.68076229095459,-0.9541380405426025,-0.26440688967704773
1683135165914108700,9.706108642578124,9.867402076721191,-0.9595218896865845,-0.6113662123680115
1683135165931948300,9.7239482421875,9.538389205932617,-0.8584251403808594,-0.3128615617752075
1683135165949789200,9.7417890625,9.834501266479492,-0.9020941257476807,-0.5593222975730896
1683135165967628800,9.75962890625,9.515059471130371,-0.7292127013206482,-0.3326023519039154
1683135165985465300,9.77746533203125,9.739386558532715,-0.5952146053314209,-0.5222335457801819
1683135166003309600,9.7953095703125,9.618548393249512,-1.5966109037399292,-0.4019941985607147
1683135166021150200,9.813150146484375,9.77826976776123,-0.29312077164649963,-0.45523449778556824
1683135166038989300,9.8309892578125,9.7005033493042,-1.2275179624557495,-0.5072783827781677
1683135166056830500,9.84883056640625,9.56770133972168,-0.7148557901382446,-0.4462614357471466
1683135166074670800,9.8666708984375,9.582656860351562,-0.7680960893630981,-0.5419743061065674
1683135166092511000,9.884510986328126,9.847661972045898,-1.1072787046432495,-0.38285163044929504
1683135166110338300,9.90233837890625,9.682557106018066,-0.7968099117279053,-0.5838487148284912
1683135166128193300,9.920193359375,9.633503913879395,-1.00259268283844,-0.37926238775253296
1683135166146031000,9.938031005859376,9.611370086669922,-0.763310432434082,-0.6131607890129089
1683135166163869400,9.955869384765625,9.710074424743652,-0.7148557901382446,-0.3409772217273712
1683135166181714400,9.97371435546875,9.667601585388184,-1.098903775215149,-0.6550351977348328
1683135166199553300,9.99155322265625,9.653244972229004,-0.503689169883728,-0.13698910176753998
1683135166217392600,10.009392578125,9.672985076904297,-0.7728816866874695,-0.6795616149902344
1683135166235233000,10.02723291015625,9.865608215332031,-1.3178470134735107,-0.22971096634864807
1683135166253075000,10.045074951171875,9.697511672973633,-0.3655036687850952,-0.6418746709823608
1683135166270910000,10.062909912109374,9.879366874694824,-1.4709876775741577,-0.12921242415905
1683135166288758300,10.08075830078125,9.568299293518066,-0.9840483069419861,-0.8177471160888672
1683135166306589700,10.098589599609374,9.775876998901367,-0.8195417523384094,-0.11186445504426956
1683135166324434000,10.116433837890625,9.720842361450195,-1.012762188911438,-0.8261220455169678
1683135166342280400,10.134280517578125,9.651450157165527,-1.1359925270080566,-0.13100704550743103
1683135166360111900,10.15211181640625,9.674181938171387,-0.39960137009620667,-0.7986045479774475
1683135166377958700,10.169958740234375,9.936196327209473,-1.48055899143219,-0.09092725813388824
1683135166395792100,10.187792236328125,9.427123069763184,-0.27038896083831787,-0.776470959186554
1683135166413639400,10.205639404296875,9.761520385742188,-1.1407781839370728,-0.23030917346477509
1683135166431474700,10.223474609375,9.758528709411621,-0.9308080077171326,-0.711864709854126
1683135166449318100,10.241318115234375,9.538389205932617,-0.786640465259552,-0.15134602785110474
1683135166467144700,10.259144775390626,9.835099220275879,-0.7052844762802124,-0.6927221417427063
1683135166484997600,10.27699755859375,9.57069206237793,-1.2370892763137817,-0.21236300468444824
1683135166502833000,10.2948330078125,9.754940032958984,-0.4085744619369507,-0.6795616149902344
1683135166520677400,10.312677490234375,9.756135940551758,-1.4189438819885254,-0.2590230405330658
1683135166538517500,10.330517578125,9.783055305480957,-0.48035913705825806,-0.5551348328590393
1683135166556358700,10.348358642578125,9.576674461364746,-0.9212366938591003,-0.40319061279296875
1683135166574198300,10.3661982421875,9.810572624206543,-0.9014959335327148,-0.5162515044212341
1683135166592039000,10.384038818359375,9.510871887207031,-0.9308080077171326,-0.5084748268127441
1683135166609879000,10.401879150390625,9.896714210510254,-0.4414757788181305,-0.373878538608551
1683135166627704000,10.4197041015625,9.704689979553223,-1.2083754539489746,-0.45942193269729614
1683135166645559800,10.437559814453126,9.58205795288086,-0.9547362327575684,-0.4749752879142761
1683135166663397600,10.455397705078125,9.77707290649414,-0.7818548083305359,-0.45942193269729614
1683135166681242400,10.473242431640625,9.847661972045898,-1.1216355562210083,-0.3966103494167328
1683135166699069200,10.491069091796875,9.377471923828125,-1.1276177167892456,-0.6945167779922485
1683135166716920600,10.508920654296874,9.853045463562012,-0.6855437159538269,-0.33080771565437317
1683135166734761700,10.52676171875,9.701101303100586,-1.2137593030929565,-0.6640082597732544
1683135166752600800,10.544600830078124,9.458230018615723,-0.5952146053314209,-0.30927231907844543
1683135166770430500,10.562430419921874,9.739984512329102,-0.7680960893630981,-0.7076773047447205
1683135166788280800,10.58028076171875,9.817750930786133,-1.3226326704025269,-0.19680966436862946
1683135166806123500,10.59812353515625,9.498309135437012,-0.29371899366378784,-0.656829833984375
1683135166823968000,10.615968017578124,9.823135375976562,-1.1264212131500244,-0.19680966436862946
1683135166841803500,10.633803466796875,9.530014038085938,-1.0510473251342773,-0.7890332937240601
1683135166859643400,10.651643310546875,9.814162254333496,-0.6903293132781982,-0.15493527054786682
1683135166877481200,10.669481201171875,9.734601020812988,-1.0893324613571167,-0.7974081635475159
1683135166895326500,10.687326416015624,9.737591743469238,-1.0115658044815063,-0.13100704550743103
1683135166913164500,10.70516455078125,9.54078197479248,-0.5383850932121277,-0.7800601720809937
1683135166931004200,10.723004150390626,9.841679573059082,-1.332203984260559,-0.1585244983434677
1683135166948835600,10.740835693359376,9.626325607299805,-0.6149554252624512,-0.7322037220001221
1683135166966684700,10.7586845703125,9.795019149780273,-0.7381857633590698,-0.07836493849754333
1683135166984525800,10.77652587890625,9.79262638092041,-0.7010970115661621,-0.7501499056816101
1683135167002365700,10.79436572265625,9.637093544006348,-1.2317054271697998,-0.1453639715909958
1683135167020206300,10.812206298828125,9.807581901550293,-0.22133609652519226,-0.6221339106559753
1683135167038045700,10.830045654296875,9.832108497619629,-1.4327025413513184,-0.1585244983434677
1683135167055887400,10.847887451171875,9.630513191223145,-0.882951557636261,-0.698704183101654
1683135167073717500,10.865717529296875,9.671789169311523,-0.9110672473907471,-0.3074777126312256
1683135167091567900,10.88356787109375,9.872187614440918,-1.0169496536254883,-0.625723123550415
1683135167109407500,10.901407470703125,9.357730865478516,-0.9930213689804077,-0.3852444589138031
1683135167127248600,10.91924853515625,9.821340560913086,-0.4707878530025482,-0.6215356588363647
1683135167145088000,10.937087890625,9.708877563476562,-1.4715858697891235,-0.3206382393836975
1683135167162926800,10.9549267578125,9.521639823913574,-0.22193430364131927,-0.5138586759567261
1683135167180770800,10.972770751953124,9.719645500183105,-1.0121639966964722,-0.48813581466674805
1683135167198608600,10.990608642578126,9.79083251953125,-0.9924231767654419,-0.4875376224517822
1683135167216450600,11.008450439453124,9.544371604919434,-0.45164528489112854,-0.4372883439064026
1683135167234290400,11.02629052734375,9.90987491607666,-0.9780662655830383,-0.4253242313861847
1683135167252129800,11.0441298828125,9.581459999084473,-1.2472587823867798,-0.5647061467170715
1683135167269971500,11.061971435546875,9.739386558532715,-0.2063809484243393,-0.2841476798057556
1683135167287810600,11.079810546875,9.900303840637207,-1.3567304611206055,-0.5772684812545776
1683135167305651700,11.097651611328125,9.55753231048584,-1.1078768968582153,-0.3696911036968231
1683135167323491000,11.115490966796875,9.683155059814453,-0.5042873620986938,-0.6460621356964111
1683135167341332700,11.133332763671875,9.913464546203613,-1.4039887189865112,-0.28175488114356995
1683135167359171800,11.151171875,9.378668785095215,-0.7591229677200317,-0.7334001660346985
1683135167377013200,11.16901318359375,9.838688850402832,-0.7046862840652466,-0.2356930375099182
1683135167394847700,11.18684765625,9.805787086486816,-1.189831018447876,-0.7399803996086121
1683135167412690400,11.2046904296875,9.54796028137207,-0.7238288521766663,-0.12741780281066895
1683135167430533400,11.222533447265626,9.711869239807129,-0.7010970115661621,-0.7932206988334656
1683135167448366000,11.240365966796874,9.7938232421875,-1.461416482925415,-0.14895321428775787
1683135167466215000,11.25821484375,9.512666702270508,-0.10229317098855972,-0.7046862840652466
1683135167484048600,11.276048583984375,9.970293998718262,-1.2652050256729126,-0.12442677468061447
1683135167501896000,11.29389599609375,9.573683738708496,-0.9266205430030823,-0.8177471160888672
1683135167519732500,11.311732421875,9.790233612060547,-0.5365904569625854,-0.007178467698395252
1683135167537578000,11.329577880859375,9.844670295715332,-0.9930213689804077,-0.8159525394439697
1683135167555416300,11.347416259765625,9.708279609680176,-1.5242279767990112,-0.20159530639648438
1683135167573256000,11.365255859375,9.741181373596191,-0.2267199456691742,-0.6843472719192505
1683135167591096800,11.383096923828125,9.817750930786133,-1.5912270545959473,-0.20578274130821228
1683135167608936400,11.4009365234375,9.573683738708496,-0.5000999569892883,-0.6993024349212646
1683135167626777900,11.41877783203125,9.56650447845459,-0.9828519225120544,-0.1986042857170105
1683135167644617500,11.436617431640625,9.982855796813965,-0.7148557901382446,-0.7489534616470337
1683135167662453800,11.454453857421875,9.589835166931152,-1.1940184831619263,-0.19322042167186737
1683135167680302300,11.47230224609375,9.573683738708496,-0.48035913705825806,-0.6370890140533447
1683135167698139000,11.490138916015624,9.752547264099121,-1.098305583000183,-0.4163511395454407
1683135167715967000,11.507967041015625,9.824930191040039,-0.7292127013206482,-0.48813581466674805
1683135167733819600,11.525819580078124,9.510871887207031,-0.6047859191894531,-0.380458801984787
1683135167751659300,11.5436591796875,9.93380355834961,-0.8967102766036987,-0.5060819983482361
1683135167769497600,11.56149755859375,9.604789733886719,-1.2275179624557495,-0.4456632137298584
1683135167787342800,11.5793427734375,9.863813400268555,-0.20159530639648438,-0.38344982266426086
1683135167805181000,11.597180908203125,9.775876998901367,-1.5248262882232666,-0.5108676552772522
1683135167823020300,11.615020263671875,9.572486877441406,-0.9786644577980042,-0.48873403668403625
1683135167840854500,11.6328544921875,9.739984512329102,-0.6382854580879211,-0.5982056856155396
1683135167858698500,11.650698486328125,9.923035621643066,-1.2987045049667358,-0.33439695835113525
1683135167876546000,11.668546142578125,9.349356651306152,-0.8739784955978394,-0.6807580590248108
1683135167894383000,11.686383056640626,9.796216011047363,-0.7046862840652466,-0.3355933725833893
1683135167912222000,11.704221923828126,9.848259925842285,-1.2610175609588623,-0.7016952633857727
1683135167930062600,11.7220625,9.510871887207031,-0.4893322288990021,-0.24227328598499298
1683135167947903700,11.73990380859375,9.81117057800293,-0.8638089895248413,-0.7405785918235779
1683135167965734400,11.757734375,9.77527904510498,-1.3609179258346558,-0.21595224738121033
1683135167983584500,11.77558447265625,9.512666702270508,-0.08315058797597885,-0.6526423692703247
1683135168001424400,11.79342431640625,10.013364791870117,-1.1928220987319946,-0.19561325013637543
1683135168019265000,11.81126513671875,9.573084831237793,-1.1276177167892456,-0.8225327730178833
1683135168037104400,11.8291044921875,9.814760208129883,-0.49351966381073,-0.06939185410737991
1683135168054945800,11.84694580078125,9.853643417358398,-1.0552347898483276,-0.7968099117279053
1683135168072777200,11.864777099609375,9.717850685119629,-1.4428720474243164,-0.19202402234077454
1683135168090624500,11.88262451171875,9.736394882202148,-0.2267199456691742,-0.7178468108177185
1683135168108467200,11.90046728515625,9.907482147216797,-1.6151553392410278,-0.17168502509593964
1683135168126307300,11.918307373046876,9.507282257080078,-0.6771687865257263,-0.7758727669715881
1683135168144144100,11.93614404296875,9.814162254333496,-0.7860422134399414,-0.11665010452270508
1683135168161989600,11.95398974609375,9.863214492797852,-1.0217353105545044,-0.7872386574745178
1683135168179828500,11.971828369140624,9.424132347106934,-0.7674978375434875,-0.15194423496723175
1683135168197668600,11.989668701171874,9.797411918640137,-0.45164528489112854,-0.6933203339576721
1683135168215502300,12.00750244140625,9.784850120544434,-1.5242279767990112,-0.27756741642951965
1683135168233348000,12.02534814453125,9.640682220458984,-0.09212367236614227,-0.48514479398727417
1683135168251188500,12.0431884765625,9.756733894348145,-1.1653046607971191,-0.3445664644241333
1683135168269030700,12.06103076171875,9.80100154876709,-0.9308080077171326,-0.6448656916618347
1683135168286869800,12.078869873046875,9.515059471130371,-0.8632107973098755,-0.2991028428077698
1683135168304709400,12.09670947265625,9.958329200744629,-0.6478567123413086,-0.5635097622871399
1683135168322551300,12.11455126953125,9.600004196166992,-1.2370892763137817,-0.46480581164360046
1683135168340391400,12.132391357421875,9.649057388305664,-0.7914260625839233,-0.5126622319221497
1683135168358230300,12.150230224609375,9.857831001281738,-0.9397810697555542,-0.5353940725326538
1683135168376073200,12.1680732421875,9.829116821289062,-0.9780662655830383,-0.40677985548973083
1683135168393911600,12.18591162109375,9.415159225463867,-1.098903775215149,-0.5515456199645996
1683135168411748900,12.203748779296875,9.81535816192627,-0.6957131624221802,-0.4546363055706024
1683135168429590800,12.2215908203125,9.842875480651855,-1.2275179624557495,-0.5395814776420593
1683135168447436000,12.23943603515625,9.44447135925293,-0.40378883481025696,-0.2949153780937195
1683135168465272800,12.25727294921875,9.79681396484375,-0.916451096534729,-0.6783652305603027
1683135168483109600,12.275109619140625,9.837491989135742,-1.1647064685821533,-0.24885354936122894
1683135168500945400,12.2929453125,9.531210899353027,-0.1788634955883026,-0.5569294691085815
1683135168518794800,12.310794677734375,9.980463027954102,-1.1216355562210083,-0.2721835672855377
1683135168536634000,12.328634033203125,9.610772132873535,-1.1754741668701172,-0.7603194117546082
1683135168554475500,12.3464755859375,9.78126049041748,-0.5030909776687622,-0.07896314561367035
1683135168572315100,12.364315185546875,9.858428955078125,-1.1030912399291992,-0.7824530005455017
1683135168590156000,12.382156005859375,9.637093544006348,-1.3423734903335571,-0.17347964644432068
1683135168607995600,12.39999560546875,9.66939640045166,-0.29850462079048157,-0.7369893789291382
1683135168625837000,12.417837158203126,10.0073823928833,-1.6049858331680298,-0.1333998590707779
1683135168643677000,12.435677001953126,9.355338096618652,-0.5581258535385132,-0.8243274092674255
1683135168661515000,12.453514892578125,9.82373332977295,-0.8195417523384094,-0.13040883839130402
1683135168679359500,12.471359375,9.834501266479492,-1.1467602252960205,-0.8398807644844055
1683135168697198300,12.4891982421875,9.675976753234863,-0.7525427341461182,-0.04546362906694412
1683135168715037700,12.50703759765625,9.716654777526855,-0.672383189201355,-0.7507480978965759
1683135168732874000,12.5248740234375,9.594620704650879,-1.083350419998169,-0.19322042167186737
1683135168750700000,12.542699951171874,9.678369522094727,-0.45643091201782227,-0.6556333899497986
1683135168768548600,12.560548583984374,9.780064582824707,-1.4476577043533325,-0.2392822653055191
1683135168786399200,12.578399169921875,9.897911071777344,-0.2309073805809021,-0.5880361795425415
1683135168804235500,12.596235595703124,9.742377281188965,-1.212562918663025,-0.21595224738121033
1683135168822079700,12.614079833984375,9.620942115783691,-0.7441678643226624,-0.7130611538887024
1683135168839921200,12.631921142578125,9.55753231048584,-0.9643075466156006,-0.37028929591178894
1683135168857760500,12.649760498046875,9.943374633789062,-0.9110672473907471,-0.5060819983482361
1683135168875589600,12.667589599609375,9.591629981994629,-0.8303094506263733,-0.4941178858280182
1683135168893441300,12.685441162109376,9.829116821289062,-0.8967102766036987,-0.45942193269729614
1683135168911278800,12.70327880859375,9.624530792236328,-0.7339983582496643,-0.40319061279296875
1683135168929124600,12.72112451171875,9.80100154876709,-0.6957131624221802,-0.48813581466674805
1683135168946964000,12.7389638671875,9.632905960083008,-1.5535401105880737,-0.5018945336341858
1683135168964802300,12.75680224609375,9.830313682556152,-0.3888336718082428,-0.388235479593277
1683135168982643700,12.774643798828125,9.79083251953125,-1.2610175609588623,-0.5635097622871399
1683135169000472000,12.79247216796875,9.562317848205566,-1.069591760635376,-0.40319061279296875
1683135169018323700,12.81032373046875,9.664012908935547,-0.6436693072319031,-0.6652047038078308
1683135169036150300,12.828150390625,9.923633575439453,-1.155135154724121,-0.31046873331069946
1683135169054003700,12.846003662109375,9.501898765563965,-0.6963114142417908,-0.6281159520149231
1683135169071844900,12.863844970703125,9.748359680175781,-0.7818548083305359,-0.3074777126312256
1683135169089677800,12.881677734375,9.805787086486816,-1.2281162738800049,-0.7304090857505798
1683135169107525600,12.899525634765626,9.538987159729004,-0.5706881880760193,-0.15134602785110474
1683135169125361400,12.917361328125,9.692726135253906,-0.7585247755050659,-0.784247636795044
1683135169143206100,12.9352060546875,9.841679573059082,-1.308275818824768,-0.20099709928035736
1683135169161046800,12.953046875,9.588638305664062,-0.1788634955883026,-0.6424728631973267
1683135169178885400,12.970885498046876,10.018150329589844,-1.2699905633926392,-0.16689938306808472
1683135169196726300,12.988726318359374,9.549755096435547,-1.0558329820632935,-0.8512466549873352
1683135169214570000,13.006570068359375,9.80937671661377,-0.7716853022575378,-0.05922235921025276
1683135169232398000,13.024398193359374,9.863214492797852,-1.00259268283844,-0.8111668825149536
1683135169250247000,13.042246826171874,9.537193298339844,-1.2897313833236694,-0.18843477964401245
1683135169268090600,13.060090576171875,9.688538551330566,-0.29850462079048157,-0.7369893789291382
1683135169285928700,13.0779287109375,9.936196327209473,-1.48055899143219,-0.14356936514377594
1683135169303769900,13.095769775390625,9.4121675491333,-0.41874396800994873,-0.747757077217102
1683135169321605400,13.11360546875,9.833304405212402,-0.9104689955711365,-0.19740787148475647
1683135169339454500,13.131454345703125,9.8871431350708,-0.9547362327575684,-0.735194742679596
1683135169357290200,13.149290283203126,9.486345291137695,-0.7339983582496643,-0.21355941891670227
1683135169375120100,13.1671201171875,9.849455833435059,-0.6191428303718567,-0.6167500615119934
1683135169392970800,13.184970703125,9.675976753234863,-1.31365966796875,-0.3690928816795349
1683135169410812200,13.202812255859374,9.797411918640137,-0.13519448041915894,-0.47916272282600403
1683135169428651300,13.2206513671875,9.647262573242188,-1.2897313833236694,-0.3164508044719696
1683135169446487600,13.238487548828125,9.720842361450195,-0.7585247755050659,-0.6933203339576721
1683135169464332500,13.25633251953125,9.5862455368042,-0.8925228714942932,-0.3936193287372589
1683135169482173000,13.2741728515625,9.896116256713867,-0.9206385016441345,-0.5252245664596558
1683135169500011800,13.29201171875,9.562915802001953,-0.9020941257476807,-0.4989035129547119
1683135169517854700,13.309854736328125,9.729815483093262,-0.6909275650978088,-0.3978067636489868
1683135169535693300,13.327693359375,9.634101867675781,-1.2281162738800049,-0.5790630578994751
1683135169553534500,13.345534423828125,9.806385040283203,-0.5419743061065674,-0.4408775866031647
1683135169571371800,13.363371826171875,9.733404159545898,-1.2801600694656372,-0.5401797294616699
1683135169589217500,13.381217529296874,9.501300811767578,-0.494716078042984,-0.3188436031341553
1683135169607054600,13.3990546875,9.835099220275879,-0.753140926361084,-0.6263213157653809
1683135169624895700,13.416895751953126,9.7998046875,-1.179063320159912,-0.30628129839897156
1683135169642725600,13.4347255859375,9.535398483276367,-0.37028929591178894,-0.5712863802909851
1683135169660576300,13.452576171875,9.937990188598633,-1.0067801475524902,-0.27756741642951965
1683135169678415600,13.47041552734375,9.596415519714355,-1.1180464029312134,-0.7698906660079956
1683135169696249900,13.488249755859375,9.69093132019043,-0.7722834944725037,-0.23629122972488403
1683135169714095600,13.506095703125,9.772287368774414,-1.3142578601837158,-0.768694281578064
1683135169731941600,13.523941650390626,9.82373332977295,-0.833898663520813,-0.12083754688501358
1683135169749777700,13.541777587890625,9.616754531860352,-0.7824530005455017,-0.7986045479774475
1683135169767618600,13.55961865234375,9.765109062194824,-1.5337992906570435,-0.14895321428775787
1683135169785453800,13.577453857421874,9.684351921081543,-0.2745763957500458,-0.8135597109794617
1683135169803303200,13.59530322265625,9.941579818725586,-1.3369896411895752,-0.07657032459974289
1683135169821137400,13.613137451171875,9.445667266845703,-0.5718846321105957,-0.8141579031944275
1683135169838980900,13.63098095703125,9.814162254333496,-0.9343972206115723,-0.13519448041915894
1683135169856821000,13.648821044921876,9.81117057800293,-0.9690931439399719,-0.802193820476532
1683135169874658600,13.666658447265625,9.723235130310059,-0.8961120843887329,-0.08315058797597885
1683135169892499700,13.684499755859376,9.720842361450195,-0.8590233325958252,-0.7501499056816101
1683135169910341400,13.70234130859375,9.632905960083008,-1.3184453248977661,-0.2787638306617737
1683135169928165000,13.7201650390625,9.864411354064941,-0.3080759048461914,-0.7501499056816101
1683135169946021400,13.738021484375,9.756135940551758,-1.4859428405761719,-0.20159530639648438
1683135169963856600,13.755856689453125,9.559925079345703,-0.3032902777194977,-0.6472585201263428
1683135169981706500,13.77370654296875,9.771689414978027,-0.9684949517250061,-0.2925225794315338
1683135169999530200,13.7915302734375,9.948160171508789,-1.0402796268463135,-0.5868397355079651
1683135170017367300,13.8093671875,9.52941608428955,-0.7818548083305359,-0.39900317788124084
1683135170035222300,13.82722216796875,9.943374633789062,-1.0211371183395386,-0.5204389095306396
1683135170053047800,13.8450478515625,9.46301555633545,-0.9403793215751648,-0.4612165689468384
1683135170070903000,13.862903076171875,9.783055305480957,-0.40378883481025696,-0.5318048596382141
1683135170088744400,13.880744384765626,9.766305923461914,-1.5535401105880737,-0.43968117237091064
1683135170106583600,13.89858349609375,9.711270332336426,-0.35054850578308105,-0.3888336718082428
1683135170124426200,13.91642626953125,9.743574142456055,-1.0265209674835205,-0.544965386390686
1683135170142251300,13.934251220703125,9.791430473327637,-0.7004988193511963,-0.373878538608551
1683135170160107000,13.95210693359375,9.520442962646484,-0.8303094506263733,-0.617946445941925
1683135170177944800,13.96994482421875,9.751948356628418,-1.1892328262329102,-0.3445664644241333
1683135170195775000,13.98777490234375,9.844670295715332,-0.4223332107067108,-0.5264210104942322
1683135170213621000,14.00562109375,9.752547264099121,-1.0067801475524902,-0.32123643159866333
1683135170231466800,14.023466796875,9.576674461364746,-1.415354609489441,-0.7405785918235779
1683135170249311500,14.0413115234375,9.79083251953125,-0.6185446381568909,-0.2309073805809021
1683135170267136000,14.059135986328124,9.848857879638672,-1.0121639966964722,-0.7399803996086121
1683135170284987400,14.0769873046875,9.728618621826172,-0.7286145091056824,-0.1740778535604477
1683135170302824200,14.09482421875,9.53061294555664,-0.6628118753433228,-0.7232306599617004
1683135170320667400,14.11266748046875,9.988838195800781,-1.4039887189865112,-0.16689938306808472
1683135170338497000,14.1304970703125,9.764511108398438,-0.24586252868175507,-0.7130611538887024
1683135170356348200,14.14834814453125,9.817750930786133,-1.4422738552093506,-0.11545369029045105
1683135170374189000,14.16618896484375,9.521639823913574,-0.7208378314971924,-0.8231309652328491
1683135170392028700,14.184028564453126,9.728618621826172,-0.9206385016441345,-0.15972091257572174
1683135170409869800,14.201869873046874,9.759127616882324,-0.5808576941490173,-0.722034215927124
1683135170427709400,14.21970947265625,9.737591743469238,-0.9924231767654419,-0.11186445504426956
1683135170445550300,14.23755029296875,9.621540069580078,-0.7489534616470337,-0.784247636795044
1683135170463382300,14.25538232421875,9.913464546203613,-1.0205388069152832,-0.16809579730033875
1683135170481234200,14.273234130859375,9.773484230041504,-0.7250252366065979,-0.7501499056816101
1683135170499071000,14.291071044921875,9.57607650756836,-0.9589236974716187,-0.2273181527853012
1683135170516912000,14.308912109375,9.783055305480957,-0.6047859191894531,-0.6454638838768005
1683135170534746600,14.32674658203125,9.632905960083008,-1.222732424736023,-0.34995031356811523
1683135170552592400,14.34459228515625,9.863813400268555,-0.21655045449733734,-0.4743770956993103
1683135170570432300,14.362432373046875,9.661619186401367,-1.2083754539489746,-0.2787638306617737
1683135170588272400,14.3802724609375,9.753743171691895,-0.8398807644844055,-0.6981059908866882
1683135170606113300,14.39811328125,9.67657470703125,-0.8105686902999878,-0.29790642857551575
1683135170623954000,14.415953857421876,9.952945709228516,-0.9397810697555542,-0.5682953596115112
1683135170641785600,14.43378564453125,9.481559753417969,-1.2616157531738281,-0.503689169883728
1683135170659634700,14.451634765625,9.844072341918945,-0.48454657196998596,-0.4408775866031647
1683135170677473800,14.469473876953124,9.742975234985352,-1.275374412536621,-0.5401797294616699
1683135170695315200,14.487315185546874,9.596415519714355,-0.6191428303718567,-0.45583271980285645
1683135170713138700,14.505138671875,9.748957633972168,-0.8488538265228271,-0.5264210104942322
1683135170730999300,14.522999267578125,9.738189697265625,-1.0217353105545044,-0.4163511395454407
1683135170748834800,14.540834716796875,9.53061294555664,-0.5186443328857422,-0.542572557926178
1683135170766676200,14.55867626953125,9.829116821289062,-0.877567708492279,-0.35892340540885925
1683135170784509400,14.576509521484375,9.686744689941406,-1.1515458822250366,-0.7022934556007385
1683135170802356700,14.594356689453125,9.77707290649414,-0.6137589812278748,-0.26440688967704773
1683135170820193300,14.612193359375,9.667601585388184,-1.165902853012085,-0.7262216806411743
1683135170838040300,14.630040283203124,9.81954574584961,-0.8392825126647949,-0.3116651475429535
1683135170855872300,14.647872314453124,9.592227935791016,-0.9314061999320984,-0.7459624409675598
1683135170873717800,14.6657177734375,9.675976753234863,-0.8057830333709717,-0.16450655460357666
1683135170891545300,14.68354541015625,9.80219841003418,-0.5670989751815796,-0.8027920126914978
1683135170909397200,14.701397216796876,9.765707015991211,-1.303490161895752,-0.1256231814622879
1683135170927239400,14.719239501953124,9.474381446838379,-0.19322042167186737,-0.6765705943107605
1683135170945078800,14.737078857421874,10.00857925415039,-1.1018948554992676,-0.14356936514377594
1683135170962918400,14.75491845703125,9.592227935791016,-1.0654042959213257,-0.8697910308837891
1683135170980759800,14.772759765625,9.751948356628418,-0.6999006271362305,-0.05024927482008934
1683135170998599700,14.790599609375,9.849455833435059,-0.9643075466156006,-0.8159525394439697
1683135171016440300,14.8084404296875,9.698708534240723,-1.4093725681304932,-0.19740787148475647
1683135171034279700,14.82627978515625,9.731609344482422,-0.24586252868175507,-0.7178468108177185
1683135171052121300,14.844121337890625,9.903294563293457,-1.5385849475860596,-0.19561325013637543
1683135171069956900,14.861956787109374,9.550353050231934,-0.5814558863639832,-0.7704889178276062
1683135171087805400,14.879805419921874,9.77109146118164,-0.8386843204498291,-0.16450655460357666
1683135171105636400,14.89763623046875,9.891928672790527,-0.9930213689804077,-0.7256234884262085
1683135171123479800,14.915479736328125,9.376873970031738,-0.7292127013206482,-0.23808585107326508
1683135171141312500,14.9333125,9.868598937988281,-0.5330012440681458,-0.6454638838768005
1683135171159162600,14.95116259765625,9.704689979553223,-1.3758729696273804,-0.40677985548973083
1683135171177002500,14.96900244140625,9.721440315246582,-0.17347964644432068,-0.42771705985069275
1683135171194841600,14.986841552734376,9.647860527038574,-1.1413763761520386,-0.388235479593277
1683135171212682000,15.004681884765626,9.720243453979492,-0.8207381963729858,-0.6263213157653809
1683135171230523000,15.02252294921875,9.58205795288086,-0.8350951075553894,-0.39840495586395264
1683135171248359700,15.040359619140625,9.853045463562012,-1.0504491329193115,-0.534795880317688
1683135171266202000,15.0582021484375,9.586843490600586,-0.6957131624221802,-0.4893322288990021
1683135171284041500,15.07604150390625,9.772287368774414,-0.7244270443916321,-0.4408775866031647
1683135171301888000,15.093887939453126,9.5862455368042,-1.3525429964065552,-0.6406782865524292
1683135171319724800,15.111724853515625,9.768099784851074,-0.5419743061065674,-0.40259242057800293
1683135171337566000,15.12956591796875,9.767501831054688,-1.1748759746551514,-0.5970092415809631
1683135171355405300,15.1474052734375,9.705288887023926,-0.8201399445533752,-0.3978067636489868
1683135171373246200,15.16524609375,9.592227935791016,-0.882951557636261,-0.641276478767395
1683135171391074000,15.183073974609375,9.686145782470703,-0.9589236974716187,-0.3409772217273712
1683135171408927200,15.20092724609375,9.66819953918457,-0.8350951075553894,-0.6789634227752686
1683135171426762000,15.218761962890625,9.762716293334961,-0.47976094484329224,-0.16929219663143158
1683135171444607500,15.236607421875,9.682557106018066,-0.8398807644844055,-0.6981059908866882
1683135171462444800,15.25444482421875,9.808777809143066,-1.236491084098816,-0.2350948303937912
1683135171480290300,15.272290283203125,9.77826976776123,-0.3320041298866272,-0.6173482537269592
1683135171498128000,15.2901279296875,9.946365356445312,-1.4374881982803345,-0.14835500717163086
1683135171515968500,15.307968505859375,9.521040916442871,-1.0319048166275024,-0.8321040868759155
1683135171533808400,15.325808349609375,9.790233612060547,-0.8865407705307007,-0.13519448041915894
1683135171551648800,15.343648681640625,9.773484230041504,-0.9888339638710022,-0.8452646136283875
1683135171569490400,15.361490478515625,9.69930648803711,-1.083350419998169,-0.1788634955883026
1683135171587330000,15.379330078125,9.641280174255371,-0.4426721930503845,-0.8135597109794617
1683135171605170200,15.397170166015625,9.960124015808105,-1.4374881982803345,-0.09571290761232376
1683135171623010000,15.415010009765625,9.474979400634766,-0.21774685382843018,-0.7812566161155701
1683135171640851200,15.432851318359376,9.795019149780273,-1.1264212131500244,-0.22073788940906525
1683135171658690300,15.450690185546875,9.730413436889648,-0.9936196208000183,-0.7597211599349976
1683135171676524800,15.46852490234375,9.609575271606445,-0.8249256014823914,-0.15074782073497772
1683135171694372400,15.486372314453124,9.835099220275879,-0.849452018737793,-0.7543373107910156
1683135171712209000,15.504208984375,9.609575271606445,-0.786640465259552,-0.1698904037475586
1683135171730055400,15.522055419921875,9.739984512329102,-0.6239284873008728,-0.664606511592865
1683135171747881200,15.539881103515626,9.698708534240723,-1.6253247261047363,-0.3206382393836975
1683135171765733000,15.557733154296875,9.945169448852539,-0.1495514214038849,-0.550349235534668
1683135171783572700,15.57557275390625,9.661619186401367,-1.3950155973434448,-0.4163511395454407
1683135171801413600,15.59341357421875,9.596415519714355,-0.9978070259094238,-0.6125625967979431
1683135171819253000,15.6112529296875,9.720243453979492,-0.7004988193511963,-0.5359922647476196
1683135171837094400,15.629094482421875,10.009775161743164,-1.0737791061401367,-0.4815555512905121
1683135171854930200,15.64693017578125,9.382257461547852,-0.7776673436164856,-0.47617170214653015
1683135171872775000,15.66477490234375,9.787242889404297,-0.50907301902771,-0.5072783827781677
1683135171890602500,15.6826025390625,9.80937671661377,-1.5152549743652344,-0.5300102233886719
1683135171908456000,15.7004560546875,9.7064847946167,-0.3840480446815491,-0.355932354927063
1683135171926280000,15.718280029296874,9.715457916259766,-1.1078768968582153,-0.6502495408058167
1683135171944136000,15.736135986328126,9.757930755615234,-0.7052844762802124,-0.3122633695602417
1683135171961972500,15.753972412109375,9.535398483276367,-0.7250252366065979,-0.6514459848403931
1683135171979817200,15.771817138671874,9.756733894348145,-1.2993026971817017,-0.35413774847984314
1683135171997656000,15.789656005859374,9.77826976776123,-0.5377869009971619,-0.607776939868927
1683135172015497500,15.80749755859375,9.737591743469238,-1.1216355562210083,-0.27337998151779175
1683135172033336600,15.825336669921874,9.558728218078613,-1.1850453615188599,-0.7746763229370117
1683135172051166000,15.843166015625,9.762118339538574,-0.7716853022575378,-0.2309073805809021
1683135172069015000,15.86101513671875,9.735198974609375,-0.9355936646461487,-0.7549355626106262
1683135172086861300,15.878861328125,9.80937671661377,-0.7238288521766663,-0.13579268753528595
1683135172104694800,15.89669482421875,9.611968994140625,-0.6915257573127747,-0.7465606927871704
1683135172122542300,15.914542236328124,9.851250648498535,-1.212562918663025,-0.16809579730033875
1683135172140379000,15.93237890625,9.659825325012207,-0.44745782017707825,-0.7986045479774475
1683135172158219300,15.95021923828125,9.827322959899902,-1.2460623979568481,-0.16331014037132263
1683135172176060000,15.968059814453126,9.597611427307129,-0.6484549641609192,-0.7800601720809937
1683135172193896200,15.985896240234375,9.747162818908691,-1.1264212131500244,-0.16390834748744965
1683135172211740200,16.003740234375,9.750154495239258,-0.26500511169433594,-0.6843472719192505
1683135172229566700,16.021566650390625,9.80399227142334,-1.1264212131500244,-0.11126625537872314
1683135172247423200,16.03942333984375,9.625727653503418,-0.9314061999320984,-0.8081758618354797
1683135172265261800,16.05726171875,9.847063064575195,-0.7860422134399414,-0.09272187948226929
1683135172283089400,16.07508935546875,9.872786521911621,-0.8446664214134216,-0.6873382925987244
1683135172300942000,16.092942138671877,9.457033157348633,-1.4769697189331055,-0.39840495586395264
1683135172318780700,16.11078076171875,9.79262638092041,-0.40378883481025696,-0.6269195079803467
1683135172336612600,16.128612548828126,9.81356430053711,-1.4141582250595093,-0.33439695835113525
1683135172354462500,16.14646240234375,9.554540634155273,-0.47617170214653015,-0.6329016089439392
1683135172372304000,16.164303955078125,9.652647018432617,-0.9397810697555542,-0.32662028074264526
1683135172390142700,16.182142822265625,9.844072341918945,-0.9212366938591003,-0.6209374666213989
1683135172407972600,16.19997265625,9.491728782653809,-0.7441678643226624,-0.3900300860404968
1683135172425823700,16.21782373046875,9.81535816192627,-0.7052844762802124,-0.5497509837150574
1683135172443665400,16.23566552734375,9.66221809387207,-1.2179467678070068,-0.550349235534668
1683135172461503700,16.253503662109374,9.725028991699219,-0.5952146053314209,-0.4217349886894226
1683135172479345400,16.271345458984374,9.710074424743652,-1.0887342691421509,-0.5688936114311218
1683135172497185000,16.28918505859375,9.767501831054688,-0.786640465259552,-0.46420758962631226
1683135172515021300,16.307021240234373,9.67238712310791,-1.0648061037063599,-0.5407779216766357
1683135172532870700,16.32487060546875,9.605986595153809,-0.6047859191894531,-0.35114672780036926
1683135172550707000,16.34270703125,9.787242889404297,-0.8255237936973572,-0.6406782865524292
1683135172568533500,16.360533447265624,9.699904441833496,-1.0450652837753296,-0.3170489966869354
1683135172586388500,16.378388427734375,9.559326171875,-0.3320041298866272,-0.5473581552505493
1683135172604226800,16.396226806640627,10.03310489654541,-1.0205388069152832,-0.24825534224510193
1683135172622068200,16.414068115234375,9.577272415161133,-1.2041879892349243,-0.7698906660079956
1683135172639906600,16.431906494140627,9.69093132019043,-0.5754738450050354,-0.13160525262355804
1683135172657738000,16.449738037109373,9.848857879638672,-1.1126625537872314,-0.7968099117279053
1683135172675588600,16.467588623046876,9.632905960083008,-1.1838489770889282,-0.22193430364131927
1683135172693429500,16.485429443359376,9.636494636535645,-0.3798605799674988,-0.7657032608985901
1683135172711261000,16.503260986328126,9.945767402648926,-1.485344648361206,-0.14356936514377594
1683135172729110300,16.5211103515625,9.360123634338379,-0.6299105882644653,-0.8428717851638794
1683135172746947300,16.538947265625,9.847661972045898,-0.8243274092674255,-0.16390834748744965
1683135172764792600,16.55679248046875,9.772886276245117,-1.098903775215149,-0.8452646136283875
1683135172782635800,16.5746357421875,9.675378799438477,-0.9343972206115723,-0.064606212079525
1683135172800471600,16.592471435546877,9.759725570678711,-0.5330012440681458,-0.7746763229370117
1683135172818310000,16.610309814453124,9.708279609680176,-1.495514154434204,-0.21595224738121033
1683135172836148500,16.6281484375,9.702896118164062,-0.39421752095222473,-0.7226324677467346
1683135172853991700,16.64599169921875,9.736993789672852,-1.3178470134735107,-0.2111666053533554
1683135172871832800,16.663832763671873,9.635896682739258,-0.5240281820297241,-0.7322037220001221
1683135172889671000,16.6816708984375,9.7669038772583,-0.8632107973098755,-0.22133609652519226
1683135172907514400,16.699514404296874,9.810572624206543,-0.9978070259094238,-0.6783652305603027
1683135172925353000,16.71735302734375,9.54796028137207,-0.8632107973098755,-0.29850462079048157
1683135172943191300,16.73519140625,9.868000984191895,-0.6574280261993408,-0.5545366406440735
1683135172961035300,16.75303515625,9.619745254516602,-0.8057830333709717,-0.4414757788181305
1683135172978876000,16.7708759765625,9.763314247131348,-0.6813562512397766,-0.4785645306110382
1683135172996714200,16.78871435546875,9.580862045288086,-1.4003994464874268,-0.43609192967414856
1683135173014555000,16.806554931640626,9.940383911132812,-0.17766708135604858,-0.46899324655532837
1683135173032394500,16.82439453125,9.756733894348145,-1.3615161180496216,-0.46360939741134644
1683135173050236400,16.842236328125,9.491728782653809,-0.8638089895248413,-0.5515456199645996
1683135173068075800,16.86007568359375,9.597013473510742,-0.7202396392822266,-0.6083751320838928
1683135173085915000,16.877914794921875,9.966704368591309,-0.9493523836135864,-0.35832518339157104
1683135173103753200,16.895753173828126,9.467801094055176,-0.9649057388305664,-0.6323033571243286
1683135173121598500,16.913598388671875,9.734002113342285,-0.7148557901382446,-0.40259242057800293
1683135173139438800,16.93143896484375,9.829116821289062,-1.246660590171814,-0.6346961855888367
1683135173157278000,16.94927783203125,9.558728218078613,-0.4414757788181305,-0.32303106784820557
1683135173175117600,16.96711767578125,9.763314247131348,-0.8685946464538574,-0.7262216806411743
1683135173192962600,16.984962646484377,9.704092025756836,-1.31365966796875,-0.27337998151779175
1683135173210797600,17.002797607421876,9.503094673156738,-0.1501496136188507,-0.6191428303718567
1683135173228640300,17.02064013671875,10.028319358825684,-1.0827522277832031,-0.2626122832298279
1683135173246475500,17.0384755859375,9.511469841003418,-1.0654042959213257,-0.8033902049064636
1683135173264314600,17.056314697265623,9.709476470947266,-0.7573283910751343,-0.19800607860088348
1683135173282158300,17.074158447265624,9.711270332336426,-0.8733802437782288,-0.8219345808029175
1683135173300007700,17.092007568359374,9.842277526855469,-1.083350419998169,-0.1824527233839035
1683135173317840000,17.10983984375,9.559326171875,-0.7010970115661621,-0.7657032608985901
1683135173335681800,17.127681884765625,9.804591178894043,-0.8099704384803772,-0.06400800496339798
1683135173353521000,17.14552099609375,9.731011390686035,-0.4660021960735321,-0.7938188910484314
1683135173371347200,17.16334716796875,9.774680137634277,-1.3752747774124146,-0.14416755735874176
1683135173389204200,17.181204345703126,9.674181938171387,-0.3415754437446594,-0.7130611538887024
1683135173407042600,17.19904248046875,9.903294563293457,-1.3561322689056396,-0.15314064919948578
1683135173424874200,17.216874267578124,9.507282257080078,-0.6197410821914673,-0.8231309652328491
1683135173442719700,17.2347197265625,9.589835166931152,-1.222732424736023,-0.26440688967704773
1683135173460563000,17.25256298828125,9.954142570495605,-0.6526423692703247,-0.6538388133049011
1683135173478404600,17.270404541015626,9.661619186401367,-1.184447169303894,-0.2883351147174835
1683135173496244700,17.28824462890625,9.554540634155273,-0.7728816866874695,-0.7034898400306702
1683135173514083300,17.306083251953126,9.719047546386719,-0.997208833694458,-0.3690928816795349
1683135173531923000,17.3239228515625,9.849455833435059,-0.8057830333709717,-0.6783652305603027
1683135173549755100,17.341755126953124,9.400801658630371,-0.7824530005455017,-0.34277185797691345
1683135173567596300,17.35959619140625,9.873384475708008,-0.5569294691085815,-0.6263213157653809
1683135173585449000,17.377448974609376,9.671789169311523,-1.2562319040298462,-0.4785645306110382
1683135173603281000,17.395281005859374,9.664012908935547,-0.2069791555404663,-0.34217363595962524
1683135173621126700,17.413126708984375,9.714859962463379,-1.0456634759902954,-0.5407779216766357
1683135173638966500,17.430966552734375,9.77707290649414,-1.0121639966964722,-0.49710890650749207
1683135173656807200,17.44880712890625,9.681958198547363,-0.5856433510780334,-0.40319061279296875
1683135173674635000,17.466635009765625,9.79083251953125,-1.1126625537872314,-0.4588237404823303
1683135173692488200,17.48448828125,9.54377269744873,-1.2185449600219727,-0.6699903607368469
1683135173710328000,17.502328125,9.772287368774414,-0.5754738450050354,-0.3361915946006775
1683135173728164600,17.52016455078125,9.772287368774414,-1.1988041400909424,-0.6927221417427063
1683135173746008300,17.53800830078125,9.638289451599121,-0.8967102766036987,-0.3170489966869354
1683135173763845400,17.555845458984376,9.68794059753418,-0.6675975322723389,-0.7316055297851562
1683135173781693200,17.573693115234374,9.823135375976562,-1.236491084098816,-0.2632105052471161
1683135173799518200,17.591518310546874,9.45045280456543,-0.4426721930503845,-0.7525427341461182
1683135173817369600,17.60936962890625,9.766305923461914,-1.0067801475524902,-0.22612173855304718
1683135173835211500,17.62721142578125,9.7064847946167,-0.9744769930839539,-0.8027920126914978
1683135173853046300,17.64504638671875,9.657432556152344,-0.5078766345977783,-0.0364905446767807
1683135173870891300,17.662891357421874,9.654440879821777,-0.7824530005455017,-0.8033902049064636
1683135173888732700,17.680732666015626,9.822537422180176,-1.3752747774124146,-0.13459627330303192
1683135173906571300,17.6985712890625,9.65085220336914,-0.19800607860088348,-0.7561319470405579
1683135173924407600,17.716407470703125,9.869794845581055,-1.485344648361206,-0.12921242415905
1683135173942253000,17.734253173828126,9.479166984558105,-0.5814558863639832,-0.8422735929489136
1683135173960082700,17.752082763671876,9.671191215515137,-1.0259226560592651,-0.16929219663143158
1683135173977934300,17.769934326171875,9.840482711791992,-0.5712863802909851,-0.7214360237121582
1683135173995774000,17.78777392578125,9.675976753234863,-0.9589236974716187,-0.1501496136188507
1683135174013614000,17.805614013671875,9.735198974609375,-0.8925228714942932,-0.7501499056816101
1683135174031442200,17.823442138671876,9.880562782287598,-0.7668996453285217,-0.10169496387243271
1683135174049294300,17.84129443359375,9.801599502563477,-0.7483552694320679,-0.6927221417427063
1683135174067125000,17.859125,9.470791816711426,-1.5583257675170898,-0.3840480446815491
1683135174084975900,17.876975830078123,9.878170013427734,-0.364905446767807,-0.5593222975730896
1683135174102805500,17.894805419921877,9.747760772705078,-1.3088740110397339,-0.4492524564266205
1683135174120657400,17.912657470703124,9.663414001464844,-0.6191428303718567,-0.527019202709198
1683135174138494700,17.93049462890625,9.515059471130371,-0.882951557636261,-0.39421752095222473
1683135174156339700,17.948339599609376,9.92961597442627,-0.7339983582496643,-0.5491527915000916
1683135174174172200,17.966172119140627,9.629316329956055,-1.0265209674835205,-0.4217349886894226
1683135174192018700,17.984018798828124,9.615557670593262,-0.6239284873008728,-0.5084748268127441
1683135174209849600,18.001849609375,9.686744689941406,-1.007378339767456,-0.597607433795929
1683135174227694600,18.019694580078124,9.762716293334961,-0.844068169593811,-0.3930211067199707
1683135174245534200,18.0375341796875,9.587442398071289,-0.45164528489112854,-0.48035913705825806
1683135174263376600,18.055376708984376,9.833903312683105,-0.9302098155021667,-0.3924229145050049
1683135174281222400,18.073222412109374,9.634101867675781,-1.280758261680603,-0.6741777658462524
1683135174299059200,18.09105908203125,9.753743171691895,-0.35473597049713135,-0.23629122972488403
1683135174316891600,18.1088916015625,9.872187614440918,-1.275374412536621,-0.7202396392822266
1683135174334740200,18.126740234375,9.480961799621582,-1.2275179624557495,-0.3320041298866272
1683135174352581000,18.1445810546875,9.631111145019531,-0.48035913705825806,-0.7178468108177185
1683135174370421000,18.1624208984375,10.022337913513184,-1.4327025413513184,-0.21415762603282928
1683135174388259600,18.180259521484373,9.326624870300293,-0.5623133182525635,-0.776470959186554
1683135174406105900,18.19810595703125,9.89970588684082,-0.8195417523384094,-0.2063809484243393
1683135174423942400,18.2159423828125,9.78245735168457,-1.165902853012085,-0.8069794178009033
1683135174441783800,18.23378369140625,9.78544807434082,-0.7238288521766663,-0.049651071429252625
1683135174459623000,18.251622802734374,9.716055870056152,-0.8063812255859375,-0.8027920126914978
1683135174477452000,18.2694521484375,9.623334884643555,-1.1216355562210083,-0.1740778535604477
1683135174495299600,18.287299560546874,9.588638305664062,-0.3607180118560791,-0.7471588850021362
1683135174513145000,18.30514501953125,9.879964828491211,-1.3704891204833984,-0.16749759018421173
1683135174530984700,18.322984619140627,9.65503978729248,-0.5000999569892883,-0.7890332937240601
1683135174548825900,18.340825927734375,9.784252166748047,-1.3752747774124146,-0.1537388563156128
1683135174566660900,18.358660888671874,9.78843879699707,-0.4420739710330963,-0.7459624409675598
1683135174584502500,18.37650244140625,9.694520950317383,-1.3902299404144287,-0.268594354391098
1683135174602346000,18.394345947265624,9.544371604919434,-0.9649057388305664,-0.7082754969596863
1683135174620181500,18.412181396484375,9.80518913269043,-0.8488538265228271,-0.3643072545528412
1683135174638028000,18.430028076171876,9.8871431350708,-0.9595218896865845,-0.6825526356697083
1683135174655868400,18.447868408203124,9.272188186645508,-0.9403793215751648,-0.30508488416671753
1683135174673707300,18.465707275390624,9.835697174072266,-0.355932354927063,-0.7028916478157043
1683135174691553300,18.48355322265625,9.742377281188965,-1.3663017749786377,-0.38285163044929504
1683135174709380400,18.50138037109375,9.621540069580078,-0.21176479756832123,-0.48514479398727417
1683135174727230000,18.51922998046875,9.714859962463379,-1.074377417564392,-0.4977070987224579
1683135174745069000,18.537069091796877,9.79083251953125,-0.997208833694458,-0.4875376224517822
1683135174762910500,18.554910400390625,9.506086349487305,-0.6819544434547424,-0.5138586759567261
1683135174780750000,18.57275,9.814760208129883,-1.069591760635376,-0.5162515044212341
1683135174798589200,18.590589111328125,9.677172660827637,-0.9786644577980042,-0.5742774605751038
1683135174816428000,18.608427978515625,9.591629981994629,-0.7052844762802124,-0.4175475537776947
1683135174834272300,18.626272216796874,9.629914283752441,-0.7387840151786804,-0.5413761138916016
1683135174852112000,18.64411181640625,9.795618057250977,-0.7674978375434875,-0.3690928816795349
1683135174869953000,18.661953125,9.605986595153809,-0.9834501147270203,-0.6795616149902344
1683135174887792600,18.679792724609374,9.838688850402832,-0.527019202709198,-0.1782652884721756
1683135174905633500,18.697633544921874,9.734601020812988,-0.8973084688186646,-0.7022934556007385
1683135174923473200,18.71547314453125,9.68076229095459,-1.2221341133117676,-0.2877369225025177
1683135174941313000,18.73331298828125,9.716654777526855,-0.5330012440681458,-0.6795616149902344
1683135174959155500,18.751155517578123,9.860821723937988,-1.4039887189865112,-0.2105683982372284
1683135174976995300,18.768995361328123,9.488140106201172,-0.9505487680435181,-0.8703892230987549
1683135174994835500,18.78683544921875,9.833304405212402,-0.8291130661964417,-0.13998012244701385
1683135175012672800,18.8046728515625,9.67777156829834,-0.9984052777290344,-0.8219345808029175
1683135175030516200,18.82251611328125,9.590433120727539,-0.8536394834518433,-0.15553347766399384
1683135175048358700,18.840358642578124,9.745368003845215,-0.5240281820297241,-0.8506484627723694
1683135175066197500,18.858197509765624,9.865009307861328,-1.4327025413513184,-0.1010967567563057
1683135175084036000,18.8760361328125,9.379864692687988,-0.16450655460357666,-0.7722834944725037
1683135175101879600,18.893879638671876,9.81356430053711,-1.1934202909469604,-0.1824527233839035
1683135175119718400,18.911718505859376,9.711270332336426,-0.8398807644844055,-0.7692924737930298
1683135175137558300,18.929558349609376,9.681360244750977,-0.5706881880760193,-0.09810572862625122
1683135175155399200,18.947399169921876,9.90149974822998,-0.8159525394439697,-0.7639086246490479
1683135175173236700,18.96523681640625,9.6466646194458,-1.3567304611206055,-0.2069791555404663
1683135175191082200,18.983082275390625,9.759725570678711,-0.13040883839130402,-0.6323033571243286
1683135175208919800,19.000919921875,9.784850120544434,-1.5242279767990112,-0.32961133122444153
1683135175226761000,19.018760986328125,9.625128746032715,-0.8255237936973572,-0.6508477330207825
1683135175244600600,19.0366005859375,9.653244972229004,-0.7962117195129395,-0.40797626972198486
1683135175262440400,19.0544404296875,9.957731246948242,-1.1024930477142334,-0.582054078578949
1683135175280282400,19.072282470703126,9.272786140441895,-0.8015955686569214,-0.4001995921134949
1683135175298122800,19.090122802734374,9.815957069396973,-0.46061834692955017,-0.5742774605751038
1683135175315962000,19.107962158203126,9.794421195983887,-1.557727575302124,-0.41575294733047485
1683135175333799200,19.125799072265625,9.64965534210205,-0.22612173855304718,-0.42771705985069275
1683135175351640300,19.143640380859374,9.681360244750977,-1.1988041400909424,-0.5545366406440735
1683135175369484500,19.161484619140627,9.791430473327637,-0.656829833984375,-0.4265206456184387
1683135175387323000,19.179322998046874,9.553942680358887,-0.7489534616470337,-0.6227321028709412
1683135175405151700,19.19715185546875,9.775876998901367,-1.25144624710083,-0.41096729040145874
1683135175423008000,19.215008056640624,9.777671813964844,-0.5276173949241638,-0.5264210104942322
1683135175440845800,19.232845703125,9.738788604736328,-0.9158528447151184,-0.37866419553756714
1683135175458685400,19.250685546875,9.591031074523926,-1.3812568187713623,-0.7214360237121582
1683135175476515000,19.26851513671875,9.724431037902832,-0.5802595019340515,-0.2835494875907898
1683135175494366700,19.28636669921875,9.791430473327637,-1.0265209674835205,-0.7070791125297546
1683135175512208000,19.304207763671876,9.67657470703125,-0.714257538318634,-0.22193430364131927
1683135175530044400,19.32204443359375,9.516854286193848,-0.6197410821914673,-0.7280163168907166
1683135175547891500,19.339891357421877,9.89432144165039,-1.2317054271697998,-0.2153540402650833
1683135175565728300,19.357728271484376,9.659825325012207,-0.5330012440681458,-0.784247636795044
1683135175583564800,19.375564697265624,9.780064582824707,-1.179063320159912,-0.16390834748744965
1683135175601408500,19.393408447265625,9.640682220458984,-0.7250252366065979,-0.8129615187644958
1683135175619250400,19.41125048828125,9.69930648803711,-1.1694921255111694,-0.16869398951530457
1683135175637092000,19.429092041015625,9.65085220336914,-0.2027917206287384,-0.7280163168907166
1683135175654925000,19.446925048828124,9.946365356445312,-1.1497513055801392,-0.10588239878416061
1683135175672767000,19.46476708984375,9.540184020996094,-0.9266205430030823,-0.8608179688453674
1683135175690612500,19.482612548828126,9.9140625,-0.6801598072052002,-0.025722842663526535
1683135175708450600,19.500450439453125,9.854242324829102,-0.882951557636261,-0.8159525394439697
1683135175726293800,19.518293701171874,9.608379364013672,-1.576870083808899,-0.32123643159866333
1683135175744129500,19.536129638671873,9.77408218383789,-0.3361915946006775,-0.6885347366333008
1683135175761976600,19.5539765625,9.817750930786133,-1.5290136337280273,-0.3152543902397156
1683135175779813400,19.5718134765625,9.592825889587402,-0.5623133182525635,-0.727418065071106
1683135175797654300,19.589654296875,9.581459999084473,-0.8488538265228271,-0.28893333673477173
1683135175815494000,19.607493896484375,9.8871431350708,-0.9014959335327148,-0.7208378314971924
1683135175833323800,19.62532373046875,9.452845573425293,-0.7674978375434875,-0.3038884699344635
1683135175851175200,19.643175048828127,9.854242324829102,-0.5569294691085815,-0.6592226624488831
1683135175869016600,19.6610166015625,9.642477035522461,-1.3950155973434448,-0.4546363055706024
1683135175886856400,19.6788564453125,9.668798446655273,-0.16869398951530457,-0.39421752095222473
1683135175904692700,19.696692626953126,9.753145217895508,-1.0217353105545044,-0.544965386390686
1683135175922532000,19.714531982421875,9.767501831054688,-1.0450652837753296,-0.511465847492218
1683135175940382500,19.732382568359377,9.539586067199707,-0.719641387462616,-0.503689169883728
1683135175958216700,19.750216796875,9.833903312683105,-1.1407781839370728,-0.5018945336341858
1683135175976054800,19.7680546875,9.734601020812988,-0.753140926361084,-0.5455635786056519
1683135175993898500,19.7858984375,9.7005033493042,-0.8344969153404236,-0.40737804770469666
1683135176011739600,19.80373974609375,9.635298728942871,-0.7154539823532104,-0.6508477330207825
1683135176029578000,19.821577880859376,9.824331283569336,-0.7621139883995056,-0.30209386348724365
1683135176047419400,19.83941943359375,9.64367389678955,-1.2233306169509888,-0.7166503667831421
1683135176065263400,19.857263427734374,9.843474388122559,-0.43130627274513245,-0.1788634955883026
1683135176083101400,19.875101318359373,9.734601020812988,-1.0648061037063599,-0.7597211599349976
1683135176100929000,19.892928955078126,9.608977317810059,-1.3710874319076538,-0.3116651475429535
1683135176118780200,19.9107802734375,9.764511108398438,-0.48035913705825806,-0.7507480978965759
1683135176136625000,19.928625,9.908080101013184,-1.456630825996399,-0.1866401731967926
1683135176154463200,19.946463134765626,9.317052841186523,-0.6873382925987244,-0.8434699773788452
1683135176172301800,19.9643017578125,9.900303840637207,-0.7668996453285217,-0.22073788940906525
1683135176190145800,19.982145751953126,9.78245735168457,-1.1228320598602295,-0.8303094506263733
1683135176207984000,19.999984130859374,9.742975234985352,-0.6418746709823608,-0.031106693670153618
1683135176225820400,20.0178203125,9.711869239807129,-0.7680960893630981,-0.8219345808029175
1683135176243665000,20.035664794921875,9.708279609680176,-1.5720844268798828,-0.22552353143692017
1683135176261506600,20.053506591796875,9.698110580444336,-0.26500511169433594,-0.7657032608985901
1683135176279346000,20.071345947265623,9.870393753051758,-1.4422738552093506,-0.2105683982372284
1683135176297187300,20.089187255859375,9.573683738708496,-0.6675975322723389,-0.7704889178276062
1683135176315026200,20.107026123046875,9.747760772705078,-0.7956135272979736,-0.16450655460357666
1683135176332868000,20.1248681640625,9.859027862548828,-0.9212366938591003,-0.7782655358314514
1683135176350706700,20.142706787109375,9.471389770507812,-0.9110672473907471,-0.20877377688884735
1683135176368538400,20.160538330078126,9.80219841003418,-0.5665007829666138,-0.6741777658462524
1683135176386379000,20.17837890625,9.643074989318848,-1.184447169303894,-0.4169493317604065
1683135176404230000,20.19622998046875,9.725627899169922,-0.542572557926178,-0.5461617708206177
1683135176422069500,20.214069580078124,9.54796028137207,-1.1748759746551514,-0.4223332107067108
1683135176439910700,20.23191064453125,9.868598937988281,-0.5515456199645996,-0.6352944374084473
1683135176457750000,20.24975,9.614361763000488,-1.2275179624557495,-0.35473597049713135
1683135176475591700,20.267591796875,9.521040916442871,-0.37028929591178894,-0.5330012440681458
1683135176493411000,20.2854111328125,9.743574142456055,-0.9349954724311829,-0.5264210104942322
1683135176511275300,20.303275146484374,9.757930755615234,-0.8823533654212952,-0.48813581466674805
1683135176529112000,20.321112060546874,9.544371604919434,-0.5521438121795654,-0.4468596279621124
1683135176546953500,20.338953369140626,9.89551830291748,-0.9349954724311829,-0.44446679949760437
1683135176564794600,20.356794677734374,9.634101867675781,-1.2323036193847656,-0.6406782865524292
1683135176582632700,20.3746328125,9.720842361450195,-0.32183465361595154,-0.3415754437446594
1683135176600473600,20.3924736328125,9.876375198364258,-1.3519448041915894,-0.6203392744064331
1683135176618302500,20.410302490234375,9.576674461364746,-1.1030912399291992,-0.40797626972198486
1683135176636156000,20.428156005859375,9.726225852966309,-0.4995017349720001,-0.6508477330207825
1683135176653996300,20.445996337890627,9.879964828491211,-1.3657035827636719,-0.3248256742954254
1683135176671835000,20.4638349609375,9.369096755981445,-0.7728816866874695,-0.7334001660346985
1683135176689678000,20.481677978515624,9.876375198364258,-0.6999006271362305,-0.268594354391098
1683135176707516700,20.4995166015625,9.80100154876709,-1.1653046607971191,-0.7591229677200317
1683135176725358300,20.5173583984375,9.637691497802734,-0.8243274092674255,-0.12203395366668701
1683135176743197200,20.535197265625,9.783055305480957,-0.5760720372200012,-0.7549355626106262
1683135176761041200,20.553041259765624,9.827322959899902,-1.461416482925415,-0.17706887423992157
1683135176778879000,20.57087890625,9.397810935974121,-0.638883650302887,-0.8476574420928955
1683135176796720000,20.58872021484375,10.018150329589844,-1.0444670915603638,-0.1339980661869049
1683135176814559700,20.606559814453124,9.659226417541504,-0.9212366938591003,-0.8458628058433533
1683135176832389400,20.624389404296874,9.519247055053711,-0.8632107973098755,-0.17527425289154053
1683135176850240500,20.642240478515625,9.764511108398438,-0.5569294691085815,-0.8602197170257568
1683135176868070100,20.660070068359374,9.865009307861328,-1.4470595121383667,-0.1579262912273407
1683135176885921300,20.67792138671875,9.427123069763184,-0.054436713457107544,-0.6861419081687927
1683135176903762700,20.6957626953125,9.723235130310059,-1.1886346340179443,-0.25423741340637207
1683135176921602800,20.713602783203125,9.777671813964844,-0.849452018737793,-0.7549355626106262
1683135176939444200,20.7314443359375,9.562317848205566,-0.4504488706588745,-0.09451649338006973
1683135176957282600,20.749282470703125,9.934999465942383,-0.8392825126647949,-0.7393822073936462
1683135176975113200,20.76711328125,9.604191780090332,-1.495514154434204,-0.30209386348724365
1683135176992959500,20.78495947265625,9.80219841003418,-0.16390834748744965,-0.5461617708206177
1683135177010805500,20.802805419921874,9.742377281188965,-1.5002998113632202,-0.43968117237091064
1683135177028645000,20.82064501953125,9.634700775146484,-0.8057830333709717,-0.5934200286865234
1683135177046486800,20.83848681640625,9.658628463745117,-0.7339983582496643,-0.5126622319221497
1683135177064312000,20.85631201171875,9.93380355834961,-1.150349497795105,-0.5437689423561096
1683135177082167300,20.874167236328127,9.367900848388672,-0.7441678643226624,-0.44745782017707825
1683135177100007000,20.8920068359375,9.81117057800293,-0.5132604837417603,-0.550349235534668
1683135177117848600,20.9098486328125,9.775876998901367,-1.552941918373108,-0.5395814776420593
1683135177135688400,20.9276884765625,9.66819953918457,-0.35054850578308105,-0.3798605799674988
1683135177153529600,20.945529541015624,9.734002113342285,-1.179661512374878,-0.6592226624488831
1683135177171369200,20.963369140625,9.80518913269043,-0.9206385016441345,-0.3924229145050049
1683135177189206000,20.9812060546875,9.525827407836914,-0.5521438121795654,-0.6376872062683105
1683135177207051800,20.9990517578125,9.804591178894043,-1.0450652837753296,-0.3445664644241333
1683135177224894500,21.01689453125,9.644271850585938,-1.0791629552841187,-0.7124629616737366
1683135177242719700,21.0347197265625,9.78126049041748,-0.5365904569625854,-0.2027917206287384
1683135177260572700,21.05257275390625,9.810572624206543,-1.1653046607971191,-0.7872386574745178
1683135177278400300,21.070400146484374,9.504291534423828,-1.25144624710083,-0.28893333673477173
1683135177296253000,21.0882529296875,9.698110580444336,-0.4420739710330963,-0.7603194117546082
1683135177314087700,21.106087646484376,10.031908988952637,-1.389631748199463,-0.23808585107326508
1683135177331935500,21.123935546875,9.278767585754395,-0.5862415432929993,-0.8003991842269897
1683135177349762600,21.141762451171875,9.857233047485352,-0.8530412912368774,-0.18723836541175842
1683135177367615500,21.159615478515626,9.806385040283203,-1.0408778190612793,-0.8398807644844055
1683135177385454800,21.177454833984374,9.766305923461914,-0.833898663520813,-0.054436713457107544
1683135177403296300,21.195296142578126,9.707083702087402,-0.7585247755050659,-0.8219345808029175
1683135177421136000,21.213135986328126,9.818947792053223,-0.9487541913986206,-0.17347964644432068
1683135177438976300,21.230976318359374,9.65503978729248,-0.45164528489112854,-0.7322037220001221
1683135177456817200,21.248817138671875,9.760323524475098,-1.4518451690673828,-0.17766708135604858
1683135177474659300,21.266659423828123,9.793225288391113,-0.24526432156562805,-0.7076773047447205
1683135177492498000,21.284497802734375,9.794421195983887,-1.3369896411895752,-0.19202402234077454
1683135177510339300,21.30233935546875,9.550353050231934,-0.6149554252624512,-0.7896314859390259
1683135177528184800,21.320184814453125,9.600603103637695,-0.997208833694458,-0.364905446767807
1683135177546020400,21.338020263671876,9.820143699645996,-1.0217353105545044,-0.6544370055198669
1683135177563860000,21.35585986328125,9.695717811584473,-0.7908278703689575,-0.3314059376716614
1683135177581701000,21.373701171875,9.81117057800293,-0.8584251403808594,-0.6687939167022705
1683135177599540500,21.39154052734375,9.45763111114502,-0.96370929479599,-0.34217363595962524
1683135177617382700,21.409382568359376,9.783055305480957,-0.364905446767807,-0.6508477330207825
1683135177635214600,21.427214599609375,9.690333366394043,-1.404586911201477,-0.46839502453804016
1683135177653063200,21.445063232421877,9.611370086669922,-0.3314059376716614,-0.4420739710330963
1683135177670902800,21.46290283203125,9.724431037902832,-0.9541380405426025,-0.5407779216766357
1683135177688740400,21.480740234375,9.800403594970703,-1.0977073907852173,-0.49232324957847595
1683135177706588200,21.498588134765626,9.487542152404785,-0.7100701332092285,-0.5467599630355835
1683135177724425000,21.516425048828125,9.852447509765625,-1.1168500185012817,-0.486939400434494
1683135177742264800,21.534264892578125,9.824930191040039,-0.7148557901382446,-0.5162515044212341
1683135177760102400,21.552102294921873,9.619745254516602,-0.9445667266845703,-0.3936193287372589
1683135177777947100,21.569947021484374,9.558130264282227,-1.342971682548523,-0.7268198728561401
1683135177795784400,21.587784423828126,9.867402076721191,-0.589830756187439,-0.38285163044929504
1683135177813626600,21.605626708984374,9.701101303100586,-1.0217353105545044,-0.6927221417427063
1683135177831470600,21.623470703125,9.719645500183105,-0.6616154313087463,-0.22193430364131927
1683135177849308400,21.641308349609375,9.664012908935547,-0.7824530005455017,-0.7316055297851562
1683135177867137500,21.659137451171876,9.751350402832031,-1.303490161895752,-0.2590230405330658
1683135177884988700,21.67698876953125,9.731011390686035,-0.4660021960735321,-0.7651050686836243
1683135177902826200,21.694826171875,9.760921478271484,-1.461416482925415,-0.2111666053533554
1683135177920668000,21.71266796875,9.45464038848877,-0.9026923179626465,-0.8662018179893494
1683135177938513400,21.730513427734376,9.9140625,-0.8045865893363953,-0.17288143932819366
1683135177956346000,21.74834619140625,9.658628463745117,-1.00259268283844,-0.8315058946609497
1683135177974192000,21.766192138671876,9.752547264099121,-0.6705885529518127,-0.064606212079525
1683135177992024800,21.78402490234375,9.711869239807129,-0.6532405614852905,-0.8267202377319336
1683135178009871600,21.80187158203125,9.817750930786133,-1.5427724123001099,-0.19142581522464752
1683135178027714000,21.819714111328125,9.68375301361084,-0.24586252868175507,-0.7704889178276062
1683135178045551600,21.837551513671876,9.755537986755371,-1.5332010984420776,-0.2153540402650833
1683135178063395600,21.8553955078125,9.55513858795166,-0.5431707501411438,-0.7704889178276062
1683135178081236200,21.873236328125,9.65683364868164,-0.9780662655830383,-0.2027917206287384
1683135178099077400,21.891077392578126,9.982855796813965,-0.666999340057373,-0.7968099117279053
1683135178116908500,21.908908447265624,9.603593826293945,-1.2987045049667358,-0.1740778535604477
1683135178134756000,21.926756103515626,9.531210899353027,-0.32721850275993347,-0.6999006271362305
1683135178152597200,21.94459716796875,9.78126049041748,-1.0354939699172974,-0.4211367964744568
1683135178170441700,21.962441650390623,9.80100154876709,-0.8009973764419556,-0.5832505226135254
1683135178188277500,21.980277587890626,9.482157707214355,-0.5952146053314209,-0.3278166949748993
1683135178206119000,21.998118896484375,9.939187049865723,-0.7962117195129395,-0.6107679605484009
1683135178223959000,22.015958984375,9.56650447845459,-1.2370892763137817,-0.4169493317604065
1683135178241799000,22.033798828125,9.830911636352539,-0.22073788940906525,-0.48873403668403625
1683135178259640800,22.051640869140623,9.775876998901367,-1.5098711252212524,-0.47258245944976807
1683135178277480700,22.069480712890623,9.54915714263916,-0.6239284873008728,-0.5515456199645996
1683135178295321300,22.0873212890625,9.57787036895752,-0.6765705943107605,-0.6083751320838928
1683135178313159200,22.1051591796875,9.881160736083984,-1.059422254562378,-0.4205385744571686
1683135178331001300,22.12300146484375,9.468399047851562,-0.9020941257476807,-0.6275177597999573
1683135178348843500,22.140843505859376,9.781859397888184,-0.6903293132781982,-0.40259242057800293
1683135178366683400,22.158683349609376,9.853045463562012,-1.3423734903335571,-0.6586244106292725
1683135178384521000,22.17652099609375,9.662816047668457,-0.47976094484329224,-0.29371899366378784
1683135178402363600,22.19436376953125,9.753145217895508,-1.098305583000183,-0.6735795736312866
1683135178420205600,22.21220556640625,9.699904441833496,-1.0067801475524902,-0.3116651475429535
1683135178438045400,22.23004541015625,9.592825889587402,-0.4899304509162903,-0.7417750358581543
1683135178455886300,22.24788623046875,9.947562217712402,-0.900897741317749,-0.1818545162677765
1683135178473726700,22.265726806640625,9.559326171875,-0.7776673436164856,-0.7322037220001221
1683135178491566000,22.283566162109373,9.827920913696289,-1.179063320159912,-0.21595224738121033
1683135178509407700,22.30140771484375,9.850054740905762,-0.37447673082351685,-0.6975077986717224
1683135178527247000,22.3192470703125,9.903294563293457,-1.4327025413513184,-0.1818545162677765
1683135178545089000,22.337089111328126,9.368498802185059,-1.036690354347229,-0.851844847202301
1683135178562925800,22.35492578125,9.870991706848145,-0.9056833982467651,-0.1824527233839035
1683135178580771800,22.372771728515627,9.768698692321777,-0.8590233325958252,-0.8644071817398071
1683135178598595800,22.390595947265624,9.518648147583008,-0.9493523836135864,-0.15553347766399384
1683135178616453600,22.40845361328125,9.707681655883789,-0.494716078042984,-0.865005373954773
1683135178634290400,22.42629052734375,9.93679428100586,-1.4279168844223022,-0.12442677468061447
1683135178652130300,22.44413037109375,9.451051712036133,-0.13100704550743103,-0.719641387462616
1683135178669972700,22.46197265625,9.690333366394043,-1.174277663230896,-0.2829512655735016
