time,seconds_elapsed,z,y,x
1683127054408843800,0.12584375,0.048979759216308594,-2.563997745513916,0.7952565550804138
1683127054426695400,0.1436953125,0.5990085601806641,-2.4450576305389404,0.5795146226882935
1683127054444531200,0.16153125,0.13302230834960938,-2.508232831954956,0.6848458051681519
1683127054462367500,0.179367431640625,0.5068607330322266,-2.4218106269836426,0.567854642868042
1683127054480212000,0.1972119140625,0.2951679229736328,-2.390972375869751,0.6062103509902954
1683127054498048300,0.21504833984375,0.29715824127197266,-2.505157947540283,0.6850959062576294
1683127054515886800,0.232886962890625,0.42416858673095703,-2.4017200469970703,0.6126501560211182
1683127054533725000,0.250724853515625,0.2147502899169922,-2.5310733318328857,0.6875284910202026
1683127054551566300,0.26856640625,0.42988014221191406,-2.46305775642395,0.6636612415313721
1683127054569404000,0.28640380859375,0.20819377899169922,-2.4653384685516357,0.5902745723724365
1683127054587244500,0.30424462890625,0.5461091995239258,-2.428100109100342,0.5900055170059204
1683127054605081900,0.322081787109375,0.30287647247314453,-2.4465293884277344,0.5929389595985413
1683127054622926000,0.339926025390625,0.4412574768066406,-2.3618900775909424,0.6615407466888428
1683127054640759800,0.357759765625,0.28278064727783203,-2.497713565826416,0.6505706906318665
1683127054658597400,0.375597412109375,0.3179130554199219,-2.4379165172576904,0.6781481504440308
1683127054676438300,0.393438232421875,0.31975841522216797,-2.481822967529297,0.6542319059371948
1683127054694276000,0.411276123046875,0.37771034240722656,-2.4994115829467773,0.5979655385017395
1683127054712115000,0.429114990234375,0.28386688232421875,-2.463557004928589,0.6321914196014404
1683127054729942300,0.4469423828125,0.3664407730102539,-2.4632248878479004,0.6266879439353943
1683127054747793000,0.46479296875,0.4929380416870117,-2.417870044708252,0.5803853273391724
1683127054765632300,0.48263232421875,0.1946887969970703,-2.453233003616333,0.7365936040878296
1683127054783471000,0.50047119140625,0.4809713363647461,-2.431652545928955,0.5946804285049438
1683127054801296100,0.518296142578125,0.19808387756347656,-2.5272436141967773,0.6887617111206055
1683127054819148500,0.5361484375,0.5514039993286133,-2.459702968597412,0.6181982159614563
1683127054836987600,0.553987548828125,0.2776756286621094,-2.415703058242798,0.5808870792388916
1683127054854824700,0.57182470703125,0.461029052734375,-2.4204394817352295,0.6329183578491211
1683127054872666600,0.58966650390625,0.3398876190185547,-2.396390199661255,0.6106109619140625
1683127054890501400,0.60750146484375,0.31037330627441406,-2.4278204441070557,0.6449483036994934
1683127054908346000,0.62534619140625,0.46912574768066406,-2.449214220046997,0.6596022844314575
1683127054926182100,0.64318212890625,0.21906757354736328,-2.485149621963501,0.675603985786438
1683127054944021200,0.661021240234375,0.5041065216064453,-2.4197211265563965,0.607618510723114
1683127054961860000,0.678860107421875,0.2786073684692383,-2.4930474758148193,0.6087242364883423
1683127054979698700,0.69669873046875,0.3926200866699219,-2.434448003768921,0.6191418766975403
1683127054997537800,0.714537841796875,0.4389371871948242,-2.3743269443511963,0.5974975824356079
1683127055015376400,0.73237646484375,0.17908859252929688,-2.475081205368042,0.6945463418960571
1683127055033218600,0.750218505859375,0.4726696014404297,-2.47019362449646,0.6437646746635437
1683127055051051800,0.7680517578125,0.19182109832763672,-2.4928839206695557,0.6577821969985962
1683127055068896300,0.785896240234375,0.41391563415527344,-2.469200372695923,0.6763065457344055
1683127055086732000,0.80373193359375,0.29418277740478516,-2.428846597671509,0.5507863759994507
1683127055104571000,0.82157080078125,0.49736881256103516,-2.403050422668457,0.5934426784515381
1683127055122398000,0.83939794921875,0.2252655029296875,-2.4739224910736084,0.6383800506591797
1683127055140248800,0.857248779296875,0.4710712432861328,-2.3599929809570312,0.6241819858551025
1683127055158087700,0.875087646484375,0.2397441864013672,-2.5001790523529053,0.6757047772407532
1683127055175921700,0.892921630859375,0.4091787338256836,-2.391496181488037,0.6591774225234985
1683127055193765600,0.910765625,0.3141765594482422,-2.455760955810547,0.6078276634216309
1683127055211604500,0.9286044921875,0.46488189697265625,-2.431223154067993,0.5848540663719177
1683127055229443000,0.946443115234375,0.32668399810791016,-2.410102605819702,0.6464575529098511
1683127055247283000,0.964282958984375,0.3883638381958008,-2.3991777896881104,0.613501787185669
1683127055265121000,0.98212109375,0.27546215057373047,-2.427076816558838,0.6430877447128296
1683127055282960100,0.999960205078125,0.32702064514160156,-2.468258857727051,0.6537675857543945
1683127055300798200,1.017798095703125,0.28661441802978516,-2.4423141479492188,0.6434887647628784
1683127055318639000,1.03563916015625,0.2897462844848633,-2.5243353843688965,0.6820758581161499
1683127055336476400,1.053476318359375,0.35837841033935547,-2.4238243103027344,0.5964519381523132
1683127055354315300,1.071315185546875,0.3005561828613281,-2.4373650550842285,0.623583197593689
1683127055372153900,1.08915380859375,0.551274299621582,-2.3611032962799072,0.5612316727638245
1683127055389993500,1.106993408203125,0.20506763458251953,-2.4400129318237305,0.6680595874786377
1683127055407832300,1.124832275390625,0.4771280288696289,-2.3893561363220215,0.6303654909133911
1683127055425666800,1.142666748046875,0.30713462829589844,-2.4802868366241455,0.60557621717453
1683127055443510500,1.160510498046875,0.31781864166259766,-2.478419780731201,0.7022259831428528
1683127055461348600,1.1783486328125,0.43675708770751953,-2.397063732147217,0.5205804109573364
1683127055479188000,1.19618798828125,0.2581338882446289,-2.4340603351593018,0.6360957026481628
1683127055497032400,1.214032470703125,0.44988250732421875,-2.3771800994873047,0.5972139835357666
1683127055514862800,1.23186279296875,0.36090850830078125,-2.3677332401275635,0.5836535692214966
1683127055532705800,1.249705810546875,0.32362842559814453,-2.461521863937378,0.7100778818130493
1683127055550544100,1.267544189453125,0.3365163803100586,-2.423532485961914,0.6553536653518677
1683127055568383000,1.285383056640625,0.32033824920654297,-2.4437873363494873,0.6069914102554321
1683127055586218200,1.30321826171875,0.4330739974975586,-2.450212240219116,0.6234673857688904
1683127055604063000,1.32106298828125,0.26456165313720703,-2.3743250370025635,0.5738916397094727
1683127055621897700,1.338897705078125,0.5318288803100586,-2.3676390647888184,0.6186122894287109
1683127055639739100,1.3567392578125,0.1323843002319336,-2.4358913898468018,0.6629692912101746
1683127055657576200,1.374576171875,0.5048580169677734,-2.3933966159820557,0.613758385181427
1683127055675415800,1.392415771484375,0.1835336685180664,-2.459831714630127,0.6500139236450195
1683127055693252900,1.4102529296875,0.4309835433959961,-2.4238579273223877,0.637596070766449
1683127055711094800,1.4280947265625,0.2328205108642578,-2.412862777709961,0.5436533093452454
1683127055728932000,1.44593212890625,0.4134340286254883,-2.395261287689209,0.5900561809539795
1683127055746759200,1.46375927734375,0.49535179138183594,-2.3804283142089844,0.5829752087593079
1683127055764609800,1.48160986328125,0.21403217315673828,-2.3197779655456543,0.621860682964325
1683127055782436600,1.4994365234375,0.47281551361083984,-2.4303205013275146,0.645218014717102
1683127055800287700,1.517287841796875,0.1293935775756836,-2.419747829437256,0.6497247815132141
1683127055818119400,1.535119384765625,0.44695377349853516,-2.3940279483795166,0.6381174325942993
1683127055835967700,1.5529677734375,0.1592569351196289,-2.4593493938446045,0.6044559478759766
1683127055853804000,1.570803955078125,0.5167074203491211,-2.3909900188446045,0.5987072587013245
1683127055871641900,1.588641845703125,0.23296260833740234,-2.3628902435302734,0.6340404748916626
1683127055889483000,1.60648291015625,0.41366004943847656,-2.373311758041382,0.5943333506584167
1683127055907310000,1.62431005859375,0.2799520492553711,-2.3821725845336914,0.6766030192375183
1683127055925159700,1.64215966796875,0.35220909118652344,-2.418212413787842,0.5711870193481445
1683127055942997500,1.65999755859375,0.3363666534423828,-2.434803009033203,0.6710534691810608
1683127055960838400,1.67783837890625,0.3376340866088867,-2.426820993423462,0.5706794857978821
1683127055978676200,1.69567626953125,0.4092988967895508,-2.327791213989258,0.5550618767738342
1683127055996515300,1.713515380859375,0.2845802307128906,-2.3829219341278076,0.6196038722991943
1683127056014342000,1.731341796875,0.45394134521484375,-2.335029125213623,0.5873443484306335
1683127056032193000,1.749193115234375,0.3202228546142578,-2.345515251159668,0.592279851436615
1683127056050031900,1.767031982421875,0.3854827880859375,-2.399521827697754,0.6985865235328674
1683127056067865900,1.784865966796875,0.27277183532714844,-2.430525064468384,0.5956505537033081
1683127056085709800,1.802709716796875,0.40904903411865234,-2.367004632949829,0.5925383567810059
1683127056103545900,1.8205458984375,0.31050682067871094,-2.4143333435058594,0.610350489616394
1683127056121378000,1.8383779296875,0.2987966537475586,-2.3565244674682617,0.5765457153320312
1683127056139226000,1.85622607421875,0.4698972702026367,-2.319857358932495,0.6125604510307312
1683127056157065000,1.87406494140625,0.1476736068725586,-2.4009900093078613,0.6590979099273682
1683127056174900200,1.891900146484375,0.4439401626586914,-2.407443046569824,0.5945954322814941
1683127056192741600,1.90974169921875,0.20263671875,-2.416755437850952,0.6255326271057129
1683127056210581500,1.92758154296875,0.41046714782714844,-2.395955801010132,0.6246556043624878
1683127056228411100,1.9454111328125,0.19400596618652344,-2.351123571395874,0.5221155285835266
1683127056246259200,1.96325927734375,0.4980649948120117,-2.33904767036438,0.6000648736953735
1683127056264096800,1.9810966796875,0.3331594467163086,-2.3752713203430176,0.575070858001709
1683127056281938400,1.9989384765625,0.2785005569458008,-2.299997091293335,0.6409488320350647
1683127056299775500,2.016775390625,0.42271995544433594,-2.377042055130005,0.627774715423584
1683127056317614800,2.03461474609375,0.16666221618652344,-2.3628642559051514,0.6261860728263855
1683127056335453200,2.052453125,0.536865234375,-2.3781590461730957,0.5129458904266357
1683127056353292300,2.070292236328125,0.1612405776977539,-2.3668100833892822,0.6083966493606567
1683127056371132000,2.0881318359375,0.4623422622680664,-2.324193000793457,0.6063874959945679
1683127056388965600,2.105965576171875,0.17627620697021484,-2.308380126953125,0.5971763730049133
1683127056406809000,2.12380908203125,0.3863048553466797,-2.378561496734619,0.667363166809082
1683127056424647700,2.141647705078125,0.26536083221435547,-2.3584144115448,0.6439481973648071
1683127056442486800,2.15948681640625,0.2534818649291992,-2.381683826446533,0.6129745244979858
1683127056460325600,2.17732568359375,0.34009456634521484,-2.3656933307647705,0.6397974491119385
1683127056478163700,2.195163818359375,0.25516510009765625,-2.355194568634033,0.5731363296508789
1683127056496004400,2.21300439453125,0.5589447021484375,-2.2900407314300537,0.5680391192436218
1683127056513841000,2.2308408203125,0.19225788116455078,-2.288114547729492,0.5943667888641357
1683127056531682300,2.248682373046875,0.4331789016723633,-2.341182231903076,0.5901512503623962
1683127056549515800,2.266515869140625,0.19167709350585938,-2.3129351139068604,0.6108822822570801
1683127056567359000,2.28435888671875,0.42710018157958984,-2.410062074661255,0.6296747922897339
1683127056585190100,2.302190185546875,0.19858932495117188,-2.350677251815796,0.58786940574646
1683127056603039200,2.320039306640625,0.3800840377807617,-2.325368881225586,0.5715490579605103
1683127056620875000,2.337875,0.2961597442626953,-2.3184030055999756,0.5884281396865845
1683127056638713900,2.3557138671875,0.32151317596435547,-2.293276309967041,0.5613316297531128
1683127056656552700,2.373552734375,0.519963264465332,-2.261690616607666,0.5801113843917847
1683127056674384100,2.391384033203125,0.09624195098876953,-2.3661091327667236,0.6668025255203247
1683127056692231000,2.40923095703125,0.4577178955078125,-2.3299291133880615,0.6310877799987793
1683127056710069800,2.42706982421875,0.16835880279541016,-2.347411870956421,0.5650190114974976
1683127056727908000,2.444908203125,0.4577178955078125,-2.3503005504608154,0.6236297488212585
1683127056745747000,2.462746826171875,0.19179058074951172,-2.278730869293213,0.5562587976455688
1683127056763586000,2.4805859375,0.41336631774902344,-2.268228054046631,0.5722973346710205
1683127056781407000,2.498406982421875,0.14896297454833984,-2.3425345420837402,0.6670745015144348
1683127056799263700,2.516263671875,0.3964195251464844,-2.290186882019043,0.5992717146873474
1683127056817102600,2.5341025390625,0.2317514419555664,-2.3040683269500732,0.610344648361206
1683127056834938000,2.551938232421875,0.23825359344482422,-2.338862895965576,0.6315406560897827
1683127056852780300,2.5697802734375,0.5210962295532227,-2.2570483684539795,0.5119557976722717
1683127056870616000,2.587615966796875,0.1640644073486328,-2.2642669677734375,0.5803131461143494
1683127056888461000,2.6054609375,0.41643428802490234,-2.2895545959472656,0.6174921989440918
1683127056906292000,2.6232919921875,0.2022085189819336,-2.2081475257873535,0.560218870639801
1683127056924136000,2.641135986328125,0.3077554702758789,-2.3549513816833496,0.6256133317947388
1683127056941974300,2.658974365234375,0.18993473052978516,-2.3110904693603516,0.6355020999908447
1683127056959813400,2.6768134765625,0.3319091796875,-2.305673837661743,0.5475550889968872
1683127056977652200,2.69465234375,0.24785327911376953,-2.3040964603424072,0.6126192808151245
1683127056995488500,2.712488525390625,0.3239784240722656,-2.2893924713134766,0.5717072486877441
1683127057013331200,2.730331298828125,0.3042745590209961,-2.231882333755493,0.5988698601722717
1683127057031172600,2.748172607421875,0.2936582565307617,-2.2480249404907227,0.574073314666748
1683127057049007600,2.766007568359375,0.30248069763183594,-2.2687721252441406,0.6505593061447144
1683127057066846700,2.7838466796875,0.28768062591552734,-2.30722713470459,0.5341534614562988
1683127057084685300,2.801685302734375,0.3296833038330078,-2.3183157444000244,0.6488204002380371
1683127057102524000,2.81952392578125,0.3100156784057617,-2.291391372680664,0.5370369553565979
1683127057120360200,2.837360107421875,0.2718381881713867,-2.226148843765259,0.5369951725006104
1683127057138205000,2.855204833984375,0.3489036560058594,-2.254326105117798,0.5809118747711182
1683127057156035800,2.873035888671875,0.42189884185791016,-2.2132747173309326,0.5310662388801575
1683127057173879600,2.890879638671875,0.13107872009277344,-2.2466535568237305,0.6251540184020996
1683127057191703600,2.90870361328125,0.5463399887084961,-2.2766237258911133,0.5494922399520874
1683127057209560600,2.926560546875,0.07750606536865234,-2.32392954826355,0.6522982120513916
1683127057227392300,2.944392333984375,0.5129785537719727,-2.243335008621216,0.5136924982070923
1683127057245234000,2.96223388671875,0.13595962524414062,-2.2619893550872803,0.5674861073493958
1683127057263073800,2.98007373046875,0.29639339447021484,-2.255725383758545,0.6040859222412109
1683127057280911400,2.997911376953125,0.3550071716308594,-2.1844778060913086,0.5218448042869568
1683127057298752500,3.01575244140625,0.1980600357055664,-2.284637451171875,0.6413928270339966
1683127057316575700,3.03357568359375,0.3046846389770508,-2.2689454555511475,0.649523913860321
1683127057334432000,3.051431884765625,0.26534271240234375,-2.2941298484802246,0.4828425645828247
1683127057352268300,3.069268310546875,0.27742862701416016,-2.2766404151916504,0.6571279168128967
1683127057370107000,3.08710693359375,0.34601497650146484,-2.2223238945007324,0.49739769101142883
1683127057387945500,3.104945556640625,0.32650089263916016,-2.1549184322357178,0.530333399772644
1683127057405766700,3.1227666015625,0.21650028228759766,-2.2997548580169678,0.6264787912368774
1683127057423621000,3.14062109375,0.35530662536621094,-2.154715061187744,0.5561020374298096
1683127057441462500,3.158462646484375,0.1644134521484375,-2.2805373668670654,0.618144690990448
1683127057459301000,3.176301025390625,0.2998819351196289,-2.221487522125244,0.5948414206504822
1683127057477131300,3.19413134765625,0.27828121185302734,-2.2419304847717285,0.5344970226287842
1683127057494979000,3.21197900390625,0.25458335876464844,-2.2158455848693848,0.565182089805603
1683127057512817400,3.2298173828125,0.3175392150878906,-2.2046635150909424,0.5531706809997559
1683127057530656500,3.247656494140625,0.30690670013427734,-2.1610798835754395,0.577750027179718
1683127057548483300,3.2654833984375,0.20638656616210938,-2.216073751449585,0.6023216247558594
1683127057566334200,3.283334228515625,0.3148784637451172,-2.1990909576416016,0.6284420490264893
1683127057584173000,3.301173095703125,0.16152286529541016,-2.2129201889038086,0.5761935710906982
1683127057602009000,3.319009033203125,0.418487548828125,-2.2614946365356445,0.53546541929245
1683127057619839700,3.33683984375,0.20457172393798828,-2.1789584159851074,0.5759706497192383
1683127057637692200,3.354692138671875,0.35700511932373047,-2.1655759811401367,0.5414788722991943
1683127057655528400,3.372528564453125,0.20229530334472656,-2.1263699531555176,0.5299334526062012
1683127057673367000,3.390366943359375,0.35318565368652344,-2.2106449604034424,0.6381481885910034
1683127057691194400,3.4081943359375,0.21527385711669922,-2.153481960296631,0.5407244563102722
1683127057709045000,3.426044921875,0.2930879592895508,-2.2511003017425537,0.6257935762405396
1683127057726884000,3.443884033203125,0.2580108642578125,-2.197633981704712,0.5750131607055664
1683127057744722400,3.461722412109375,0.24815654754638672,-2.1678717136383057,0.49628451466560364
1683127057762558200,3.47955810546875,0.5380020141601562,-2.1456046104431152,0.5560994148254395
1683127057780403000,3.49740283203125,0.08182048797607422,-2.1523351669311523,0.5587461590766907
1683127057798232800,3.51523291015625,0.45143985748291016,-2.1471381187438965,0.5447407960891724
1683127057816079400,3.533079345703125,0.07052326202392578,-2.21968150138855,0.6074362397193909
1683127057833904400,3.550904296875,0.3184185028076172,-2.2279741764068604,0.6368781328201294
1683127057851756000,3.568756103515625,0.22872638702392578,-2.1605453491210938,0.4619665741920471
1683127057869591800,3.586591796875,0.23548030853271484,-2.230738878250122,0.6255068182945251
1683127057887433000,3.604432861328125,0.3624114990234375,-2.1331846714019775,0.5138924717903137
1683127057905275000,3.62227490234375,0.19414424896240234,-2.1015090942382812,0.5455516576766968
1683127057923109600,3.640109619140625,0.3025674819946289,-2.2066211700439453,0.6085036993026733
1683127057940950800,3.65795068359375,0.20989322662353516,-2.1455869674682617,0.54746413230896
1683127057958777000,3.675777099609375,0.3015251159667969,-2.205979108810425,0.6041846871376038
1683127057976627500,3.69362744140625,0.1845407485961914,-2.1554834842681885,0.5393846035003662
1683127057994463700,3.711463623046875,0.33399200439453125,-2.1329798698425293,0.5441992282867432
1683127058012308200,3.72930810546875,0.3030405044555664,-2.0772714614868164,0.502692461013794
1683127058030144000,3.74714404296875,0.19033336639404297,-2.1594722270965576,0.5535842180252075
1683127058047982800,3.76498291015625,0.2645111083984375,-2.08176589012146,0.5921775102615356
1683127058065821400,3.782821533203125,0.2085428237915039,-2.168447494506836,0.5764749646186829
1683127058083648500,3.8006484375,0.2099618911743164,-2.1690587997436523,0.6240118741989136
1683127058101499600,3.818499755859375,0.26776790618896484,-2.151653289794922,0.4907854497432709
1683127058119335400,3.83633544921875,0.2350759506225586,-2.189748764038086,0.5878428220748901
1683127058137180400,3.854180419921875,0.26346683502197266,-2.11944317817688,0.5145801305770874
1683127058155012400,3.872012451171875,0.2115192413330078,-2.0899720191955566,0.5393049716949463
1683127058172854800,3.889854736328125,0.34648990631103516,-2.084554672241211,0.532270073890686
1683127058190693400,3.907693359375,0.17839717864990234,-2.1344451904296875,0.6140580177307129
1683127058208518100,3.92551806640625,0.2756462097167969,-2.1398961544036865,0.4770140051841736
1683127058226372600,3.94337255859375,0.2832069396972656,-2.143141746520996,0.5812544822692871
1683127058244209200,3.961209228515625,0.2751617431640625,-2.1327216625213623,0.5244500041007996
1683127058262050300,3.97905029296875,0.19917678833007812,-2.043135643005371,0.46993401646614075
1683127058279888000,3.996887939453125,0.33796119689941406,-2.0918807983398438,0.5771563649177551
1683127058297727000,4.01472705078125,0.3213682174682617,-2.0609161853790283,0.49084627628326416
1683127058315556900,4.032556884765625,0.12137794494628906,-2.095776081085205,0.606145977973938
1683127058333404400,4.050404296875,0.43282604217529297,-2.1151599884033203,0.4780217707157135
1683127058351243000,4.068242919921875,0.022455215454101562,-2.1398565769195557,0.6218224763870239
1683127058369082000,4.08608203125,0.4213886260986328,-2.082624673843384,0.48887112736701965
1683127058386921000,4.1039208984375,0.0662546157836914,-2.0868515968322754,0.5136678814888
1683127058404759800,4.121759765625,0.3443002700805664,-2.0707778930664062,0.5766463279724121
1683127058422598700,4.1395986328125,0.27413368225097656,-1.9920475482940674,0.4788636565208435
1683127058440436500,4.1574365234375,0.1326160430908203,-2.1405093669891357,0.6224464178085327
1683127058458277400,4.17527734375,0.3609962463378906,-2.029815435409546,0.5568857192993164
1683127058476115000,4.193114990234375,0.024232864379882812,-2.1269049644470215,0.5424992442131042
1683127058493954000,4.2109541015625,0.4920053482055664,-2.0389316082000732,0.5131880640983582
1683127058511793000,4.22879296875,0.01878643035888672,-2.058621644973755,0.5248276591300964
1683127058529629200,4.246629150390625,0.4580974578857422,-1.9859089851379395,0.5065871477127075
1683127058547473400,4.264473388671875,-0.038318634033203125,-2.0872721672058105,0.5603870153427124
1683127058565304600,4.2823046875,0.4117708206176758,-2.0121829509735107,0.5718767046928406
1683127058583148300,4.300148193359375,0.09994888305664062,-2.021423578262329,0.5036572217941284
1683127058600970800,4.317970703125,0.1451282501220703,-2.1153788566589355,0.6236522197723389
1683127058618826000,4.335825927734375,0.3814277648925781,-2.0426363945007324,0.46632829308509827
1683127058636665000,4.3536650390625,0.043994903564453125,-2.090341567993164,0.5127987861633301
1683127058654500400,4.371500244140625,0.5510644912719727,-1.9674981832504272,0.5339316725730896
1683127058672345300,4.389345458984375,-0.03449535369873047,-2.0133583545684814,0.5418591499328613
1683127058690181000,4.40718115234375,0.41851043701171875,-2.030579090118408,0.5179533362388611
1683127058708020000,4.42502001953125,0.021730422973632812,-2.0769617557525635,0.5799906253814697
1683127058725847300,4.442847412109375,0.3360280990600586,-2.0515339374542236,0.5340989828109741
1683127058743698000,4.460697998046875,0.15300846099853516,-2.034214973449707,0.4814915657043457
1683127058761536800,4.478536865234375,0.29352664947509766,-2.0368666648864746,0.540870726108551
1683127058779373300,4.496373291015625,0.3105659484863281,-1.9407392740249634,0.4610528349876404
1683127058797223000,4.514222900390625,0.18172931671142578,-1.9680604934692383,0.475079745054245
1683127058815049000,4.532049072265625,0.2911558151245117,-2.0066957473754883,0.6053345203399658
1683127058832892200,4.54989208984375,0.13496112823486328,-2.0423271656036377,0.5075600743293762
1683127058850719700,4.5677197265625,0.34039974212646484,-1.9865669012069702,0.5423033237457275
1683127058868569600,4.585569580078125,0.011403083801269531,-2.0968470573425293,0.5709151029586792
1683127058886404000,4.603404052734375,0.5190620422363281,-1.9084230661392212,0.3831137418746948
1683127058904247600,4.62124755859375,0.07446956634521484,-1.9868597984313965,0.5249147415161133
1683127058922086700,4.639086669921875,0.2663888931274414,-1.9905273914337158,0.5520312786102295
1683127058939925200,4.65692529296875,0.1852712631225586,-1.9599754810333252,0.4836460053920746
1683127058957761000,4.674760986328125,0.20427989959716797,-2.040980339050293,0.5978994369506836
1683127058975588000,4.692588134765625,0.1093597412109375,-2.0211660861968994,0.5611697435379028
1683127058993442000,4.710442138671875,0.31314659118652344,-1.9759730100631714,0.4394380450248718
1683127059011279400,4.728279296875,0.19289493560791016,-1.9788591861724854,0.5197802782058716
1683127059029120500,4.74612060546875,0.23171424865722656,-1.9580824375152588,0.5077824592590332
1683127059046958000,4.7639580078125,0.29402923583984375,-1.853629469871521,0.4328687787055969
1683127059064797200,4.781797119140625,0.05780982971191406,-2.0134694576263428,0.5923359394073486
1683127059082624300,4.799624267578125,0.2614431381225586,-1.9339244365692139,0.517372190952301
1683127059100473900,4.817473876953125,0.2021007537841797,-1.9835126399993896,0.4521716237068176
1683127059118314800,4.835314697265625,0.1568164825439453,-1.9788786172866821,0.5867052674293518
1683127059136152800,4.85315283203125,0.3397102355957031,-1.9254834651947021,0.43065345287323
1683127059153980000,4.87097998046875,0.08978462219238281,-1.9082143306732178,0.5070297718048096
1683127059171830000,4.888830078125,0.32480430603027344,-1.9430105686187744,0.5066037178039551
1683127059189668900,4.9066689453125,0.0776224136352539,-1.9272934198379517,0.5051755905151367
1683127059207503000,4.924503173828125,0.24529266357421875,-1.9504525661468506,0.5610920786857605
1683127059225346800,4.942346923828125,0.07489585876464844,-2.004577159881592,0.5354768633842468
1683127059243191000,4.96019091796875,0.2506074905395508,-1.9592629671096802,0.4928266406059265
1683127059261023200,4.978023193359375,0.12871360778808594,-1.9623143672943115,0.47180384397506714
1683127059278864400,4.995864501953125,0.24961376190185547,-1.9360325336456299,0.48789072036743164
1683127059296699400,5.013699462890625,0.3917427062988281,-1.8491363525390625,0.46532273292541504
1683127059314543600,5.031543701171875,0.07329273223876953,-1.8650660514831543,0.5076423287391663
1683127059332378600,5.049378662109375,0.3605661392211914,-1.9640047550201416,0.48516395688056946
1683127059350220300,5.06722021484375,0.0015811920166015625,-1.9196815490722656,0.5212662220001221
1683127059368057600,5.0850576171875,0.39484596252441406,-1.9499307870864868,0.4944540560245514
1683127059385896200,5.102896240234375,0.017080307006835938,-1.935995101928711,0.45651036500930786
1683127059403735300,5.1207353515625,0.3807792663574219,-1.857710599899292,0.507160484790802
1683127059421575000,5.138574951171875,0.14498615264892578,-1.854202389717102,0.46267157793045044
1683127059439412200,5.156412109375,0.2086172103881836,-1.9094420671463013,0.5077030658721924
1683127059457251800,5.174251953125,0.18160247802734375,-1.8804188966751099,0.5214446783065796
1683127059475091000,5.192091064453125,0.14853763580322266,-1.9439151287078857,0.5151557922363281
1683127059492931600,5.209931640625,0.22461700439453125,-1.9288917779922485,0.5231776833534241
1683127059510768400,5.227768310546875,0.07594871520996094,-1.8976069688796997,0.4549686014652252
1683127059528602400,5.245602294921875,0.3558158874511719,-1.8882780075073242,0.4566884934902191
1683127059546445300,5.2634453125,-0.012805938720703125,-1.8966408967971802,0.49077320098876953
1683127059564286000,5.281285888671875,0.4911794662475586,-1.798844337463379,0.47888192534446716
1683127059582122800,5.299122802734375,-0.12905216217041016,-1.939155101776123,0.5461358428001404
1683127059599963600,5.316963623046875,0.42249584197998047,-1.8860604763031006,0.4568850100040436
1683127059617801200,5.33480126953125,0.02764415740966797,-1.894351601600647,0.4901689291000366
1683127059635640600,5.352640625,0.31467151641845703,-1.8645803928375244,0.4651348292827606
1683127059653476600,5.3704765625,0.03573894500732422,-1.8437144756317139,0.44559603929519653
1683127059671321000,5.388321044921875,0.30144214630126953,-1.8232046365737915,0.4737545847892761
1683127059689156600,5.406156494140625,0.21553707122802734,-1.8381810188293457,0.45895904302597046
1683127059706995500,5.423995361328125,0.022733688354492188,-1.8366056680679321,0.552738606929779
1683127059724834600,5.44183447265625,0.3524036407470703,-1.8464138507843018,0.46095189452171326
1683127059742668300,5.459668212890625,-0.10617828369140625,-1.9297536611557007,0.5302894115447998
1683127059760511700,5.47751171875,0.4375286102294922,-1.8509042263031006,0.48258036375045776
1683127059778353200,5.495353271484375,-0.06564807891845703,-1.8544483184814453,0.44702231884002686
1683127059796177400,5.513177490234375,0.39896392822265625,-1.8148348331451416,0.49934327602386475
1683127059814029000,5.531029052734375,-0.033041954040527344,-1.8037440776824951,0.4764454960823059
1683127059831868000,5.548867919921875,0.2779378890991211,-1.8150458335876465,0.501784086227417
1683127059849694700,5.56669482421875,0.08766365051269531,-1.8568671941757202,0.5080043077468872
1683127059867546000,5.584546142578125,0.23794841766357422,-1.8681602478027344,0.41264253854751587
1683127059885384400,5.602384521484375,0.2304515838623047,-1.815772533416748,0.47336524724960327
1683127059903210500,5.62021044921875,0.20441532135009766,-1.804876446723938,0.42536574602127075
1683127059921063400,5.6380634765625,0.23583507537841797,-1.7414133548736572,0.4263446033000946
1683127059938901200,5.6559013671875,0.1834278106689453,-1.798214316368103,0.45824694633483887
1683127059956737000,5.673737060546875,0.18095779418945312,-1.791750192642212,0.5064423084259033
1683127059974580000,5.691580078125,0.06823444366455078,-1.843873381614685,0.4919404685497284
1683127059992419000,5.709419189453125,0.25838375091552734,-1.8369712829589844,0.48232516646385193
1683127060010256600,5.727256591796875,0.08336353302001953,-1.8600246906280518,0.4729081392288208
1683127060028095500,5.745095458984375,0.24335575103759766,-1.718920111656189,0.3972291946411133
1683127060045922600,5.762922607421875,0.15444564819335938,-1.7612087726593018,0.4615212082862854
1683127060063773700,5.780773681640625,0.04360008239746094,-1.802866816520691,0.5007790327072144
1683127060081612000,5.798612060546875,0.2151632308959961,-1.7903637886047363,0.48795318603515625
1683127060099451000,5.816450927734375,0.11055374145507812,-1.8013590574264526,0.49401211738586426
1683127060117290000,5.8342900390625,0.04332160949707031,-1.829667091369629,0.5332019329071045
1683127060135128800,5.85212890625,0.3508176803588867,-1.7740944623947144,0.33926042914390564
1683127060152967700,5.8699677734375,0.05362129211425781,-1.7649941444396973,0.4835773706436157
1683127060170806500,5.887806640625,0.24108600616455078,-1.7582229375839233,0.45490720868110657
1683127060188642000,5.90564208984375,0.13155174255371094,-1.6438333988189697,0.37653014063835144
1683127060206487000,5.923487060546875,0.16631031036376953,-1.8385107517242432,0.551283061504364
1683127060224321800,5.94132177734375,0.06563186645507812,-1.728728175163269,0.43677014112472534
1683127060242163200,5.9591630859375,0.18962860107421875,-1.7839775085449219,0.46183863282203674
1683127060259998700,5.976998779296875,0.11741447448730469,-1.7878117561340332,0.4464782774448395
1683127060277840100,5.994840087890625,0.21042346954345703,-1.7365391254425049,0.43496936559677124
1683127060295673900,6.012673828125,0.12967491149902344,-1.7158172130584717,0.4206530451774597
1683127060313516500,6.0305166015625,0.08470821380615234,-1.7526448965072632,0.4754686951637268
1683127060331357200,6.048357177734375,0.20582962036132812,-1.734663963317871,0.4665025472640991
1683127060349195300,6.0661953125,0.08713340759277344,-1.7200415134429932,0.4471530318260193
1683127060367034400,6.084034423828125,0.09110546112060547,-1.7885794639587402,0.5444545745849609
1683127060384882400,6.10188232421875,0.16309070587158203,-1.747082233428955,0.3916386365890503
1683127060402712000,6.119712158203125,0.22532272338867188,-1.7526335716247559,0.40635809302330017
1683127060420550400,6.13755029296875,0.09631156921386719,-1.7041542530059814,0.455779492855072
1683127060438390500,6.155390625,0.2600545883178711,-1.6786079406738281,0.41390013694763184
1683127060456228600,6.173228515625,0.17981433868408203,-1.6475656032562256,0.39359092712402344
1683127060474067500,6.1910673828125,0.11108779907226562,-1.7701334953308105,0.5666294097900391
1683127060491906600,6.208906494140625,0.13634586334228516,-1.7044740915298462,0.4062322974205017
1683127060509741300,6.2267412109375,0.1472940444946289,-1.7382903099060059,0.4614367187023163
1683127060527584500,6.24458447265625,0.25154876708984375,-1.746193289756775,0.4378807544708252
1683127060545418500,6.26241845703125,0.07021617889404297,-1.6590602397918701,0.3992571234703064
1683127060563251000,6.2802509765625,0.26671409606933594,-1.6647226810455322,0.4536277949810028
1683127060581100800,6.298100830078125,0.004947662353515625,-1.7019352912902832,0.4521207809448242
1683127060598940000,6.31593994140625,0.22104549407958984,-1.7335644960403442,0.4501803517341614
1683127060616767000,6.33376708984375,0.017273902893066406,-1.7250738143920898,0.4522983133792877
1683127060634617300,6.351617431640625,0.16217041015625,-1.7580301761627197,0.504140317440033
1683127060652456700,6.369456787109375,0.040313720703125,-1.652329683303833,0.3335031569004059
1683127060670295600,6.387295654296875,0.2392721176147461,-1.70265793800354,0.4403942823410034
1683127060688134700,6.405134765625,0.19035720825195312,-1.6596367359161377,0.3903310298919678
1683127060705969700,6.4229697265625,0.10239124298095703,-1.622624158859253,0.46029922366142273
1683127060723815700,6.440815673828125,0.21439552307128906,-1.7073019742965698,0.4583304524421692
1683127060741649700,6.458649658203125,0.007117271423339844,-1.6770079135894775,0.450638085603714
1683127060759491600,6.47649169921875,0.31329917907714844,-1.6710530519485474,0.3881951868534088
1683127060777328600,6.49432861328125,-0.0163421630859375,-1.638271689414978,0.4131498336791992
1683127060795167700,6.512167724609375,0.2436370849609375,-1.639624834060669,0.4291333556175232
1683127060812996000,6.52999609375,-0.042899131774902344,-1.6014403104782104,0.4023277461528778
1683127060830848300,6.54784814453125,0.2011251449584961,-1.6928520202636719,0.49830880761146545
1683127060848684500,6.5656845703125,0.12141895294189453,-1.5910215377807617,0.4151592254638672
1683127060866518500,6.5835185546875,0.017482757568359375,-1.6723634004592896,0.4806780219078064
1683127060884362500,6.601362548828125,0.2537374496459961,-1.6917974948883057,0.4175298810005188
1683127060902201300,6.619201416015625,0.01392364501953125,-1.6468873023986816,0.43319642543792725
1683127060920040000,6.6370400390625,0.2139301300048828,-1.6379692554473877,0.423113614320755
1683127060937871400,6.654871337890625,0.01807880401611328,-1.5977104902267456,0.3778187036514282
1683127060955718000,6.6727177734375,0.2037487030029297,-1.6080023050308228,0.492118775844574
1683127060973557200,6.69055712890625,0.00021266937255859375,-1.5963021516799927,0.37909770011901855
1683127060991394300,6.708394287109375,0.19928932189941406,-1.6806085109710693,0.4524414539337158
1683127061009235700,6.726235595703125,0.13747501373291016,-1.6171162128448486,0.4176867604255676
1683127061027073500,6.744073486328125,0.15717029571533203,-1.5985634326934814,0.36138007044792175
1683127061044909300,6.761909423828125,0.20857906341552734,-1.598960041999817,0.42029869556427
1683127061062750500,6.77975048828125,0.0821695327758789,-1.5639159679412842,0.3845233917236328
1683127061080588500,6.797588623046875,0.28414440155029297,-1.5536694526672363,0.38066592812538147
1683127061098432000,6.815431884765625,-0.045745849609375,-1.6214096546173096,0.4652259349822998
1683127061116268000,6.83326806640625,0.22379589080810547,-1.6209059953689575,0.45942527055740356
1683127061134107100,6.851107177734375,-0.018507003784179688,-1.6226303577423096,0.377931147813797
1683127061151945700,6.86894580078125,0.23606014251708984,-1.6404412984848022,0.4597713351249695
1683127061169785000,6.88678515625,0.07575607299804688,-1.5282950401306152,0.32686275243759155
1683127061187616500,6.904616455078125,0.21817398071289062,-1.538922667503357,0.4069674611091614
1683127061205465600,6.922465576171875,-0.09673500061035156,-1.6000908613204956,0.4577059745788574
1683127061223301600,6.940301513671875,0.2543058395385742,-1.5616083145141602,0.43442487716674805
1683127061241134000,6.958134033203125,-0.01958751678466797,-1.5952649116516113,0.43317437171936035
1683127061258975000,6.97597509765625,0.05319976806640625,-1.6167619228363037,0.4803231954574585
1683127061276817400,6.9938173828125,0.2809934616088867,-1.5585265159606934,0.3133544325828552
1683127061294658800,7.011658935546875,0.0025472640991210938,-1.550269603729248,0.39648008346557617
1683127061312495600,7.02949560546875,0.21394920349121094,-1.5619359016418457,0.4201497435569763
1683127061330336500,7.04733642578125,0.06336688995361328,-1.4448931217193604,0.32390087842941284
1683127061348174300,7.06517431640625,0.11794471740722656,-1.6301475763320923,0.479017436504364
1683127061366013000,7.083012939453125,-0.009552001953125,-1.5334558486938477,0.3896404206752777
1683127061383850800,7.100850830078125,0.16955947875976562,-1.5702733993530273,0.43592679500579834
1683127061401692400,7.1186923828125,-0.026781082153320312,-1.5740129947662354,0.3760066032409668
1683127061419530200,7.1365302734375,0.18866539001464844,-1.545257329940796,0.39240679144859314
1683127061437368800,7.154368896484375,0.14781665802001953,-1.5016311407089233,0.3441004157066345
1683127061455208000,7.1722080078125,0.04940605163574219,-1.539491891860962,0.3952499330043793
1683127061473046500,7.190046630859375,0.17853736877441406,-1.5236176252365112,0.44275718927383423
1683127061490886000,7.207885986328125,-0.007662773132324219,-1.5230200290679932,0.4008544683456421
1683127061508719600,7.2257197265625,0.1326141357421875,-1.605411410331726,0.4738366901874542
1683127061526563800,7.243563720703125,0.08540725708007812,-1.5253710746765137,0.2866675555706024
1683127061544402700,7.261402587890625,0.17526721954345703,-1.508912205696106,0.43789440393447876
1683127061562242000,7.279241943359375,0.10726451873779297,-1.486129879951477,0.32717645168304443
1683127061580081000,7.297080810546875,0.046352386474609375,-1.4734840393066406,0.42882412672042847
1683127061597919500,7.31491943359375,0.16463756561279297,-1.4857910871505737,0.3891668915748596
1683127061615758600,7.332758544921875,0.12488746643066406,-1.4947106838226318,0.4014231264591217
1683127061633593600,7.350593505859375,-0.01639270782470703,-1.5672115087509155,0.46752268075942993
1683127061651437600,7.3684375,0.3179159164428711,-1.4435405731201172,0.3053606152534485
1683127061669275400,7.386275390625,-0.04317188262939453,-1.550410509109497,0.41880857944488525
1683127061687114500,7.404114501953125,0.2812528610229492,-1.4735933542251587,0.35268184542655945
1683127061704949800,7.42194970703125,-0.011092185974121094,-1.4474611282348633,0.38276904821395874
1683127061722790100,7.4397900390625,0.15245628356933594,-1.5144926309585571,0.42785632610321045
1683127061740633300,7.45763330078125,-0.05115985870361328,-1.5279760360717773,0.4200236201286316
1683127061758470100,7.47547021484375,0.21207046508789062,-1.5250540971755981,0.4256921708583832
1683127061776309000,7.49330908203125,-0.04870796203613281,-1.5146666765213013,0.39514395594596863
1683127061794147800,7.51114794921875,0.15501117706298828,-1.4747135639190674,0.36236372590065
1683127061811987200,7.5289873046875,0.1753101348876953,-1.4289305210113525,0.3121410310268402
1683127061829826000,7.546825927734375,-0.01743030548095703,-1.518757939338684,0.4236433506011963
1683127061847665000,7.564664794921875,0.2671632766723633,-1.3724480867385864,0.3561153709888458
1683127061865504000,7.58250390625,-0.16152095794677734,-1.5399538278579712,0.4358067214488983
1683127061883342600,7.600342529296875,0.3105173110961914,-1.4568052291870117,0.36137253046035767
1683127061901182000,7.618181884765625,-0.04022026062011719,-1.471212387084961,0.3649870753288269
1683127061919020800,7.636020751953125,0.20407390594482422,-1.467471957206726,0.3759481906890869
1683127061936859600,7.653859619140625,-0.06287384033203125,-1.419342279434204,0.33555540442466736
1683127061954698800,7.67169873046875,0.22939395904541016,-1.430112361907959,0.4038954973220825
1683127061972534800,7.68953466796875,0.06706809997558594,-1.4158645868301392,0.33171263337135315
1683127061990379800,7.7073798828125,-0.04006195068359375,-1.46123206615448,0.4892164468765259
1683127062008215600,7.725215576171875,0.205963134765625,-1.4355322122573853,0.3332616686820984
1683127062026050000,7.743050048828125,-0.1432018280029297,-1.5274324417114258,0.4424152374267578
1683127062043881700,7.7608818359375,0.3183612823486328,-1.4259573221206665,0.36485910415649414
1683127062061732600,7.778732666015625,-0.11283683776855469,-1.4243773221969604,0.34142476320266724
1683127062079568600,7.796568603515625,0.31652355194091797,-1.3845683336257935,0.3894740641117096
1683127062097413400,7.814413330078125,-0.13270950317382812,-1.4178427457809448,0.37725287675857544
1683127062115249200,7.832249267578125,0.2199840545654297,-1.425492763519287,0.36165058612823486
1683127062133085700,7.850085693359375,-0.028659820556640625,-1.4482861757278442,0.3865557312965393
1683127062150930400,7.867930419921875,0.11617755889892578,-1.4789152145385742,0.3626466393470764
1683127062168754200,7.885754150390625,0.0998687744140625,-1.3653851747512817,0.30251333117485046
1683127062186605800,7.903605712890625,0.11216354370117188,-1.4135786294937134,0.36725789308547974
1683127062204440300,7.9214404296875,0.17181777954101562,-1.3206136226654053,0.3000674247741699
1683127062222287400,7.939287353515625,0.038796424865722656,-1.3751980066299438,0.3759980797767639
1683127062240122400,7.957122314453125,0.10498046875,-1.4162324666976929,0.4151564836502075
1683127062257961500,7.97496142578125,-0.044724464416503906,-1.4470272064208984,0.39888742566108704
1683127062275796000,7.9927958984375,0.18983173370361328,-1.3637466430664062,0.3522133231163025
1683127062293639400,8.010639404296874,-0.08865737915039062,-1.4563379287719727,0.37808409333229065
1683127062311478500,8.028478515625,0.31554603576660156,-1.3344810009002686,0.28534477949142456
1683127062329314600,8.046314453125,-0.026458740234375,-1.3410093784332275,0.3635755181312561
1683127062347154400,8.064154541015625,0.07746315002441406,-1.4228609800338745,0.3961261808872223
1683127062364991700,8.08199169921875,0.0006494522094726562,-1.3471297025680542,0.34444236755371094
1683127062382834200,8.099834228515626,0.0823659896850586,-1.458825945854187,0.4375395178794861
1683127062400672300,8.11767236328125,-0.02404308319091797,-1.3780404329299927,0.3289433419704437
1683127062418505000,8.1355048828125,0.12459945678710938,-1.3824920654296875,0.3345238268375397
1683127062436351200,8.153351318359375,0.14847660064697266,-1.3015077114105225,0.2918636202812195
1683127062454187500,8.1711875,-0.017530441284179688,-1.380528450012207,0.359255850315094
1683127062472032300,8.1890322265625,0.12698078155517578,-1.2728452682495117,0.3335067927837372
1683127062489868300,8.206868408203125,0.03527069091796875,-1.4109938144683838,0.36785244941711426
1683127062507707400,8.224707275390625,0.07314872741699219,-1.3445355892181396,0.4031400680541992
1683127062525534200,8.2425341796875,0.017625808715820312,-1.3556125164031982,0.30649760365486145
1683127062543385000,8.260385009765624,0.09685993194580078,-1.3997403383255005,0.3988727331161499
1683127062561212200,8.278212158203125,0.039343833923339844,-1.3410314321517944,0.31307387351989746
1683127062579065600,8.296065673828124,0.008368492126464844,-1.338556170463562,0.34526532888412476
1683127062596895000,8.31389501953125,0.17917442321777344,-1.3172755241394043,0.3280332088470459
1683127062614744000,8.331744140625,-0.026088714599609375,-1.3337123394012451,0.40832382440567017
1683127062632580400,8.349580322265625,0.09687995910644531,-1.33970308303833,0.30922695994377136
1683127062650420200,8.367420166015625,0.02090930938720703,-1.404537320137024,0.41445982456207275
1683127062668245800,8.385245849609374,0.1625661849975586,-1.3468570709228516,0.2825239300727844
1683127062686097700,8.40309765625,0.018238067626953125,-1.2682515382766724,0.2910877466201782
1683127062703934700,8.420934814453124,0.1716451644897461,-1.294610619544983,0.3552444875240326
1683127062721776600,8.438776611328125,-0.0073871612548828125,-1.277202844619751,0.3283119201660156
1683127062739615700,8.45661572265625,0.10757255554199219,-1.3047540187835693,0.36197829246520996
1683127062757453600,8.47445361328125,0.15184497833251953,-1.302067756652832,0.34392765164375305
1683127062775286500,8.49228662109375,-0.10599994659423828,-1.392331600189209,0.42205309867858887
1683127062793131800,8.5101318359375,0.3281440734863281,-1.2613301277160645,0.23595577478408813
1683127062810970400,8.527970458984376,-0.12939834594726562,-1.3463040590286255,0.38930943608283997
1683127062828809500,8.5458095703125,0.17105865478515625,-1.2765657901763916,0.30075061321258545
1683127062846650400,8.563650390625,-0.07493209838867188,-1.239885926246643,0.31937623023986816
1683127062864486700,8.581486572265625,0.10412311553955078,-1.3575434684753418,0.43898850679397583
1683127062882326500,8.599326416015625,-0.014499664306640625,-1.2698291540145874,0.30610305070877075
1683127062900153900,8.61715380859375,-0.000904083251953125,-1.3536852598190308,0.42082884907722473
1683127062917993000,8.634992919921874,0.1182718276977539,-1.2752349376678467,0.2999427914619446
1683127062935844400,8.65284423828125,-0.008853912353515625,-1.2771960496902466,0.2950834631919861
1683127062953683000,8.670682861328125,0.3198528289794922,-1.2194949388504028,0.29263681173324585
1683127062971521800,8.688521728515624,-0.1892528533935547,-1.3077882528305054,0.358070969581604
1683127062989343700,8.70634375,0.26766204833984375,-1.1973611116409302,0.32083261013031006
1683127063007200000,8.724199951171874,-0.22916603088378906,-1.3309699296951294,0.35665634274482727
1683127063025034800,8.74203466796875,0.21979808807373047,-1.2827775478363037,0.39097583293914795
1683127063042877200,8.759877197265626,-0.12266349792480469,-1.2760180234909058,0.24687941372394562
1683127063060718300,8.77771826171875,0.10265636444091797,-1.304364562034607,0.3705804646015167
1683127063078556700,8.795556640625,0.1908245086669922,-1.1977028846740723,0.26007044315338135
1683127063096395500,8.8133955078125,-0.06374454498291016,-1.2389322519302368,0.3675730228424072
1683127063114234400,8.831234375,0.1462841033935547,-1.262170672416687,0.31271523237228394
1683127063132073500,8.849073486328125,-0.1602163314819336,-1.2795401811599731,0.3851204514503479
1683127063149900500,8.866900634765624,0.16817474365234375,-1.2735573053359985,0.324019193649292
1683127063167751700,8.884751708984375,-0.17365074157714844,-1.3061460256576538,0.32760217785835266
1683127063185578800,8.902578857421876,0.21319866180419922,-1.2491731643676758,0.3547063171863556
1683127063203430000,8.920429931640625,-0.12369632720947266,-1.2249054908752441,0.24836821854114532
1683127063221268700,8.938268798828124,0.24033164978027344,-1.2058136463165283,0.31536388397216797
1683127063239106800,8.95610693359375,0.10791778564453125,-1.2109642028808594,0.28874266147613525
1683127063256948000,8.973947998046874,-0.042016029357910156,-1.204542875289917,0.36401042342185974
1683127063274785800,8.991785888671876,0.2230968475341797,-1.2849328517913818,0.28644031286239624
1683127063292622000,9.0096220703125,-0.1473255157470703,-1.2651816606521606,0.361873984336853
1683127063310466600,9.027466552734374,0.25216102600097656,-1.1996902227401733,0.2799602746963501
1683127063328303900,9.045303955078126,-0.1750965118408203,-1.218788743019104,0.2870504856109619
1683127063346133200,9.06313330078125,0.2537679672241211,-1.1857417821884155,0.35223865509033203
1683127063363980300,9.080980224609375,-0.04304695129394531,-1.1566784381866455,0.24493408203125
1683127063381821200,9.0988212890625,0.07347965240478516,-1.2697490453720093,0.4289652705192566
1683127063399659500,9.116659423828125,0.012767791748046875,-1.2419185638427734,0.3371519148349762
1683127063417498600,9.13449853515625,0.05386924743652344,-1.220320463180542,0.2915356159210205
1683127063435337700,9.152337646484375,-0.004546165466308594,-1.2188432216644287,0.3511470854282379
1683127063453176800,9.1701767578125,0.025547027587890625,-1.1842941045761108,0.27133116126060486
1683127063471015700,9.188015625,0.2587432861328125,-1.129427194595337,0.2758461833000183
1683127063488855000,9.20585498046875,-0.19079875946044922,-1.2425612211227417,0.345271497964859
1683127063506694100,9.223694091796874,0.15950965881347656,-1.158492088317871,0.3560362458229065
1683127063524534000,9.241533935546874,-0.07933616638183594,-1.2592931985855103,0.30834293365478516
1683127063542371000,9.25937109375,0.0929574966430664,-1.2026729583740234,0.35351938009262085
1683127063560193000,9.277193115234375,-0.012322425842285156,-1.1849308013916016,0.2632054090499878
1683127063578050000,9.295050048828125,0.07811927795410156,-1.1475430727005005,0.2875998020172119
1683127063595890000,9.312889892578125,0.01451873779296875,-1.1912646293640137,0.3192978501319885
1683127063613725000,9.330724853515624,0.09672737121582031,-1.0866082906723022,0.28002044558525085
1683127063631571000,9.348571044921876,-0.04446220397949219,-1.2060273885726929,0.3493114113807678
1683127063649406500,9.366406494140625,0.031792640686035156,-1.2031943798065186,0.3680018186569214
1683127063667245600,9.38424560546875,0.03814125061035156,-1.1773535013198853,0.21148589253425598
1683127063685080000,9.402080078125,-0.018828392028808594,-1.2195168733596802,0.39247918128967285
1683127063702923800,9.419923828125,0.1211385726928711,-1.1417651176452637,0.2424572855234146
1683127063720762600,9.4377626953125,-0.07243156433105469,-1.1186370849609375,0.3141748011112213
1683127063738602200,9.455602294921874,0.13824748992919922,-1.1325455904006958,0.3016462028026581
1683127063756441000,9.473441162109374,-0.03029632568359375,-1.1565756797790527,0.31109052896499634
1683127063774261800,9.49126171875,0.06369400024414062,-1.1608905792236328,0.3213344216346741
1683127063792119800,9.509119873046876,0.03396797180175781,-1.1975328922271729,0.3150220513343811
1683127063809958400,9.52695849609375,0.055466651916503906,-1.1700949668884277,0.303615540266037
1683127063827797200,9.54479736328125,0.06547355651855469,-1.0827301740646362,0.20868077874183655
1683127063845633500,9.562633544921875,0.17554759979248047,-1.1256451606750488,0.3009282946586609
1683127063863475700,9.580475830078125,0.003971099853515625,-1.1070196628570557,0.2930828928947449
1683127063881296100,9.598296142578125,0.06746101379394531,-1.1009607315063477,0.28619664907455444
1683127063899154000,9.61615380859375,-0.01595592498779297,-1.1671268939971924,0.34342414140701294
1683127063916982500,9.633982421875,0.005480766296386719,-1.201887607574463,0.3530122637748718
1683127063934832000,9.65183203125,-0.037011146545410156,-1.1072052717208862,0.2051496058702469
1683127063952671700,9.669671630859375,0.06811332702636719,-1.1596375703811646,0.3538045883178711
1683127063970509300,9.68750927734375,0.13289165496826172,-1.080249547958374,0.19200700521469116
1683127063988350700,9.705350830078125,0.008887290954589844,-1.0644824504852295,0.32847607135772705
1683127064006174200,9.72317431640625,0.026906967163085938,-1.145031213760376,0.3102608919143677
1683127064024016400,9.741016357421875,-0.005658149719238281,-1.1205896139144897,0.3183148503303528
1683127064041867300,9.7588671875,0.029067039489746094,-1.1754233837127686,0.2739177346229553
1683127064059708700,9.776708740234374,-0.0077686309814453125,-1.0882306098937988,0.26291850209236145
1683127064077545200,9.794545166015626,0.058185577392578125,-1.1111645698547363,0.2829647362232208
1683127064095372300,9.812372314453125,-0.0073070526123046875,-1.0344171524047852,0.20002466440200806
1683127064113223200,9.83022314453125,0.0747385025024414,-1.138973355293274,0.33836033940315247
1683127064131061000,9.84806103515625,0.08605003356933594,-1.0094459056854248,0.2280541956424713
1683127064148902700,9.865902587890625,-0.043267250061035156,-1.096655011177063,0.3571750521659851
1683127064166740500,9.883740478515625,0.014941215515136719,-1.1258505582809448,0.30697178840637207
1683127064184579600,9.90157958984375,0.09871387481689453,-1.0854934453964233,0.19957636296749115
1683127064202418700,9.919418701171875,-0.020208358764648438,-1.123848557472229,0.31582701206207275
1683127064220257800,9.9372578125,0.042372703552246094,-1.0510199069976807,0.2665115296840668
1683127064238097400,9.955097412109374,-0.0065860748291015625,-1.043407678604126,0.28979578614234924
1683127064255936000,9.97293603515625,0.08586978912353516,-1.0521230697631836,0.29391562938690186
1683127064273775400,9.990775390625,-0.0908060073852539,-1.1279594898223877,0.36481761932373047
1683127064291614700,10.00861474609375,0.10110759735107422,-1.076925277709961,0.2645425498485565
1683127064309453800,10.026453857421876,-0.07622432708740234,-1.0897704362869263,0.29680103063583374
1683127064327288000,10.0442880859375,0.1230010986328125,-1.0863548517227173,0.27898621559143066
1683127064345131800,10.0621318359375,0.08585262298583984,-1.0000554323196411,0.16476359963417053
1683127064362971100,10.07997119140625,0.0898284912109375,-1.026911973953247,0.29718104004859924
1683127064380809200,10.097809326171875,0.06112957000732422,-1.0324000120162964,0.27480340003967285
1683127064398651000,10.11565087890625,0.0008554458618164062,-1.0496432781219482,0.27534380555152893
1683127064416488400,10.133488525390625,0.031818389892578125,-1.1161768436431885,0.3419134020805359
1683127064434330600,10.15133056640625,-0.02347278594970703,-1.0997686386108398,0.28180307149887085
1683127064452166000,10.169165771484375,0.07569503784179688,-0.9836491346359253,0.19062258303165436
1683127064470007300,10.18700732421875,0.11651134490966797,-1.0246946811676025,0.2948400378227234
1683127064487845000,10.20484521484375,-0.08917808532714844,-1.0444269180297852,0.28507837653160095
1683127064505684000,10.22268408203125,0.09073162078857422,-1.003443717956543,0.24900129437446594
1683127064523523600,10.240523681640624,-0.17469215393066406,-1.108554482460022,0.34179720282554626
1683127064541359600,10.258359619140625,0.13129615783691406,-1.0863964557647705,0.3346286416053772
1683127064559204600,10.27620458984375,-0.09231185913085938,-1.0390992164611816,0.18482500314712524
1683127064577034200,10.2940341796875,0.10103130340576172,-1.064285397529602,0.32397159934043884
1683127064594887700,10.3118876953125,0.017345428466796875,-1.0082985162734985,0.21473893523216248
1683127064612714800,10.32971484375,0.10904693603515625,-0.9276694655418396,0.2526898682117462
1683127064630562000,10.34756201171875,-0.06304454803466797,-1.0796608924865723,0.27890872955322266
1683127064648393700,10.365393798828125,0.041953086853027344,-0.9932507276535034,0.2776055932044983
1683127064666236400,10.383236328125,-0.02927112579345703,-1.0905742645263672,0.27561765909194946
1683127064684075800,10.40107568359375,-0.05692005157470703,-1.0262231826782227,0.2643691301345825
1683127064701913600,10.41891357421875,0.1390371322631836,-1.0196484327316284,0.25386807322502136
1683127064719747800,10.436747802734375,-0.11020278930664062,-0.9890725612640381,0.2336811125278473
1683127064737593000,10.454593017578125,0.1877431869506836,-0.9975522756576538,0.27489596605300903
1683127064755432400,10.472432373046875,-0.0015773773193359375,-0.9540019035339355,0.23389923572540283
1683127064773270500,10.4902705078125,-0.012331962585449219,-1.011549711227417,0.333526074886322
1683127064791111700,10.508111572265625,0.031195640563964844,-1.0635228157043457,0.23368486762046814
1683127064808950000,10.525949951171874,-0.032329559326171875,-1.001094937324524,0.28848084807395935
1683127064826789000,10.5437890625,0.03180217742919922,-1.0454511642456055,0.2642095685005188
1683127064844628200,10.561628173828124,-0.062003135681152344,-0.9805562496185303,0.22400110960006714
1683127064862467000,10.579467041015626,0.12578201293945312,-0.9710304141044617,0.28718301653862
1683127064880306700,10.597306640625,-0.01692962646484375,-0.9123237729072571,0.18580374121665955
1683127064898145500,10.6151455078125,0.06884384155273438,-1.0174431800842285,0.35543906688690186
1683127064915985000,10.63298486328125,-0.010336875915527344,-0.9384297132492065,0.23988822102546692
1683127064933823700,10.65082373046875,0.06109142303466797,-1.0182077884674072,0.2768288254737854
1683127064951663000,10.6686630859375,0.09490585327148438,-1.003580927848816,0.23258620500564575
1683127064969502500,10.68650244140625,0.019748687744140625,-0.9151121377944946,0.2163299322128296
1683127064987341300,10.70434130859375,0.1006927490234375,-0.936974287033081,0.2462051510810852
1683127065005180400,10.722180419921875,-0.09482765197753906,-0.9513184428215027,0.2477390319108963
1683127065023018200,10.740018310546875,0.14761638641357422,-0.9769808053970337,0.3094581365585327
1683127065040861700,10.75786181640625,-0.13858604431152344,-0.9948817491531372,0.25394031405448914
1683127065058697000,10.775697021484374,0.0853261947631836,-1.0395722389221191,0.33059433102607727
1683127065076537000,10.793537109375,-0.03187370300292969,-0.9715182781219482,0.1590171456336975
1683127065094375400,10.81137548828125,0.11942577362060547,-0.9744297862052917,0.2729804813861847
1683127065112217000,10.829217041015625,-0.13944149017333984,-0.9524388313293457,0.2278643548488617
1683127065130054700,10.8470546875,0.08560657501220703,-0.9058437347412109,0.28824734687805176
1683127065147893800,10.864893798828126,-0.07935237884521484,-1.0281031131744385,0.28362345695495605
1683127065165734100,10.882734130859374,0.10308074951171875,-0.9077342748641968,0.25853657722473145
1683127065183572000,10.900572021484376,-0.05587291717529297,-0.9789422750473022,0.28168028593063354
1683127065201399800,10.91839990234375,0.12569904327392578,-0.9318112134933472,0.19283467531204224
1683127065219254800,10.9362548828125,-0.013013839721679688,-0.9322679042816162,0.24802398681640625
1683127065237089800,10.95408984375,0.10494709014892578,-0.8994587659835815,0.19745787978172302
1683127065254925300,10.97192529296875,-0.048736572265625,-0.946009635925293,0.2727760672569275
1683127065272769300,10.989769287109375,0.06395339965820312,-0.9011513590812683,0.27542632818222046
1683127065290602500,11.0076025390625,-0.05340766906738281,-0.9373729228973389,0.24389396607875824
1683127065308450300,11.0254501953125,-0.08082962036132812,-1.0210492610931396,0.3456742465496063
1683127065326285800,11.043285888671875,0.14411258697509766,-0.9122312664985657,0.14527423679828644
1683127065344124000,11.0611240234375,-0.11961650848388672,-0.9425263404846191,0.3029480576515198
1683127065361965300,11.07896533203125,0.1418323516845703,-0.8935155272483826,0.21482348442077637
1683127065379803100,11.09680322265625,-0.14872074127197266,-0.8789718151092529,0.2543031573295593
1683127065397642500,11.114642578125,0.08139324188232422,-0.911136269569397,0.28801000118255615
1683127065415474200,11.13247412109375,-0.046782493591308594,-0.9412968158721924,0.24698489904403687
1683127065433323800,11.15032373046875,0.047873497009277344,-0.9670909643173218,0.2568190395832062
1683127065451160000,11.16816015625,0.014443397521972656,-0.9266278743743896,0.21435502171516418
1683127065468999200,11.185999267578126,0.10676383972167969,-0.9226323366165161,0.22499626874923706
1683127065486838300,11.20383837890625,-0.035831451416015625,-0.8651177883148193,0.16842180490493774
1683127065504677600,11.221677734375,0.14145946502685547,-0.8843576908111572,0.24210116267204285
1683127065522516700,11.239516845703125,-0.003757476806640625,-0.8852704167366028,0.228642076253891
1683127065540355800,11.25735595703125,-0.03324699401855469,-0.9460105895996094,0.2786407172679901
1683127065558195500,11.275195556640625,0.09107494354248047,-0.9217934608459473,0.2143615186214447
1683127065576033500,11.293033447265625,-0.06865596771240234,-0.968771755695343,0.2779560089111328
1683127065593874200,11.310874267578125,0.08785533905029297,-0.8477262258529663,0.16174434125423431
1683127065611712800,11.328712646484375,0.00009441375732421875,-0.8795022368431091,0.26205936074256897
1683127065629551600,11.346551513671875,-0.0025653839111328125,-0.9118192791938782,0.20981818437576294
1683127065647376100,11.364376220703125,-0.009385108947753906,-0.8528928756713867,0.25468742847442627
1683127065665225500,11.3822255859375,-0.008736610412597656,-0.9676064252853394,0.28960052132606506
1683127065683069200,11.400069091796874,-0.07227325439453125,-0.8867853283882141,0.2361767590045929
1683127065700908500,11.417908447265624,0.021520614624023438,-0.9277068376541138,0.1992640197277069
1683127065718752800,11.435752685546875,0.029081344604492188,-0.840700626373291,0.17561423778533936
1683127065736582400,11.45358251953125,0.0078029632568359375,-0.8704081773757935,0.23779895901679993
1683127065754425900,11.47142578125,0.013309478759765625,-0.7794505953788757,0.18584853410720825
1683127065772265700,11.489265625,0.04060554504394531,-0.9353170990943909,0.27417755126953125
1683127065790104800,11.507104736328126,0.05858421325683594,-0.8107264637947083,0.2153288573026657
1683127065807943700,11.524943603515625,-0.10997200012207031,-0.889548659324646,0.28804221749305725
1683127065825783600,11.542783447265625,0.1267528533935547,-0.8826518058776855,0.18679724633693695
1683127065843622400,11.560622314453125,-0.06636714935302734,-0.8639471530914307,0.2352026253938675
1683127065861460200,11.578460205078125,0.049254417419433594,-0.8720712065696716,0.20147791504859924
1683127065879302000,11.596302001953125,-0.05704784393310547,-0.8204470276832581,0.18836601078510284
1683127065897140000,11.614139892578125,0.057023048400878906,-0.849639356136322,0.3046906590461731
1683127065914973200,11.63197314453125,-0.08897972106933594,-0.8394700288772583,0.19544075429439545
1683127065932820200,11.6498203125,0.013262748718261719,-0.9357520341873169,0.3335381746292114
1683127065950657300,11.6676572265625,-0.011518478393554688,-0.828524649143219,0.1696532666683197
1683127065968492000,11.685491943359375,-0.017681121826171875,-0.8726907968521118,0.25805091857910156
1683127065986335200,11.703335205078124,0.1312112808227539,-0.8173314332962036,0.15968921780586243
1683127066004175000,11.721175048828124,0.014970779418945312,-0.797594428062439,0.207746684551239
1683127066022014000,11.739013916015624,0.0030765533447265625,-0.788438618183136,0.22364532947540283
1683127066039853300,11.756853271484376,0.07483196258544922,-0.8469754457473755,0.23074306547641754
1683127066057688000,11.77468798828125,-0.009716033935546875,-0.860982358455658,0.2537180185317993
1683127066075532000,11.792531982421876,0.028669357299804688,-0.8527859449386597,0.1785101294517517
1683127066093371100,11.81037109375,0.030600547790527344,-0.8904508948326111,0.23694434762001038
1683127066111209200,11.828209228515625,-0.01889514923095703,-0.7881920337677002,0.1609295904636383
1683127066129038600,11.84603857421875,-0.01412200927734375,-0.7945988774299622,0.2130773514509201
1683127066146888700,11.863888671875,-0.0061740875244140625,-0.8483161330223083,0.22464832663536072
1683127066164727800,11.881727783203125,0.025869369506835938,-0.8188567161560059,0.24321816861629486
1683127066182556200,11.89955615234375,-0.08127021789550781,-0.8847220540046692,0.23841692507266998
1683127066200407800,11.91740771484375,-0.05383491516113281,-0.8834130764007568,0.2919769585132599
1683127066218242000,11.935241943359374,0.07156944274902344,-0.8074016571044922,0.13316522538661957
1683127066236084700,11.953084716796875,0.03551483154296875,-0.7991626262664795,0.15905897319316864
1683127066253923800,11.970923828125,-0.08520030975341797,-0.8471031188964844,0.25677490234375
1683127066271763500,11.988763427734375,0.13024044036865234,-0.7291808128356934,0.16161414980888367
1683127066289602300,12.006602294921874,-0.11900520324707031,-0.8739936351776123,0.26911354064941406
1683127066307437300,12.024437255859375,0.0927896499633789,-0.7711875438690186,0.22862915694713593
1683127066325280500,12.042280517578124,-0.12131404876708984,-0.8455134630203247,0.20717215538024902
1683127066343105300,12.060105224609375,0.10781288146972656,-0.8265125751495361,0.19468295574188232
1683127066360962300,12.07796240234375,-0.02900218963623047,-0.7974386215209961,0.183854877948761
1683127066378792700,12.095792724609375,0.03076171875,-0.7713247537612915,0.2153436243534088
1683127066396636200,12.11363623046875,0.00028228759765625,-0.7925536632537842,0.1978379786014557
1683127066414476800,12.131476806640626,0.033455848693847656,-0.7832133173942566,0.2561567723751068
1683127066432318000,12.14931787109375,-0.1288900375366211,-0.7995079755783081,0.24037979543209076
1683127066450156500,12.167156494140626,0.019295692443847656,-0.8585675358772278,0.25376394391059875
1683127066467994600,12.18499462890625,-0.019289016723632812,-0.8088667392730713,0.1750132292509079
1683127066485833700,12.202833740234375,0.09816169738769531,-0.7940773963928223,0.17716844379901886
1683127066503671600,12.220671630859375,-0.04104137420654297,-0.7371460795402527,0.20830899477005005
1683127066521513700,12.238513671875,0.05128669738769531,-0.7624880075454712,0.21292351186275482
1683127066539351800,12.256351806640625,-0.09119510650634766,-0.7355954647064209,0.17534074187278748
1683127066557190400,12.2741904296875,0.12068653106689453,-0.842449963092804,0.29571661353111267
1683127066575026400,12.2920263671875,-0.2073373794555664,-0.7915505766868591,0.17040875554084778
1683127066592869600,12.30986962890625,0.1626148223876953,-0.7969464063644409,0.23171153664588928
1683127066610708500,12.32770849609375,-0.035277366638183594,-0.8017789125442505,0.142751082777977
1683127066628543000,12.34554296875,0.09473991394042969,-0.7263568639755249,0.16747650504112244
1683127066646378200,12.363378173828124,0.09882450103759766,-0.7238160967826843,0.16784608364105225
1683127066664226000,12.38122607421875,-0.09035205841064453,-0.8061866760253906,0.2553258538246155
1683127066682064400,12.399064453125,0.08007335662841797,-0.7948427200317383,0.23130841553211212
1683127066699904500,12.416904541015626,-0.11699676513671875,-0.8151823282241821,0.2069598138332367
1683127066717746200,12.43474609375,0.04000091552734375,-0.8467434644699097,0.25852370262145996
1683127066735583000,12.4525830078125,-0.09717178344726562,-0.7439145445823669,0.12004997581243515
1683127066753421000,12.470421142578125,0.1402139663696289,-0.7460237741470337,0.21474722027778625
1683127066771262500,12.488262451171876,-0.15502166748046875,-0.7598572969436646,0.20234791934490204
1683127066789088800,12.5060888671875,0.21096038818359375,-0.7083050012588501,0.2115858793258667
1683127066806940000,12.52393994140625,-0.21473217010498047,-0.818678617477417,0.2487456351518631
1683127066824777000,12.54177685546875,0.12868309020996094,-0.7772797346115112,0.17658399045467377
1683127066842618000,12.5596181640625,-0.0896615982055664,-0.7708039283752441,0.20228567719459534
1683127066860460800,12.577460693359376,0.08938312530517578,-0.7419853210449219,0.16482391953468323
1683127066878297300,12.59529736328125,-0.15267658233642578,-0.7447592616081238,0.16851837933063507
1683127066896126500,12.61312646484375,0.16017913818359375,-0.6970446109771729,0.18849468231201172
1683127066913975000,12.63097509765625,-0.027034759521484375,-0.744641125202179,0.16119377315044403
1683127066931814700,12.648814697265625,-0.10568046569824219,-0.7436789870262146,0.3050563335418701
1683127066949653800,12.66665380859375,0.08307361602783203,-0.748437225818634,0.14439450204372406
1683127066967493000,12.6844931640625,-0.19945335388183594,-0.8287935256958008,0.2589941918849945
1683127066985332200,12.702332275390624,0.10796546936035156,-0.7635818719863892,0.19303324818611145
1683127067003171600,12.720171630859374,-0.13021087646484375,-0.7416365742683411,0.1348925232887268
1683127067021010400,12.738010498046876,0.22945499420166016,-0.6786090135574341,0.20889760553836823
1683127067038850300,12.755850341796876,-0.2173938751220703,-0.7122275233268738,0.2181168645620346
1683127067056689000,12.77368896484375,0.054538726806640625,-0.7367381453514099,0.22323743999004364
1683127067074527500,12.791527587890625,-0.03477001190185547,-0.780097246170044,0.20446287095546722
1683127067092369200,12.809369140625,0.026699066162109375,-0.7621574401855469,0.21434876322746277
1683127067110207000,12.82720703125,-0.02514171600341797,-0.6996936798095703,0.13233903050422668
1683127067128046000,12.845046142578125,0.14438343048095703,-0.7190449237823486,0.16977521777153015
1683127067145875000,12.862875,0.05357170104980469,-0.664705753326416,0.14039845764636993
1683127067163724800,12.880724853515625,-0.0007791519165039062,-0.6963906288146973,0.2305298149585724
1683127067181564000,12.89856396484375,-0.0031042098999023438,-0.7429559826850891,0.17397981882095337
1683127067199400200,12.916400146484374,-0.13966655731201172,-0.7810949087142944,0.2885844111442566
1683127067217230600,12.934230712890624,0.13871097564697266,-0.7253169417381287,0.13918322324752808
1683127067235081700,12.952081787109375,-0.12797260284423828,-0.7355836033821106,0.2022821605205536
1683127067252912600,12.96991259765625,0.07153606414794922,-0.6773580312728882,0.15440064668655396
1683127067270760200,12.98776025390625,-0.041230201721191406,-0.6674569249153137,0.16156861186027527
1683127067288599600,13.005599609375,-0.017172813415527344,-0.7551788091659546,0.25485047698020935
1683127067306438700,13.023438720703124,0.06757640838623047,-0.6471244096755981,0.15586407482624054
1683127067324278300,13.0412783203125,-0.1696462631225586,-0.7747339010238647,0.26113373041152954
1683127067342115800,13.05911572265625,0.13650226593017578,-0.7171155214309692,0.1362728625535965
1683127067359957800,13.076957763671874,-0.13606929779052734,-0.7029235363006592,0.1811532974243164
1683127067377794800,13.094794921875,0.14151573181152344,-0.6674286127090454,0.13506971299648285
1683127067395630800,13.112630859375,-0.20914173126220703,-0.6916940212249756,0.184769406914711
1683127067413470700,13.130470703125,0.19856834411621094,-0.6152709722518921,0.18238911032676697
1683127067431316200,13.148316162109374,-0.14013957977294922,-0.6901618242263794,0.15565982460975647
1683127067449152800,13.16615283203125,-0.04717826843261719,-0.7201460599899292,0.28945639729499817
1683127067466987300,13.1839873046875,0.0896139144897461,-0.6584875583648682,0.09117840230464935
1683127067484831200,13.201831298828125,-0.1246337890625,-0.7244394421577454,0.24324655532836914
1683127067502670300,13.21967041015625,0.10671424865722656,-0.665328323841095,0.1711639016866684
1683127067520508700,13.2375087890625,-0.16870403289794922,-0.6615733504295349,0.16888755559921265
1683127067538349800,13.255349853515625,0.11774921417236328,-0.6802063584327698,0.20921680331230164
1683127067556188200,13.273188232421875,-0.203094482421875,-0.7068564891815186,0.1980471909046173
1683127067574012200,13.29101220703125,0.1289205551147461,-0.7077460289001465,0.23405024409294128
1683127067591867100,13.3088671875,-0.16384315490722656,-0.6962082386016846,0.18038956820964813
1683127067609706500,13.32670654296875,0.09638118743896484,-0.711281955242157,0.2077409029006958
1683127067627545000,13.344545166015624,0.12347793579101562,-0.6190198659896851,0.06444460153579712
1683127067645385000,13.362385009765624,-0.02045154571533203,-0.6387313008308411,0.2127697765827179
1683127067663223800,13.380223876953124,0.057654380798339844,-0.6328751444816589,0.14239531755447388
1683127067681051600,13.3980517578125,-0.08068180084228516,-0.6425653100013733,0.16096922755241394
1683127067698902300,13.41590234375,0.12377548217773438,-0.7174574136734009,0.2414170205593109
1683127067716738000,13.433738037109375,-0.21206283569335938,-0.7220404148101807,0.17410670220851898
1683127067734580000,13.451580078125,0.1850118637084961,-0.652428388595581,0.17417658865451813
1683127067752420400,13.46942041015625,-0.19013404846191406,-0.7041826248168945,0.1374139040708542
1683127067770259200,13.48725927734375,0.09910202026367188,-0.6545923948287964,0.16521258652210236
1683127067788094000,13.505093994140625,0.11106109619140625,-0.5951704978942871,0.10424366593360901
1683127067805938000,13.52293798828125,-0.19230079650878906,-0.7044512033462524,0.26391223073005676
1683127067823777300,13.54077734375,0.11417484283447266,-0.6803894639015198,0.1499338448047638
1683127067841615600,13.55861572265625,-0.1662578582763672,-0.7074562311172485,0.1981549859046936
1683127067859456800,13.576456787109375,0.09296321868896484,-0.6961591839790344,0.20158527791500092
1683127067877294800,13.594294921875,-0.18726062774658203,-0.6366918683052063,0.05772705003619194
1683127067895130600,13.612130615234374,0.22253894805908203,-0.6150120496749878,0.18669478595256805
1683127067912973800,13.629973876953125,-0.10718059539794922,-0.656749427318573,0.10578214377164841
1683127067930812700,13.647812744140625,0.05798912048339844,-0.577065110206604,0.2349461317062378
1683127067948651800,13.66565185546875,-0.057686805725097656,-0.6801477074623108,0.11713134497404099
1683127067966491600,13.68349169921875,-0.03442096710205078,-0.6508462429046631,0.2329835742712021
1683127067984330500,13.70133056640625,0.03542900085449219,-0.6517599821090698,0.14686021208763123
1683127068002169900,13.719169921875,-0.14043140411376953,-0.6385728120803833,0.1289415806531906
1683127068020005400,13.73700537109375,0.11505985260009766,-0.6262540817260742,0.20114430785179138
1683127068037843700,13.75484375,-0.1986083984375,-0.6142170429229736,0.1548984944820404
1683127068055687700,13.772687744140624,0.15159988403320312,-0.6481325626373291,0.22206701338291168
1683127068073527000,13.790527099609376,-0.15492820739746094,-0.6292359828948975,0.17846284806728363
1683127068091372300,13.808372314453125,0.007030487060546875,-0.6368624567985535,0.2256217896938324
1683127068109205800,13.826205810546876,0.006153106689453125,-0.6799032688140869,0.11252139508724213
1683127068127045000,13.844045166015626,0.010534286499023438,-0.6185257434844971,0.20078366994857788
1683127068144881200,13.861881103515625,0.01758575439453125,-0.597687304019928,0.10989333689212799
1683127068162722000,13.87972216796875,-0.04541301727294922,-0.5708534717559814,0.13428857922554016
1683127068180563200,13.897563232421875,0.08815574645996094,-0.6296451091766357,0.23418018221855164
1683127068198403000,13.915403076171875,-0.12362957000732422,-0.569092869758606,0.124210424721241
1683127068216241200,13.9332412109375,0.09332942962646484,-0.6811684966087341,0.26573383808135986
1683127068234080500,13.95108056640625,-0.15607357025146484,-0.6479081511497498,0.14164325594902039
1683127068251919600,13.968919677734375,0.09953498840332031,-0.6001896858215332,0.13223281502723694
1683127068269759200,13.98675927734375,0.09296131134033203,-0.596572756767273,0.1177317276597023
1683127068287598300,14.004598388671875,-0.078826904296875,-0.5868499279022217,0.1880694478750229
1683127068305437700,14.022437744140625,0.07682037353515625,-0.571163535118103,0.13245585560798645
1683127068323277000,14.040277099609375,-0.17056560516357422,-0.6684834957122803,0.21662649512290955
1683127068341113600,14.058113525390626,0.06864738464355469,-0.6695404052734375,0.23976650834083557
1683127068358953700,14.07595361328125,-0.14391326904296875,-0.5958506464958191,0.08791059255599976
1683127068376794600,14.093794677734374,0.059055328369140625,-0.6813998222351074,0.25455063581466675
1683127068394634500,14.111634521484374,-0.08984756469726562,-0.5857243537902832,0.05760636925697327
1683127068412473600,14.1294736328125,0.12372207641601562,-0.569482684135437,0.17204894125461578
1683127068430312700,14.147312744140624,-0.17661571502685547,-0.653062105178833,0.19640949368476868
1683127068448151800,14.16515185546875,0.11075592041015625,-0.5643917322158813,0.16661439836025238
1683127068465991000,14.182990966796876,-0.10407352447509766,-0.6288967728614807,0.1727631390094757
1683127068483829500,14.20082958984375,-0.039073944091796875,-0.6204047799110413,0.20030415058135986
1683127068501659100,14.2186591796875,0.05155658721923828,-0.6068668365478516,0.0760635957121849
1683127068519497500,14.23649755859375,-0.03852558135986328,-0.5924484729766846,0.13882850110530853
1683127068537348400,14.254348388671875,0.18529129028320312,-0.5486429929733276,0.13376516103744507
1683127068555188200,14.272188232421875,-0.1808633804321289,-0.5403403043746948,0.18274159729480743
1683127068573027000,14.290027099609375,0.07505130767822266,-0.6240280270576477,0.1837509423494339
1683127068590865700,14.30786572265625,-0.23793411254882812,-0.6407979726791382,0.18967530131340027
1683127068608706000,14.3257060546875,0.08679866790771484,-0.6309655904769897,0.19328734278678894
1683127068626545200,14.343545166015625,-0.15656661987304688,-0.6313086748123169,0.08912145346403122
1683127068644384300,14.36138427734375,0.10407733917236328,-0.573941707611084,0.22257286310195923
1683127068662223600,14.3792236328125,-0.1054544448852539,-0.5465320348739624,0.09020592272281647
1683127068680062700,14.397062744140625,0.02727222442626953,-0.5398672819137573,0.1636526882648468
1683127068697902000,14.414902099609375,0.007697105407714844,-0.6065436601638794,0.19760723412036896
1683127068715740400,14.432740478515624,-0.047461509704589844,-0.5368618369102478,0.1423957198858261
1683127068733581800,14.450581787109375,-0.010558128356933594,-0.628585934638977,0.21533165872097015
1683127068751420200,14.468420166015624,0.038074493408203125,-0.5983445644378662,0.10743357241153717
1683127068769259300,14.48625927734375,0.014675140380859375,-0.5208423137664795,0.10481248050928116
1683127068787098400,14.504098388671874,0.006772041320800781,-0.5560475587844849,0.1572638899087906
1683127068804934700,14.5219345703125,0.042266845703125,-0.5398236513137817,0.10786978900432587
1683127068822777000,14.539777099609376,0.01793384552001953,-0.5619139075279236,0.1484026312828064
1683127068840616400,14.557616455078126,-0.12323665618896484,-0.6123337149620056,0.20806938409805298
1683127068858455800,14.575455810546876,0.005301475524902344,-0.6339919567108154,0.1890953779220581
1683127068876295400,14.59329541015625,-0.1125802993774414,-0.5337977409362793,0.08603168278932571
1683127068894134300,14.61113427734375,0.07688236236572266,-0.5942593812942505,0.18843083083629608
1683127068911973400,14.628973388671875,-0.08747005462646484,-0.5246468782424927,0.08756658434867859
1683127068929812700,14.646812744140625,0.10148429870605469,-0.5139140486717224,0.1684783399105072
1683127068947652000,14.664652099609375,-0.24484825134277344,-0.6173815131187439,0.21508093178272247
1683127068965491700,14.68249169921875,0.16246700286865234,-0.5463602542877197,0.17430609464645386
1683127068983330800,14.700330810546875,-0.1742420196533203,-0.5661033987998962,0.1314934939146042
1683127069001164800,14.718164794921876,0.026849746704101562,-0.5856528282165527,0.18155816197395325
1683127069018995500,14.735995361328126,0.1046142578125,-0.5071332454681396,0.04088066518306732
1683127069036846000,14.75384619140625,-0.05787467956542969,-0.5048463344573975,0.16408684849739075
1683127069054691000,14.771691162109375,0.02227783203125,-0.5626243352890015,0.1439066231250763
1683127069072527600,14.789527587890625,-0.13846778869628906,-0.4898097813129425,0.15719641745090485
1683127069090367000,14.807366943359375,0.026022911071777344,-0.6161937713623047,0.1492844820022583
1683127069108205800,14.825205810546874,-0.2308969497680664,-0.6075650453567505,0.20185448229312897
1683127069126040800,14.843040771484375,0.10745525360107422,-0.5820404887199402,0.14975333213806152
1683127069143885000,14.860885009765624,-0.21727657318115234,-0.5578085780143738,0.0993361547589302
1683127069161724400,14.878724365234374,0.11458683013916016,-0.5483571290969849,0.2000030279159546
1683127069179562500,14.8965625,-0.10947322845458984,-0.5106047987937927,0.07427240163087845
1683127069197400800,14.91440087890625,0.101409912109375,-0.5047351121902466,0.1525803506374359
1683127069215242000,14.932241943359376,-0.11939239501953125,-0.5764670968055725,0.2074718475341797
1683127069233084400,14.95008447265625,0.024816513061523438,-0.5644009113311768,0.13877776265144348
1683127069250919400,14.96791943359375,-0.02349567413330078,-0.5541821122169495,0.09529180824756622
1683127069268749300,14.985749267578125,0.02341461181640625,-0.5655648112297058,0.1719014048576355
1683127069286599200,15.00359912109375,0.0755472183227539,-0.45441314578056335,0.025325272232294083
1683127069304438500,15.0214384765625,-0.06642723083496094,-0.4972594678401947,0.15513582527637482
1683127069322278100,15.039278076171875,-0.013043403625488281,-0.5471888780593872,0.18806672096252441
1683127069340117200,15.0571171875,-0.028116226196289062,-0.5271359086036682,0.1219840943813324
1683127069357956900,15.074956787109375,0.008988380432128906,-0.5506702065467834,0.14896579086780548
1683127069375796000,15.0927958984375,-0.07151317596435547,-0.5805147290229797,0.21128277480602264
1683127069393635000,15.110635009765625,0.06568241119384766,-0.4981629550457001,0.03116947039961815
1683127069411462700,15.128462646484374,-0.09970474243164062,-0.5208377838134766,0.1560066193342209
1683127069429313500,15.1463134765625,0.03716850280761719,-0.5310825705528259,0.14202438294887543
1683127069447142100,15.16414208984375,0.04774284362792969,-0.4486963450908661,0.0885591059923172
1683127069464988700,15.18198876953125,-0.12357807159423828,-0.5809835195541382,0.20619861781597137
1683127069482836500,15.19983642578125,-0.04028034210205078,-0.5548798441886902,0.16393481194972992
1683127069500670000,15.217669921875,-0.037964820861816406,-0.5539876222610474,0.1229182630777359
1683127069518511400,15.235511474609375,-0.00243377685546875,-0.5024202466011047,0.07607749104499817
1683127069536349700,15.253349609375,-0.05201530456542969,-0.5100451707839966,0.14205050468444824
1683127069554177300,15.27117724609375,0.10355567932128906,-0.4269239008426666,0.0791640654206276
1683127069572027400,15.28902734375,-0.15414714813232422,-0.5366376042366028,0.18231262266635895
1683127069589869300,15.306869384765625,0.028524398803710938,-0.4780215620994568,0.13613958656787872
1683127069607707000,15.324706787109376,-0.13472461700439453,-0.5315878391265869,0.16300435364246368
1683127069625546200,15.342546142578126,-0.03557395935058594,-0.583362877368927,0.17590637505054474
1683127069643385900,15.3603857421875,-0.06844615936279297,-0.5044193267822266,0.09479904174804688
1683127069661225200,15.37822509765625,-0.06123828887939453,-0.5438201427459717,0.1595122218132019
1683127069679061200,15.396061279296875,0.033939361572265625,-0.4651062488555908,0.06616517901420593
1683127069696907500,15.413907470703125,-0.06370735168457031,-0.4861707389354706,0.1750456988811493
1683127069714743000,15.431742919921875,-0.0039958953857421875,-0.4769725203514099,0.13208991289138794
1683127069732579800,15.449579833984375,-0.041975975036621094,-0.5475200414657593,0.18921783566474915
1683127069750423300,15.46742333984375,-0.032726287841796875,-0.49174267053604126,0.1269465684890747
1683127069768255700,15.485255859375,-0.033782958984375,-0.5161008834838867,0.12054452300071716
1683127069786100000,15.503099853515625,0.08451271057128906,-0.4965670704841614,0.07347679138183594
1683127069803937300,15.520937255859375,-0.018709182739257812,-0.44685977697372437,0.09723718464374542
1683127069821780200,15.5387802734375,0.1454763412475586,-0.42690449953079224,0.08943410217761993
1683127069839619300,15.556619384765625,-0.11770057678222656,-0.4950059652328491,0.17109042406082153
1683127069857458000,15.5744580078125,0.04746246337890625,-0.5273096561431885,0.15576867759227753
1683127069875297000,15.592297119140625,-0.08347320556640625,-0.5190165042877197,0.11237610131502151
1683127069893135400,15.61013525390625,-0.012196540832519531,-0.5374557375907898,0.1834982931613922
1683127069910976500,15.6279765625,-0.0321044921875,-0.44135525822639465,0.008261408656835556
1683127069928815000,15.645815185546875,0.11648750305175781,-0.4484407901763916,0.1472877860069275
1683127069946635500,15.663635498046874,-0.1801128387451172,-0.5015174746513367,0.135396346449852
1683127069964493800,15.681493896484374,0.10164833068847656,-0.4566107988357544,0.1522808074951172
1683127069982325500,15.699325439453125,-0.19782447814941406,-0.5505929589271545,0.13131174445152283
1683127070000160500,15.717160400390625,0.011486053466796875,-0.5467372536659241,0.17852310836315155
1683127070018007300,15.73500732421875,-0.0630807876586914,-0.47518396377563477,0.06771743297576904
1683127070035851300,15.752851318359374,0.040496826171875,-0.450454980134964,0.08843015134334564
1683127070053690400,15.7706904296875,-0.080596923828125,-0.4743914306163788,0.1503925323486328
1683127070071530000,15.788530029296876,0.10692882537841797,-0.3757437467575073,0.07624945044517517
1683127070089369000,15.806369140625,-0.08854007720947266,-0.5143876075744629,0.12406489253044128
1683127070107208700,15.824208740234376,-0.08375930786132812,-0.4753108024597168,0.1876327246427536
1683127070125043200,15.842043212890625,-0.017371177673339844,-0.4665208160877228,0.1355055272579193
1683127070142885400,15.859885498046875,-0.15248966217041016,-0.506892740726471,0.12184976041316986
1683127070160729900,15.877729736328124,0.14071369171142578,-0.47584670782089233,0.08253411948680878
1683127070178560300,15.895560302734374,-0.19086170196533203,-0.4499630033969879,0.11301852762699127
1683127070196409300,15.913409423828124,0.13422107696533203,-0.4466630220413208,0.115150086581707
1683127070214248400,15.93124853515625,-0.11584091186523438,-0.4521041214466095,0.11010947823524475
1683127070232082200,15.949082275390625,0.0016870498657226562,-0.4616464078426361,0.2063564509153366
1683127070249926000,15.96692578125,-0.11186599731445312,-0.5171712040901184,0.11487779021263123
1683127070267762400,15.984762451171875,0.028436660766601562,-0.4914926290512085,0.13055625557899475
1683127070285590000,16.002590087890624,0.06681251525878906,-0.4361218512058258,0.041840896010398865
1683127070303441000,16.02044091796875,-0.01803874969482422,-0.407431036233902,0.13536939024925232
1683127070321279500,16.038279541015626,0.023151397705078125,-0.4105420410633087,0.09908270090818405
1683127070339119600,16.05611962890625,-0.11480712890625,-0.40581414103507996,0.10288098454475403
1683127070356956400,16.073956298828126,0.14387035369873047,-0.5016071200370789,0.19899170100688934
1683127070374801400,16.091801513671875,-0.2008495330810547,-0.4755922555923462,0.09098780155181885
1683127070392638200,16.10963818359375,0.12915611267089844,-0.4527026414871216,0.14031599462032318
1683127070410463500,16.12746337890625,-0.0894155502319336,-0.49913346767425537,0.07079045474529266
1683127070428307700,16.1453076171875,0.004750251770019531,-0.42187783122062683,0.08527857065200806
1683127070446155800,16.16315576171875,0.06449508666992188,-0.397960364818573,0.08444654196500778
1683127070463994400,16.180994384765626,-0.19021892547607422,-0.47854089736938477,0.1674543023109436
1683127070481836000,16.1988359375,0.09714221954345703,-0.4609706699848175,0.12201247364282608
1683127070499673900,16.216673828125,-0.20395851135253906,-0.5220913887023926,0.10163109004497528
1683127070517513500,16.234513427734374,0.055049896240234375,-0.4850423336029053,0.1853971779346466
1683127070535346400,16.252346435546876,-0.10445880889892578,-0.42697176337242126,0.003838527947664261
1683127070553194000,16.270194091796874,0.02665424346923828,-0.4264659285545349,0.10830533504486084
1683127070571031300,16.28803125,-0.08862686157226562,-0.47227776050567627,0.09629278630018234
1683127070588871000,16.305870849609374,0.1248941421508789,-0.3355100452899933,0.08168473839759827
1683127070606710500,16.32371044921875,-0.15565776824951172,-0.49500641226768494,0.17291030287742615
1683127070624549400,16.34154931640625,0.05802631378173828,-0.4325302243232727,0.11193066835403442
1683127070642386200,16.35938623046875,-0.055812835693359375,-0.4608883559703827,0.10447721183300018
1683127070660231200,16.377231201171874,-0.10815906524658203,-0.46810615062713623,0.10663454234600067
1683127070678067700,16.395067626953125,0.06859016418457031,-0.4254608154296875,0.09723662585020065
1683127070695907000,16.412906982421877,0.051926612854003906,-0.3886684775352478,0.08239670097827911
1683127070713746200,16.43074609375,-0.07762336730957031,-0.43730682134628296,0.16738195717334747
1683127070731585800,16.448585693359377,-0.052847862243652344,-0.45228883624076843,0.11838275194168091
1683127070749425000,16.4664248046875,-0.09561443328857422,-0.436771035194397,0.13820196688175201
1683127070767264300,16.48426416015625,-0.055169105529785156,-0.5366266965866089,0.17363694310188293
1683127070785099000,16.50209912109375,-0.0996694564819336,-0.4306827187538147,0.035224173218011856
1683127070802943200,16.519943115234376,0.02303028106689453,-0.4543723464012146,0.14588934183120728
1683127070820782300,16.5377822265625,0.11221790313720703,-0.36344730854034424,0.006284371018409729
1683127070838622200,16.555622314453124,-0.10337257385253906,-0.42501214146614075,0.18675687909126282
1683127070856456200,16.573456298828123,0.0846109390258789,-0.36385244131088257,0.06326433271169662
1683127070874300700,16.59130078125,-0.08985137939453125,-0.48358818888664246,0.16301050782203674
1683127070892140300,16.609140380859376,0.011073112487792969,-0.486367404460907,0.08562879264354706
1683127070909979400,16.6269794921875,-0.029550552368164062,-0.38814568519592285,0.07572747021913528
1683127070927818800,16.64481884765625,0.00565338134765625,-0.43359023332595825,0.1266954094171524
1683127070945658000,16.662658203125,-0.16222095489501953,-0.38626816868782043,0.07520287483930588
1683127070963498000,16.680498046875,0.13167476654052734,-0.3966657817363739,0.14100199937820435
1683127070981335800,16.698335693359375,-0.11714839935302734,-0.4187335669994354,0.104228176176548
1683127070999177500,16.716177490234376,-0.0777578353881836,-0.46326902508735657,0.21958419680595398
1683127071017008000,16.734008056640626,0.060156822204589844,-0.42191800475120544,0.009593851864337921
1683127071034855200,16.751855224609375,-0.0984954833984375,-0.4781739115715027,0.20164936780929565
1683127071052694500,16.769694580078124,0.004837989807128906,-0.39511823654174805,0.02287614345550537
1683127071070532600,16.78753271484375,-0.008084297180175781,-0.35725656151771545,0.06781928241252899
1683127071088362500,16.805362548828125,-0.035564422607421875,-0.4697052240371704,0.1895723044872284
1683127071106207700,16.823207763671874,-0.045159339904785156,-0.3516262173652649,0.06875532865524292
1683127071124051700,16.8410517578125,-0.038077354431152344,-0.4762316644191742,0.16467607021331787
1683127071141891300,16.858891357421875,-0.1105489730834961,-0.4560658633708954,0.1157950907945633
1683127071159730400,16.87673046875,0.06716060638427734,-0.41654080152511597,0.0901142805814743
1683127071177562000,16.89456201171875,-0.10395240783691406,-0.3826872706413269,0.04494703561067581
1683127071195400700,16.912400634765625,0.011400222778320312,-0.40133535861968994,0.1327534317970276
1683127071213249000,16.9302490234375,-0.039371490478515625,-0.3617786765098572,0.05987642705440521
1683127071231086800,16.9480869140625,-0.05821800231933594,-0.41536015272140503,0.1529751718044281
1683127071248916700,16.965916748046876,-0.1130075454711914,-0.4424271285533905,0.16950500011444092
1683127071266766600,16.9837666015625,-0.033733367919921875,-0.41845935583114624,0.09353261440992355
1683127071284606200,17.001606201171874,-0.1530609130859375,-0.5013442635536194,0.16201189160346985
1683127071302444300,17.0194443359375,0.13456153869628906,-0.3880154490470886,0.050606854259967804
1683127071320286000,17.037285888671875,-0.15347862243652344,-0.3897830843925476,0.10427539795637131
1683127071338124300,17.055124267578126,0.12025070190429688,-0.3447328507900238,0.07602433115243912
1683127071355964000,17.0729638671875,-0.1283588409423828,-0.3896361291408539,0.106631800532341
1683127071373803000,17.090802978515626,-0.05698871612548828,-0.4025266766548157,0.15645566582679749
1683127071391643000,17.108642822265626,0.05072498321533203,-0.41511839628219604,0.08066729456186295
1683127071409481500,17.1264814453125,-0.1440105438232422,-0.43132367730140686,0.12133430689573288
1683127071427316700,17.144316650390625,0.11010551452636719,-0.3488306403160095,0.048749007284641266
1683127071445161000,17.162160888671874,0.08035850524902344,-0.36234742403030396,0.05056379735469818
1683127071462999800,17.179999755859374,-0.061682701110839844,-0.3609278202056885,0.12639600038528442
1683127071480839700,17.197839599609374,0.0625905990600586,-0.3688450753688812,0.06447538733482361
1683127071498674200,17.215674072265625,-0.13308429718017578,-0.4298631548881531,0.15780743956565857
1683127071516518100,17.23351806640625,-0.02828693389892578,-0.44960230588912964,0.12140835076570511
1683127071534357500,17.251357421875,-0.07401084899902344,-0.39286184310913086,0.06335435062646866
1683127071552195600,17.269195556640625,-0.007899284362792969,-0.4257667660713196,0.1397310346364975
1683127071570037200,17.287037353515625,-0.20454692840576172,-0.3531433343887329,0.03765784949064255
1683127071587875600,17.30487548828125,0.17081356048583984,-0.3535388708114624,0.1129172295331955
1683127071605715000,17.32271484375,-0.14498043060302734,-0.39362645149230957,0.08713533729314804
1683127071623541200,17.340541259765626,0.02454662322998047,-0.36632320284843445,0.16032302379608154
1683127071641383700,17.3583837890625,-0.02086353302001953,-0.40430453419685364,0.05094842612743378
1683127071659233300,17.3762333984375,-0.05150604248046875,-0.41575151681900024,0.11613749712705612
1683127071677072600,17.39407275390625,-0.017122268676757812,-0.3640502095222473,0.08140996843576431
1683127071694908400,17.411908447265624,0.005789756774902344,-0.33822691440582275,0.027163535356521606
1683127071712751600,17.429751708984377,-0.14967918395996094,-0.4000087082386017,0.15953989326953888
1683127071730589700,17.447589599609376,0.07310009002685547,-0.2979329824447632,0.05045972764492035
1683127071748426500,17.465426513671876,-0.10132122039794922,-0.3924357295036316,0.12015405297279358
1683127071766269700,17.483269775390625,-0.08754158020019531,-0.4240607023239136,0.1456107199192047
1683127071784108800,17.50110888671875,-0.06014251708984375,-0.3963300585746765,0.09538733214139938
1683127071801945900,17.51894580078125,-0.07235336303710938,-0.42566508054733276,0.10333899408578873
1683127071819787500,17.53678759765625,0.08342361450195312,-0.3590458035469055,0.06670419871807098
1683127071837627100,17.554627197265624,-0.17813968658447266,-0.35079872608184814,0.14789576828479767
1683127071855466500,17.572466552734376,0.11855792999267578,-0.32940685749053955,0.04811149090528488
1683127071873304800,17.590304931640624,-0.1408395767211914,-0.38210538029670715,0.1518833041191101
1683127071891146200,17.608146240234376,0.05705738067626953,-0.38907361030578613,0.08031828701496124
1683127071908984600,17.625984619140624,-0.09270477294921875,-0.3884316086769104,0.09985720366239548
1683127071926824200,17.64382421875,0.04407978057861328,-0.4049217998981476,0.08931141346693039
1683127071944660700,17.66166064453125,-0.053600311279296875,-0.2930825352668762,0.017381034791469574
1683127071962506000,17.679506103515624,0.11162757873535156,-0.332269549369812,0.11708506941795349
1683127071980342000,17.697342041015624,-0.1170358657836914,-0.3259156346321106,0.07082721590995789
1683127071998182000,17.715181884765624,0.048107147216796875,-0.35450416803359985,0.1208408921957016
1683127072016021200,17.733021240234375,-0.07463645935058594,-0.38837701082229614,0.09670063853263855
1683127072033860400,17.7508603515625,-0.07415103912353516,-0.43671715259552,0.17886978387832642
1683127072051699700,17.76869970703125,0.023675918579101562,-0.3348235487937927,-0.015000537037849426
1683127072069539600,17.78653955078125,-0.10587596893310547,-0.3714045286178589,0.13386166095733643
1683127072087378700,17.804378662109375,0.007039070129394531,-0.32890087366104126,0.06285817176103592
1683127072105218000,17.822218017578123,0.08148860931396484,-0.2789663076400757,0.05570691078901291
1683127072123057700,17.8400576171875,-0.16762161254882812,-0.40360385179519653,0.15216973423957825
1683127072140897000,17.85789697265625,-0.01854991912841797,-0.3751489520072937,0.11999353766441345
1683127072158736600,17.875736572265627,-0.05024433135986328,-0.4058484435081482,0.08097917586565018
1683127072176576000,17.893575927734375,-0.07397270202636719,-0.33174434304237366,0.07222473621368408
1683127072194413800,17.911413818359375,-0.03277873992919922,-0.3679494857788086,0.07890165597200394
1683127072212255700,17.929255859375,0.14188861846923828,-0.25846290588378906,-0.020581915974617004
1683127072230093800,17.94709375,-0.06643199920654297,-0.3752228617668152,0.14241370558738708
1683127072247933200,17.96493310546875,-0.0003719329833984375,-0.27142855525016785,0.09533998370170593
1683127072265769200,17.982769287109374,-0.06661128997802734,-0.3512679934501648,0.08062756806612015
1683127072283599400,18.000599365234375,-0.14739036560058594,-0.3776337206363678,0.1484728753566742
1683127072301451800,18.01845166015625,0.056878089904785156,-0.32553407549858093,0.04654364287853241
1683127072319293700,18.036293701171875,-0.15437793731689453,-0.38591325283050537,0.07385630905628204
1683127072337130200,18.054130126953126,0.18538761138916016,-0.31374508142471313,0.10082488507032394
1683127072354966000,18.071966064453125,-0.19563961029052734,-0.3077293932437897,0.08452679961919785
1683127072372809200,18.089809326171874,0.09066581726074219,-0.33873510360717773,0.08988956362009048
1683127072390646000,18.10764599609375,-0.24242115020751953,-0.4076920747756958,0.15851739048957825
1683127072408490800,18.12549072265625,0.12978744506835938,-0.34608954191207886,0.07919987291097641
1683127072426327300,18.143327392578126,-0.19487380981445312,-0.3582044243812561,0.07460716366767883
1683127072444167000,18.1611669921875,0.11257362365722656,-0.33769482374191284,0.10590054094791412
1683127072462006500,18.179006591796874,-0.15789222717285156,-0.3091993033885956,0.025019913911819458
1683127072479843800,18.19684375,0.1608591079711914,-0.2983909249305725,0.08686521649360657
1683127072497674800,18.2146748046875,-0.01639842987060547,-0.31170228123664856,0.05695469677448273
1683127072515517700,18.232517578125,-0.09365272521972656,-0.334648460149765,0.154911071062088
1683127072533366300,18.2503662109375,0.09589290618896484,-0.3418181538581848,0.042802974581718445
1683127072551203000,18.268203125,-0.1564960479736328,-0.39723384380340576,0.1475771963596344
1683127072569042700,18.286042724609374,0.09941673278808594,-0.28943225741386414,-0.00870804488658905
1683127072586877200,18.303877197265624,-0.09932899475097656,-0.3041943907737732,0.06752809137105942
1683127072604718300,18.32171826171875,0.014759063720703125,-0.34038999676704407,0.1253649890422821
1683127072622563600,18.3395634765625,-0.10885047912597656,-0.2983737289905548,0.0506695881485939
1683127072640400100,18.357400146484373,-0.00852203369140625,-0.40567612648010254,0.15217581391334534
1683127072658239500,18.375239501953125,-0.14830589294433594,-0.3625352382659912,0.1408313512802124
1683127072676079400,18.393079345703125,0.04941558837890625,-0.3251892328262329,0.044614844024181366
1683127072693918700,18.410918701171877,0.0016622543334960938,-0.3320077061653137,0.024579517543315887
1683127072711758000,18.428758056640625,-0.064239501953125,-0.31638485193252563,0.12390448898077011
1683127072729597400,18.446597412109377,0.060649871826171875,-0.23883390426635742,0.019714146852493286
1683127072747424800,18.4644248046875,-0.13358497619628906,-0.37413039803504944,0.13445377349853516
1683127072765276400,18.4822763671875,0.07391738891601562,-0.2725888192653656,0.08728158473968506
1683127072783106300,18.500106201171874,-0.19727516174316406,-0.36933016777038574,0.11712194234132767
1683127072800955400,18.517955322265625,0.04526805877685547,-0.35143691301345825,0.052121587097644806
1683127072818794200,18.535794189453124,-0.041749000549316406,-0.308511883020401,0.08331049978733063
1683127072836630800,18.553630859375,0.008172035217285156,-0.2989185154438019,0.05211547762155533
1683127072854471700,18.5714716796875,-0.08774089813232422,-0.29092633724212646,0.07305099815130234
1683127072872312800,18.589312744140624,0.0075531005859375,-0.3127152621746063,0.11505135893821716
1683127072890152200,18.607152099609376,-0.020035743713378906,-0.28000959753990173,0.05313779413700104
1683127072907987000,18.624987060546875,-0.1851940155029297,-0.39975547790527344,0.21551308035850525
1683127072925830700,18.64283056640625,0.10614395141601562,-0.3152272701263428,0.0007711499929428101
1683127072943670500,18.66067041015625,-0.16158008575439453,-0.3663955330848694,0.09135322272777557
1683127072961507300,18.67850732421875,0.08347129821777344,-0.29143163561820984,0.08630775660276413
1683127072979349500,18.696349609375,-0.1109609603881836,-0.26933977007865906,0.017662622034549713
1683127072997191700,18.714191650390624,-0.01746082305908203,-0.2694550156593323,0.11830700933933258
1683127073015021300,18.732021240234374,-0.0009069442749023438,-0.33708280324935913,0.09039716422557831
1683127073032870100,18.7498701171875,-0.06460952758789062,-0.28090983629226685,0.09492028504610062
1683127073050707000,18.76770703125,-0.014498710632324219,-0.3556220829486847,0.12866255640983582
1683127073068546300,18.78554638671875,0.0048351287841796875,-0.3441699743270874,0.0349118635058403
1683127073086385400,18.803385498046875,0.0008106231689453125,-0.2787509262561798,0.052039675414562225
1683127073104225000,18.82122509765625,0.12329769134521484,-0.2808544337749481,0.04604974389076233
1683127073122065000,18.83906494140625,-0.13791275024414062,-0.29030323028564453,0.08679352700710297
1683127073139904000,18.856904052734375,0.04787158966064453,-0.3202188014984131,0.07761222869157791
1683127073157738800,18.87473876953125,-0.14241409301757812,-0.3583481013774872,0.09732922166585922
1683127073175583000,18.8925830078125,-0.0049610137939453125,-0.37898433208465576,0.15401244163513184
1683127073193422800,18.9104228515625,-0.16642284393310547,-0.2798307538032532,-0.030792832374572754
1683127073211261400,18.928261474609375,0.09989070892333984,-0.3464473783969879,0.11888252198696136
1683127073229101300,18.946101318359375,-0.05614471435546875,-0.2912999391555786,-0.0003347322344779968
1683127073246940400,18.9639404296875,0.03335857391357422,-0.2577841281890869,0.12263204157352448
1683127073264780300,18.9817802734375,-0.07831001281738281,-0.3571016192436218,0.08636949956417084
1683127073282613500,18.999613525390625,-0.016287803649902344,-0.2867543399333954,0.11412768065929413
1683127073300459300,19.017459228515627,0.0025720596313476562,-0.3501336872577667,-0.008378416299819946
1683127073318299400,19.03529931640625,-0.09286308288574219,-0.30836498737335205,0.09364020079374313
1683127073336137700,19.0531376953125,0.05188560485839844,-0.2762417793273926,0.06326069682836533
1683127073353977000,19.07097705078125,-0.2035818099975586,-0.25473058223724365,0.028709962964057922
1683127073371816700,19.088816650390626,0.09574699401855469,-0.3255995512008667,0.14463427662849426
1683127073389656300,19.10665625,-0.07382488250732422,-0.2234288454055786,0.022004902362823486
1683127073407495400,19.124495361328126,-0.07471275329589844,-0.33659589290618896,0.1713446080684662
1683127073425334800,19.142334716796874,-0.038954734802246094,-0.3499099016189575,0.04686341434717178
1683127073443171600,19.160171630859374,-0.01749420166015625,-0.30193114280700684,0.10600247979164124
1683127073461016600,19.1780166015625,-0.1058816909790039,-0.3250252306461334,0.06171406805515289
1683127073478845200,19.19584521484375,-0.03507232666015625,-0.25744104385375977,0.05377652496099472
1683127073496695800,19.21369580078125,-0.026716232299804688,-0.2859147787094116,0.1252717822790146
1683127073514531300,19.23153125,-0.017709732055664062,-0.21816188097000122,0.006504513323307037
1683127073532372200,19.249372314453126,-0.06357479095458984,-0.32803651690483093,0.1869819164276123
1683127073550211000,19.267211181640626,-0.0045146942138671875,-0.27985700964927673,0.04886592924594879
1683127073568050200,19.28505029296875,-0.00024890899658203125,-0.298594206571579,0.06857054680585861
1683127073585893600,19.3028935546875,0.06299972534179688,-0.2907140254974365,0.051433101296424866
1683127073603714800,19.32071484375,0.006916999816894531,-0.2058267891407013,0.03288200497627258
1683127073621556700,19.338556640625,0.013586044311523438,-0.26012399792671204,0.06361561268568039
1683127073639410700,19.35641064453125,-0.13906478881835938,-0.28980129957199097,0.1082649677991867
1683127073657243600,19.37424365234375,0.03931617736816406,-0.3266620635986328,0.1437811553478241
1683127073675087000,19.392087158203125,-0.12360477447509766,-0.26389485597610474,0.03661227226257324
1683127073692925400,19.409925537109373,-0.07402324676513672,-0.36473527550697327,0.18975453078746796
1683127073710766300,19.427766357421874,0.12264633178710938,-0.2344515025615692,-0.0707651674747467
1683127073728605000,19.44560498046875,-0.0699014663696289,-0.2722989320755005,0.12091020494699478
1683127073746432800,19.463432861328126,-0.032896995544433594,-0.27610787749290466,0.07251428067684174
1683127073764284400,19.481284423828125,0.01945209503173828,-0.2165815830230713,0.05273992568254471
1683127073782123500,19.49912353515625,-0.1160135269165039,-0.35156315565109253,0.1539878100156784
1683127073799963000,19.516962890625,-0.09720516204833984,-0.28999990224838257,0.07098744064569473
1683127073817802200,19.53480224609375,0.00036716461181640625,-0.31658273935317993,0.07262472808361053
1683127073835641900,19.552641845703125,-0.057524681091308594,-0.2581203579902649,0.0375315397977829
1683127073853481200,19.570481201171877,0.021096229553222656,-0.2662968039512634,0.08098940551280975
1683127073871320300,19.5883203125,-0.030061721801757812,-0.19530770182609558,0.010408788919448853
1683127073889160200,19.60616015625,-0.14652729034423828,-0.3115469813346863,0.13995599746704102
1683127073906999600,19.62399951171875,-0.03289222717285156,-0.273298978805542,0.0972427949309349
1683127073924839200,19.641839111328125,-0.034908294677734375,-0.2763005495071411,0.07379080355167389
1683127073942673400,19.65967333984375,-0.17516326904296875,-0.34551486372947693,0.13012461364269257
1683127073960521700,19.677521728515625,0.022586822509765625,-0.30157896876335144,0.03600776195526123
1683127073978358000,19.69535791015625,-0.07936763763427734,-0.2958747446537018,0.04611176997423172
1683127073996185000,19.71318505859375,0.12841415405273438,-0.21291598677635193,0.04118833690881729
1683127074014037200,19.731037353515624,-0.13899803161621094,-0.24743099510669708,0.12469536066055298
1683127074031874000,19.7488740234375,0.012414932250976562,-0.2688436806201935,0.08218422532081604
1683127074049714700,19.766714599609376,-0.10077285766601562,-0.3302115797996521,0.09597139805555344
1683127074067551500,19.784551513671875,-0.01997852325439453,-0.31680554151535034,0.11458493769168854
1683127074085396700,19.802396728515625,0.00849151611328125,-0.2621588706970215,0.007586434483528137
1683127074103233300,19.8202333984375,-0.01920032501220703,-0.2640429437160492,0.06302055716514587
1683127074121060900,19.838060791015625,0.012577056884765625,-0.22145777940750122,0.031016550958156586
1683127074138912000,19.855912109375,0.023108482360839844,-0.22531482577323914,0.03098221868276596
1683127074156750300,19.873750244140624,-0.019617080688476562,-0.27179449796676636,0.11662552505731583
1683127074174576600,19.89157666015625,-0.060802459716796875,-0.3191797137260437,0.10722361505031586
1683127074192430800,19.909430908203124,0.033043861389160156,-0.25874945521354675,0.03443760424852371
1683127074210270200,19.927270263671875,-0.1143035888671875,-0.33666327595710754,0.12896767258644104
1683127074228109300,19.945109375,0.03476142883300781,-0.2126055657863617,-0.05106842890381813
1683127074245944000,19.962944091796874,0.02202129364013672,-0.22992539405822754,0.08338523656129837
1683127074263788300,19.980788330078123,-0.057834625244140625,-0.27591073513031006,0.07823172956705093
1683127074281627100,19.998627197265623,-0.04077434539794922,-0.2343623787164688,0.10725310444831848
1683127074299467800,20.0164677734375,-0.10642051696777344,-0.3556448221206665,0.030903689563274384
1683127074317306400,20.034306396484375,-0.07029056549072266,-0.2972255349159241,0.1309203803539276
1683127074335146200,20.052146240234375,0.0022907257080078125,-0.2656704783439636,0.020792372524738312
1683127074352984800,20.06998486328125,-0.13257408142089844,-0.24242627620697021,0.023176684975624084
1683127074370824400,20.087824462890627,0.05373096466064453,-0.28086599707603455,0.11481146514415741
1683127074388665300,20.105665283203123,0.006449699401855469,-0.13456794619560242,-0.03260505944490433
1683127074406503700,20.123503662109375,-0.0729970932006836,-0.3087957203388214,0.1584720015525818
1683127074424343000,20.141343017578127,-0.024949073791503906,-0.20544052124023438,0.05127899348735809
1683127074442180400,20.159180419921874,-0.06868171691894531,-0.27653563022613525,0.0864783227443695
1683127074460024600,20.177024658203123,0.021785736083984375,-0.2721322774887085,0.024320431053638458
1683127074477861600,20.194861572265626,-0.017726898193359375,-0.23791027069091797,0.08030028641223907
1683127074495701200,20.212701171875,-0.0648355484008789,-0.22853943705558777,0.04499287158250809
1683127074513540600,20.23054052734375,-0.07954025268554688,-0.24061131477355957,0.07288648188114166
1683127074531379700,20.248379638671874,-0.011595726013183594,-0.2759034037590027,0.13844266533851624
1683127074549208600,20.26620849609375,-0.07143878936767578,-0.1971639096736908,0.03254696726799011
1683127074567054000,20.28405419921875,-0.14392566680908203,-0.35596799850463867,0.1912388801574707
1683127074584894500,20.30189453125,0.13248729705810547,-0.2278570532798767,-0.05709322169423103
1683127074602737400,20.3197373046875,-0.11829757690429688,-0.25893643498420715,0.08805461972951889
1683127074620575700,20.33757568359375,0.07761573791503906,-0.22178062796592712,0.02901623398065567
1683127074638417700,20.355417724609374,-0.05086231231689453,-0.1983950436115265,0.022994235157966614
1683127074656256000,20.373256103515626,0.043076515197753906,-0.2033528983592987,0.08079075813293457
1683127074674095000,20.39109521484375,-0.06397628784179688,-0.2735399305820465,0.08156678080558777
1683127074691933400,20.408933349609374,-0.036498069763183594,-0.3039056956768036,0.08501590043306351
1683127074709775600,20.426775634765626,0.013044357299804688,-0.22863149642944336,0.02682717889547348
1683127074727614000,20.444614013671874,-0.025264739990234375,-0.27584242820739746,0.06689249724149704
1683127074745453300,20.462453369140626,-0.1045522689819336,-0.21796661615371704,0.040254317224025726
1683127074763292400,20.48029248046875,0.05890846252441406,-0.18837469816207886,0.0635887086391449
1683127074781132000,20.498132080078125,-0.18049335479736328,-0.2526181936264038,0.08865774422883987
1683127074798971600,20.5159716796875,-0.01651763916015625,-0.27972570061683655,0.1311730444431305
1683127074816811000,20.53381103515625,-0.09636592864990234,-0.28166463971138,0.05330507457256317
1683127074834650400,20.551650390625,-0.07753467559814453,-0.2668749988079071,0.1296789050102234
1683127074852489700,20.56948974609375,-0.036350250244140625,-0.23079733550548553,-0.002576015889644623
1683127074870329000,20.5873291015625,0.12082862854003906,-0.20110195875167847,-0.019704557955265045
1683127074888163800,20.605163818359376,-0.1562824249267578,-0.28724074363708496,0.11383379250764847
1683127074906007800,20.6230078125,0.0758066177368164,-0.16159594058990479,0.03460564464330673
1683127074923837000,20.6408369140625,-0.14778518676757812,-0.3177768588066101,0.11598960310220718
1683127074941685800,20.658685791015625,0.016844749450683594,-0.22710677981376648,0.08637352287769318
1683127074959527700,20.676527587890625,-0.0643911361694336,-0.2672434449195862,0.03609202802181244
1683127074977366000,20.694365966796877,0.01992511749267578,-0.25642967224121094,0.029233194887638092
1683127074995205000,20.712205078125,0.013966560363769531,-0.1985364854335785,0.05094173550605774
1683127075013043700,20.730043701171876,-0.041045188903808594,-0.18367436528205872,0.05372496694326401
1683127075030885400,20.747885498046877,-0.03647136688232422,-0.22788891196250916,0.06515789777040482
1683127075048712000,20.7657119140625,-0.16430282592773438,-0.2630310654640198,0.12968623638153076
1683127075066563000,20.78356298828125,0.040119171142578125,-0.25396591424942017,0.05514149367809296
1683127075084407800,20.80140771484375,-0.2344503402709961,-0.2894051671028137,0.09875120222568512
1683127075102227500,20.8192275390625,0.11419963836669922,-0.24303275346755981,0.07570094615221024
1683127075120069600,20.837069580078126,0.0018091201782226562,-0.20721310377120972,-0.02546275407075882
1683127075137920800,20.854920654296876,0.019845962524414062,-0.18392756581306458,0.09955007582902908
1683127075155760400,20.872760498046876,-0.049057960510253906,-0.21565616130828857,0.029053330421447754
1683127075173599700,20.890599853515624,-0.06154155731201172,-0.2033304125070572,0.07122264057397842
1683127075191439400,20.908439453125,0.02270793914794922,-0.30612820386886597,0.12470941990613937
1683127075209278700,20.92627880859375,-0.2094259262084961,-0.2589742839336395,0.03125724941492081
1683127075227118000,20.9441181640625,0.13058757781982422,-0.2355254888534546,0.06990837305784225
1683127075244954000,20.9619541015625,-0.07724666595458984,-0.22792378067970276,-0.012737847864627838
1683127075262796000,20.979796142578124,0.07105445861816406,-0.17591005563735962,0.042345792055130005
1683127075280637400,20.997637451171876,0.07068252563476562,-0.18350151181221008,0.005238719284534454
1683127075298477300,21.015477294921876,-0.12248802185058594,-0.25972914695739746,0.13589756190776825
1683127075316312800,21.033312744140623,-0.0021619796752929688,-0.2755887508392334,0.02591918408870697
1683127075334155000,21.051155029296876,-0.0924215316772461,-0.2581901252269745,0.07383260875940323
1683127075351985200,21.068985107421874,-0.021188735961914062,-0.2888312041759491,0.10474907606840134
1683127075369833200,21.086833251953124,-0.20082664489746094,-0.19638463854789734,-0.02963576465845108
1683127075387672800,21.1046728515625,0.17258071899414062,-0.21720129251480103,0.08657727390527725
1683127075405512700,21.1225126953125,-0.11243820190429688,-0.21454162895679474,0.006778888404369354
1683127075423351800,21.140351806640624,0.057758331298828125,-0.19541865587234497,0.11719823628664017
1683127075441187800,21.158187744140626,-0.05085182189941406,-0.2579370141029358,0.03901761770248413
1683127075459030800,21.17603076171875,-0.04238128662109375,-0.260030061006546,0.08046066761016846
1683127075476867000,21.1938671875,-0.034354209899902344,-0.23643946647644043,0.04417634755373001
1683127075494713300,21.21171337890625,-0.010172843933105469,-0.19625671207904816,-0.012877322733402252
1683127075512549000,21.229549072265623,-0.13718605041503906,-0.24846819043159485,0.09545261412858963
1683127075530388500,21.247388427734375,0.05710315704345703,-0.146514892578125,0.004172392189502716
1683127075548227800,21.265227783203127,-0.019182205200195312,-0.2268626093864441,0.06405837833881378
1683127075566055400,21.283055419921876,-0.17932701110839844,-0.2447885274887085,0.15609514713287354
1683127075583894000,21.30089404296875,0.09859466552734375,-0.20625832676887512,-0.0033332854509353638
1683127075601747700,21.318747802734375,-0.22836875915527344,-0.28841882944107056,0.10936444252729416
1683127075619579000,21.336578857421873,0.06378650665283203,-0.24152567982673645,0.04017696529626846
1683127075637425700,21.35442578125,-0.13361454010009766,-0.21828854084014893,0.004828624427318573
1683127075655260000,21.372260009765625,0.14478778839111328,-0.18685753643512726,0.033911652863025665
1683127075673094700,21.3900947265625,-0.2310037612915039,-0.2269921600818634,0.11842384934425354
1683127075690940700,21.407940673828126,0.06927871704101562,-0.22630885243415833,0.06402558833360672
1683127075708786200,21.4257861328125,-0.12993621826171875,-0.23985621333122253,0.05832100659608841
1683127075726622200,21.443622314453126,0.07332420349121094,-0.2500966191291809,0.06795096397399902
1683127075744461800,21.4614619140625,-0.00402069091796875,-0.13442888855934143,-0.03795717656612396
1683127075762301700,21.4793017578125,0.023954391479492188,-0.20122483372688293,0.08068407326936722
1683127075780139500,21.497139404296874,-0.10774707794189453,-0.1857662796974182,0.014153815805912018
1683127075797979100,21.514979248046874,0.0902566909790039,-0.19975244998931885,0.0759301409125328
1683127075815822600,21.532822509765627,-0.04406166076660156,-0.19951868057250977,0.06067404896020889
1683127075833659000,21.550658935546874,-0.14306259155273438,-0.2775472402572632,0.15676137804985046
1683127075851498500,21.56849853515625,0.14368057250976562,-0.2005806416273117,-0.08123734593391418
1683127075869338000,21.586338134765626,-0.11692237854003906,-0.23639968037605286,0.1309191882610321
1683127075887177500,21.604177490234374,0.014814376831054688,-0.17628294229507446,0.004403643310070038
1683127075905013200,21.62201318359375,-0.08893680572509766,-0.14707273244857788,0.038298726081848145
1683127075922856700,21.639856689453126,-0.04640769958496094,-0.279395192861557,0.16873227059841156
1683127075940695800,21.65769580078125,-0.08243846893310547,-0.17339393496513367,0.006558060646057129
1683127075958535200,21.67553515625,-0.07468032836914062,-0.27695977687835693,0.1356426626443863
1683127075976370200,21.6933701171875,-0.048354148864746094,-0.21812495589256287,0.03175574541091919
1683127075994214400,21.71121435546875,-0.010105133056640625,-0.17846612632274628,0.02156415581703186
1683127076012053800,21.7290537109375,0.0025529861450195312,-0.15183284878730774,0.016438990831375122
1683127076029893000,21.74689306640625,-0.05187511444091797,-0.2185358703136444,0.05891278386116028
1683127076047720700,21.764720703125,-0.07330513000488281,-0.12319609522819519,0.052443504333496094
1683127076065572000,21.782572021484373,0.00037097930908203125,-0.23921705782413483,0.10034967958927155
1683127076083398100,21.800398193359374,-0.13576126098632812,-0.2250567078590393,0.06449409574270248
1683127076101249500,21.81824951171875,0.01803874969482422,-0.2312796413898468,0.04323028028011322
1683127076119079700,21.83607958984375,-0.08954811096191406,-0.22121655941009521,0.02823861688375473
1683127076136930000,21.853929931640625,0.06328964233398438,-0.17647519707679749,0.05059826374053955
1683127076154769400,21.871769287109377,-0.19019508361816406,-0.17027494311332703,0.06666103005409241
1683127076172605700,21.889605712890624,0.12395191192626953,-0.18792495131492615,0.04606322944164276
1683127076190450200,21.9074501953125,-0.09644412994384766,-0.20215876400470734,0.06864245980978012
1683127076208288500,21.92528857421875,-0.06088447570800781,-0.21263954043388367,0.10311509668827057
1683127076226122800,21.943122802734376,0.0057086944580078125,-0.23088112473487854,0.028453662991523743
1683127076243966700,21.960966796875,-0.02549266815185547,-0.23569612205028534,0.05628131330013275
1683127076261806000,21.97880615234375,0.11918163299560547,-0.13492390513420105,-0.022466003894805908
1683127076279642000,21.99664208984375,-0.0605010986328125,-0.14667311310768127,0.04461684823036194
1683127076297483000,22.01448291015625,0.03526878356933594,-0.1715048998594284,0.04970772564411163
1683127076315323000,22.032322998046876,-0.17015552520751953,-0.17889201641082764,0.061704978346824646
1683127076333165300,22.050165283203125,0.14984798431396484,-0.22928498685359955,0.11495129764080048
1683127076351001900,22.068001953125,-0.25788307189941406,-0.2499941736459732,0.04908004403114319
1683127076368843800,22.08584375,0.1664886474609375,-0.17447303235530853,0.029248639941215515
