time,seconds_elapsed,z,y,x
1683132143601812200,0.114812255859375,9.189037322998047,2.1930220127105713,0.20458634197711945
1683132143619655400,0.132655517578125,9.873982429504395,0.7357929348945618,0.05742774158716202
1683132143637506800,0.1505068359375,9.479764938354492,1.6773686408996582,0.13040883839130402
1683132143655348700,0.1683486328125,10.109675407409668,1.3800604343414307,-0.14057832956314087
1683132143673185500,0.186185546875,9.634101867675781,1.1318050622940063,0.14416755735874176
1683132143691025000,0.20402490234375,10.026525497436523,1.425524115562439,-0.3768695592880249
1683132143708868000,0.2218681640625,9.787242889404297,0.9361918568611145,0.31046873331069946
1683132143726709000,0.239708984375,9.824930191040039,1.212562918663025,-0.3978067636489868
1683132143744548400,0.25754833984375,9.579665184020996,1.1108678579330444,0.4013960063457489
1683132143762388500,0.275388427734375,9.54078197479248,1.430309772491455,-0.26201409101486206
1683132143780211500,0.29321142578125,9.671789169311523,1.0941181182861328,0.23988047242164612
1683132143798069000,0.311069091796875,9.441479682922363,1.6630117893218994,-0.09990034252405167
1683132143815909600,0.32890966796875,9.745368003845215,0.5970092415809631,0.06819544732570648
1683132143833749500,0.34674951171875,9.390632629394531,1.8299111127853394,-0.010169495828449726
1683132143851593000,0.364593017578125,9.89432144165039,0.5533402562141418,0.064606212079525
1683132143869431800,0.382431884765625,9.400203704833984,1.9537396430969238,0.11066804826259613
1683132143887270400,0.4002705078125,10.01456069946289,1.0713863372802734,-0.035892341285943985
1683132143905110500,0.418110595703125,9.610174179077148,1.4273186922073364,0.19322042167186737
1683132143922950700,0.43595068359375,10.129416465759277,1.587039589881897,-0.2907279431819916
1683132143940790800,0.453790771484375,9.723833084106445,0.8919246196746826,0.22552353143692017
1683132143958612500,0.471612548828125,9.960124015808105,1.3561322689056396,-0.4534398913383484
1683132143976470300,0.48947021484375,9.756135940551758,0.9840483069419861,0.3655036687850952
1683132143994311700,0.507311767578125,9.5802640914917,1.220937728881836,-0.349352091550827
1683132144012151800,0.52515185546875,9.693324089050293,1.1443674564361572,0.2925225794315338
1683132144029992200,0.5429921875,9.460023880004883,1.6002001762390137,-0.11964113265275955
1683132144047833000,0.5608330078125,9.754940032958984,0.8524430394172668,0.10289137065410614
1683132144065672700,0.578672607421875,9.410971641540527,1.7407784461975098,-0.05623133108019829
1683132144083509500,0.596509521484375,9.830313682556152,0.48095735907554626,0.01734796352684498
1683132144101348400,0.614348388671875,9.366106033325195,1.862214207649231,0.03409772366285324
1683132144119195600,0.632195556640625,10.025328636169434,0.7770691514015198,-0.01375873014330864
1683132144137033200,0.650033203125,9.40917682647705,1.6875381469726562,0.21774685382843018
1683132144154874600,0.66787451171875,10.088738441467285,1.373480200767517,-0.21954147517681122
1683132144172714000,0.6857138671875,9.648459434509277,1.069591760635376,0.251844584941864
1683132144190553900,0.703553955078125,10.04865837097168,1.5499508380889893,-0.4295116662979126
1683132144208394500,0.72139453125,9.795618057250977,0.8267202377319336,0.30927231907844543
1683132144226233000,0.739233154296875,9.660423278808594,1.2424731254577637,-0.41994038224220276
1683132144244074800,0.75707470703125,9.737591743469238,1.0121639966964722,0.32123643159866333
1683132144261915100,0.7749150390625,9.408578872680664,1.4590235948562622,-0.16450655460357666
1683132144279754800,0.792754638671875,9.759725570678711,0.9547362327575684,0.18783657252788544
1683132144297596400,0.810596435546875,9.400801658630371,1.7994025945663452,-0.02512463741004467
1683132144315435500,0.828435546875,9.81356430053711,0.6538388133049011,0.06759724020957947
1683132144333261800,0.84626171875,9.457033157348633,1.6528422832489014,0.029910283163189888
1683132144351115500,0.864115478515625,9.959526062011719,0.7782655358314514,0.010169495828449726
1683132144368957200,0.881957275390625,9.380462646484375,1.6929219961166382,0.1986042857170105
1683132144386793200,0.899793212890625,10.082158088684082,1.2957134246826172,-0.1453639715909958
1683132144404636700,0.91763671875,9.626923561096191,1.3926228284835815,0.37507495284080505
1683132144422472200,0.93547216796875,10.086345672607422,1.5284154415130615,-0.41575294733047485
1683132144440320000,0.953320068359375,9.760323524475098,0.9373882412910461,0.24945175647735596
1683132144458153700,0.97115380859375,9.711270332336426,1.3878371715545654,-0.46779683232307434
1683132144475996700,0.98899658203125,9.848857879638672,0.7800601720809937,0.18305093050003052
1683132144493837600,1.006837646484375,9.415159225463867,1.4488540887832642,-0.243469700217247
1683132144511677700,1.024677734375,9.753145217895508,0.8147560954093933,0.11724831163883209
1683132144529518000,1.04251806640625,9.388239860534668,1.784447431564331,-0.003589233849197626
1683132144547349200,1.060349365234375,9.801599502563477,0.7579265832901001,0.07836493849754333
1683132144565200600,1.07820068359375,9.44746208190918,1.6648063659667969,-0.003589233849197626
1683132144583038700,1.096038818359375,9.981659889221191,0.7411768436431885,0.005383851006627083
1683132144600881700,1.113881591796875,9.437292098999023,1.5014961957931519,0.13579268753528595
1683132144618720300,1.13172021484375,10.007980346679688,1.0803594589233398,-0.137587308883667
1683132144636559400,1.149559326171875,9.512666702270508,1.5248262882232666,0.3409772217273712
1683132144654381000,1.167381103515625,10.064809799194336,1.4572290182113647,-0.2955136001110077
1683132144672240000,1.185240234375,9.709476470947266,1.217348575592041,0.37866419553756714
1683132144690083000,1.2030830078125,9.795618057250977,1.4799607992172241,-0.4618147611618042
1683132144707923700,1.220923828125,9.8267240524292,0.8255237936973572,0.20099709928035736
1683132144725760800,1.2387607421875,9.539586067199707,1.3884353637695312,-0.3415754437446594
1683132144743601000,1.256600830078125,9.794421195983887,0.8374879360198975,0.1944168359041214
1683132144761441000,1.27444091796875,9.329017639160156,1.6456637382507324,-0.0849452018737793
1683132144779281200,1.29228125,9.841081619262695,0.786640465259552,0.08255238085985184
1683132144797120300,1.310120361328125,9.44327449798584,1.7874385118484497,0.03888336941599846
1683132144814955500,1.32795556640625,9.926026344299316,0.7543373107910156,0.04366901144385338
1683132144832802000,1.345802001953125,9.497711181640625,1.5176477432250977,-0.005383851006627083
1683132144850642200,1.36364208984375,10.013962745666504,0.9361918568611145,-0.04127619042992592
1683132144868476200,1.38147607421875,9.449256896972656,1.5152549743652344,0.17647066712379456
1683132144886322700,1.39932275390625,9.997213363647461,1.197009563446045,-0.21714866161346436
1683132144904162600,1.41716259765625,9.57906723022461,1.3770694732666016,0.38644084334373474
1683132144922003000,1.4350029296875,10.05823040008545,1.500898003578186,-0.37926238775253296
1683132144939843000,1.452843017578125,9.77707290649414,1.0247262716293335,0.3158525824546814
1683132144957683700,1.47068359375,9.705288887023926,1.454237937927246,-0.41216370463371277
1683132144975527000,1.48852685546875,9.80937671661377,0.8183453679084778,0.19202402234077454
1683132144993366500,1.506366455078125,9.484550476074219,1.4841482639312744,-0.20398813486099243
1683132145011204000,1.5242041015625,9.757930755615234,0.8123632669448853,0.18364913761615753
1683132145029044200,1.542044189453125,9.333803176879883,1.7994025945663452,0.03349951654672623
1683132145046883800,1.5598837890625,9.852447509765625,0.7154539823532104,0.05802594870328903
1683132145064724700,1.577724853515625,9.539586067199707,1.7001005411148071,-0.010169495828449726
1683132145082553000,1.595552978515625,9.985847473144531,0.753140926361084,-0.017946170642971992
1683132145100390700,1.613390625,9.465408325195312,1.3908281326293945,0.03529413416981697
1683132145118244900,1.631244873046875,10.026525497436523,1.1072787046432495,-0.11186445504426956
1683132145136084500,1.64908447265625,9.41755199432373,1.451246976852417,0.28534409403800964
1683132145153929000,1.666928955078125,10.049257278442383,1.358525037765503,-0.2841476798057556
1683132145171766000,1.68476611328125,9.70229721069336,1.2460623979568481,0.41874396800994873
1683132145189600500,1.7026005859375,9.879964828491211,1.4434702396392822,-0.4259224236011505
1683132145207446500,1.720446533203125,9.780662536621094,0.8961120843887329,0.2476571500301361
1683132145225274600,1.738274658203125,9.472586631774902,1.4213366508483887,-0.30508488416671753
1683132145243127000,1.756126953125,9.790233612060547,0.7716853022575378,0.16031911969184875
1683132145260967400,1.773967529296875,9.363713264465332,1.6534404754638672,-0.04366901144385338
1683132145278804200,1.79180419921875,9.847063064575195,0.7357929348945618,0.08793623000383377
1683132145296650800,1.809650634765625,9.397212982177734,1.887937068939209,0.0729810893535614
1683132145314488000,1.827488037109375,9.992427825927734,0.7680960893630981,0.04426721855998039
1683132145332328200,1.845328125,9.482755661010742,1.4913266897201538,0.014955141581594944
1683132145350168300,1.863168212890625,10.061819076538086,1.0253244638442993,-0.062213387340307236
1683132145367996700,1.88099658203125,9.558130264282227,1.2335001230239868,0.14117653667926788
1683132145385846300,1.89884619140625,9.92124080657959,1.2113664150238037,-0.27038896083831787
1683132145403689000,1.91668896484375,9.491130828857422,1.3453645706176758,0.388235479593277
1683132145421530000,1.934530029296875,9.930213928222656,1.4111671447753906,-0.381655216217041
1683132145439363300,1.95236328125,9.654440879821777,1.2376874685287476,0.44027936458587646
1683132145457209600,1.970209716796875,9.609575271606445,1.4159528017044067,-0.33379876613616943
1683132145475038700,1.988038818359375,9.740582466125488,0.8015955686569214,0.18005990982055664
1683132145492889900,2.005889892578125,9.426525115966797,1.5738791227340698,-0.12442677468061447
1683132145510725600,2.0237255859375,9.838688850402832,0.5910272002220154,0.04905286431312561
1683132145528572700,2.04157275390625,9.355937004089355,1.944766640663147,0.08255238085985184
1683132145546407700,2.05940771484375,10.027721405029297,0.633499801158905,-0.013160524889826775
1683132145564251000,2.0772509765625,9.573683738708496,1.7682958841323853,0.04546362906694412
1683132145582091300,2.09509130859375,10.067203521728516,0.9858429431915283,-0.07118647545576096
1683132145599931400,2.112931396484375,9.578469276428223,1.1766705513000488,0.007178467698395252
1683132145617759700,2.130759765625,10.082158088684082,1.241276741027832,-0.2105683982372284
1683132145635600600,2.1486005859375,9.592227935791016,1.150349497795105,0.2590230405330658
1683132145653443000,2.166443115234375,9.915258407592773,1.296311616897583,-0.33738797903060913
1683132145671280400,2.1842802734375,9.57607650756836,1.3549357652664185,0.47258245944976807
1683132145689132800,2.2021328125,9.744172096252441,1.4207384586334229,-0.3433700501918793
1683132145706974000,2.219973876953125,9.580862045288086,1.114457130432129,0.3451646566390991
1683132145724817400,2.2378173828125,9.493523597717285,1.4673985242843628,-0.20099709928035736
1683132145742653400,2.2556533203125,9.800403594970703,0.7076773047447205,0.11306086927652359
1683132145760488700,2.27348876953125,9.354740142822266,1.7904295921325684,-0.004187439568340778
1683132145778329600,2.29132958984375,9.914660453796387,0.5569294691085815,0.0364905446767807
1683132145796173600,2.309173583984375,9.426525115966797,2.00518536567688,0.1136590763926506
1683132145814014200,2.32701416015625,10.092926025390625,0.7597211599349976,-0.005982056725770235
1683132145831842300,2.34484228515625,9.583852767944336,1.5194423198699951,0.02512463741004467
1683132145849691600,2.362691650390625,10.032506942749023,1.2083754539489746,-0.1333998590707779
1683132145867532000,2.380531982421875,9.525228500366211,1.052243709564209,0.09870393574237823
1683132145885374700,2.398374755859375,9.950552940368652,1.2652050256729126,-0.3008974492549896
1683132145903203000,2.416203125,9.527621269226074,1.2957134246826172,0.3684946894645691
1683132145921055500,2.434055419921875,9.817750930786133,1.2837493419647217,-0.3577269911766052
1683132145938895400,2.451895263671875,9.623932838439941,1.3561322689056396,0.4570291340351105
1683132145956734700,2.469734619140625,9.628120422363281,1.4398809671401978,-0.3290131092071533
1683132145974575900,2.487575927734375,9.721440315246582,0.914058268070221,0.22073788940906525
1683132145992416000,2.505416015625,9.429515838623047,1.5415760278701782,-0.1136590763926506
1683132146010253600,2.523253662109375,9.8267240524292,0.6125625967979431,0.06819544732570648
1683132146028098000,2.54109814453125,9.377471923828125,1.9680966138839722,0.058624155819416046
1683132146045939000,2.55893896484375,9.985847473144531,0.5850451588630676,0.012562318705022335
1683132146063777300,2.57677734375,9.46899700164795,1.8903298377990723,0.06699903309345245
1683132146081612500,2.594612548828125,10.108479499816895,0.9505487680435181,-0.03469592705368996
1683132146099457300,2.612457275390625,9.603593826293945,1.26699960231781,-0.003589233849197626
1683132146117298000,2.6302978515625,10.083354949951172,1.2646067142486572,-0.20159530639648438
1683132146135140400,2.648140380859375,9.606584548950195,1.0558329820632935,0.1944168359041214
1683132146152981500,2.6659814453125,9.893723487854004,1.2831511497497559,-0.36610186100006104
1683132146170817000,2.683817138671875,9.511469841003418,1.3178470134735107,0.41156548261642456
1683132146188646700,2.701646728515625,9.729216575622559,1.3752747774124146,-0.3684946894645691
1683132146206497800,2.719497802734375,9.689735412597656,1.2436695098876953,0.397208571434021
1683132146224339000,2.7373388671875,9.504291534423828,1.4530415534973145,-0.25244277715682983
1683132146242179300,2.755179443359375,9.753145217895508,0.7339983582496643,0.12622138857841492
1683132146260008000,2.773008056640625,9.343972206115723,1.7012969255447388,-0.06520441919565201
1683132146277858600,2.790858642578125,9.854840278625488,0.542572557926178,0.020937198773026466
1683132146295700200,2.8087001953125,9.356534957885742,1.9896320104599,0.11186445504426956
1683132146313543400,2.82654345703125,10.034899711608887,0.6436693072319031,-0.02512463741004467
1683132146331380700,2.844380615234375,9.614361763000488,1.6773686408996582,0.02632104977965355
1683132146349220400,2.862220458984375,10.067203521728516,1.083350419998169,-0.10169496387243271
1683132146367061000,2.88006103515625,9.57607650756836,1.0498509407043457,0.03768695518374443
1683132146384902000,2.89790185546875,9.926624298095703,1.2885349988937378,-0.2632105052471161
1683132146402729500,2.9157294921875,9.626325607299805,1.114457130432129,0.28654050827026367
1683132146420579000,2.9335791015625,9.784252166748047,1.2975081205368042,-0.35473597049713135
1683132146438421800,2.951421875,9.613762855529785,1.34476637840271,0.45284169912338257
1683132146456261400,2.969261474609375,9.585647583007812,1.4171491861343384,-0.3236292600631714
1683132146474102800,2.987102783203125,9.657432556152344,1.0498509407043457,0.2763710021972656
1683132146491943200,3.004943115234375,9.469595909118652,1.4985052347183228,-0.17228323221206665
1683132146509782500,3.022782470703125,9.741779327392578,0.5874379873275757,0.07118647545576096
1683132146527622100,3.0406220703125,9.364909172058105,1.8699909448623657,-0.007178467698395252
1683132146545463300,3.05846337890625,9.945169448852539,0.5575276613235474,0.02871387079358101
1683132146563303700,3.0763037109375,9.460023880004883,1.9405791759490967,0.0891326442360878
1683132146581140700,3.094140625,10.094121932983398,0.8153542876243591,-0.014955141581594944
1683132146598978000,3.11197802734375,9.653244972229004,1.4422738552093506,0.007178467698395252
1683132146616810200,3.129810302734375,10.0612211227417,1.2646067142486572,-0.17946170270442963
1683132146634667300,3.147667236328125,9.636494636535645,1.0289137363433838,0.14476576447486877
1683132146652504800,3.1655048828125,9.847661972045898,1.2592228651046753,-0.3601198196411133
1683132146670345000,3.183344970703125,9.498908042907715,1.2317054271697998,0.39481574296951294
1683132146688181500,3.201181396484375,9.743574142456055,1.3369896411895752,-0.3481557071208954
1683132146706024400,3.2190244140625,9.650253295898438,1.303490161895752,0.4378865361213684
1683132146723865900,3.236865966796875,9.498908042907715,1.4691931009292603,-0.2715853750705719
1683132146741694200,3.254694091796875,9.784252166748047,0.833898663520813,0.16869398951530457
1683132146759545900,3.2725458984375,9.287142753601074,1.5667005777359009,-0.13639089465141296
1683132146777383700,3.2903837890625,9.900303840637207,0.5341976284980774,0.05563312768936157
1683132146795228200,3.308228271484375,9.404391288757324,1.9776679277420044,0.038285162299871445
1683132146813067000,3.32606689453125,9.979267120361328,0.5874379873275757,0.04666004329919815
1683132146830907000,3.343906982421875,9.589835166931152,1.7670994997024536,0.08255238085985184
1683132146848741000,3.3617412109375,10.111470222473145,1.0719845294952393,-0.06819544732570648
1683132146866587400,3.37958740234375,9.588040351867676,1.1539387702941895,0.039481572806835175
1683132146884427500,3.397427490234375,10.015159606933594,1.3435698747634888,-0.24885354936122894
1683132146902268200,3.41526806640625,9.708279609680176,1.0336993932724,0.23688943684101105
1683132146920102700,3.4331025390625,9.783055305480957,1.2532408237457275,-0.38285163044929504
1683132146937945600,3.450945556640625,9.522237777709961,1.2987045049667358,0.4336991012096405
1683132146955788800,3.468788818359375,9.628120422363281,1.3710874319076538,-0.3032902777194977
1683132146973628700,3.486628662109375,9.628120422363281,1.1635099649429321,0.30568310618400574
1683132146991458000,3.5044580078125,9.40917682647705,1.4883357286453247,-0.22133609652519226
1683132147009309200,3.52230908203125,9.787840843200684,0.638883650302887,0.07477571070194244
1683132147027149300,3.5401494140625,9.339784622192383,1.8269200325012207,-0.06041877344250679
1683132147044990500,3.557990478515625,9.93260669708252,0.4624129831790924,0.03469592705368996
1683132147062830000,3.575830078125,9.494122505187988,1.9860427379608154,0.0849452018737793
1683132147080662300,3.593662353515625,10.03549861907959,0.8009973764419556,0.039481572806835175
1683132147098512100,3.61151220703125,9.644869804382324,1.5589239597320557,0.052043892443180084
1683132147116352000,3.62935205078125,10.070792198181152,1.256830096244812,-0.11844471842050552
1683132147134191000,3.647191162109375,9.620343208312988,1.048654556274414,0.11425728350877762
1683132147152031200,3.66503125,9.882357597351074,1.319043517112732,-0.30568310618400574
1683132147169863000,3.68286279296875,9.600603103637695,1.1647064685821533,0.363709032535553
1683132147187708200,3.700708251953125,9.728020668029785,1.28255295753479,-0.3798605799674988
1683132147205539000,3.7185390625,9.587442398071289,1.2843475341796875,0.4253242313861847
1683132147223392000,3.73639208984375,9.510273933410645,1.4482558965682983,-0.2590230405330658
1683132147241227800,3.754227783203125,9.70349407196045,0.9619147181510925,0.2386840581893921
1683132147259072500,3.772072509765625,9.355937004089355,1.5672988891601562,-0.15732808411121368
1683132147276912600,3.78991259765625,9.869196891784668,0.5772684812545776,0.04666004329919815
1683132147294753000,3.8077529296875,9.454042434692383,1.9250258207321167,-0.02871387079358101
1683132147312580000,3.825580078125,9.92542839050293,0.5545366406440735,0.048454657196998596
1683132147330433500,3.84343359375,9.518050193786621,1.8891334533691406,0.11844471842050552
1683132147348273000,3.86127294921875,10.134202003479004,1.0001999139785767,-0.01136590726673603
1683132147366114000,3.879114013671875,9.648459434509277,1.3148560523986816,0.08075776696205139
1683132147383954400,3.896954345703125,10.01037311553955,1.3525429964065552,-0.23030917346477509
1683132147401794600,3.914794677734375,9.616754531860352,0.9744769930839539,0.22492532432079315
1683132147419634400,3.932634521484375,9.824331283569336,1.2454642057418823,-0.4259224236011505
1683132147437476000,3.95047607421875,9.627521514892578,1.1874382495880127,0.4540380835533142
1683132147455315500,3.9683154296875,9.517452239990234,1.3597214221954346,-0.28893333673477173
1683132147473139000,3.986138916015625,9.644869804382324,1.215553879737854,0.33080771565437317
1683132147490990800,4.003990966796875,9.379864692687988,1.547558069229126,-0.21595224738121033
1683132147508837400,4.02183740234375,9.835697174072266,0.7202396392822266,0.08255238085985184
1683132147526676200,4.03967626953125,9.433703422546387,1.750349760055542,-0.09990034252405167
1683132147544516600,4.0575166015625,9.90688419342041,0.529412031173706,0.04486542567610741
1683132147562357200,4.075357177734375,9.434301376342773,1.948355793952942,0.0687936544418335
1683132147580185300,4.093185302734375,10.018150329589844,0.7752745151519775,0.02632104977965355
1683132147598027300,4.11102734375,9.627521514892578,1.6055840253829956,0.14656038582324982
1683132147615882500,4.128882568359375,10.073184967041016,1.3668999671936035,-0.15912270545959473
1683132147633707000,4.14670703125,9.644869804382324,1.0259226560592651,0.1537388563156128
1683132147651547100,4.164547119140625,9.866804122924805,1.3794622421264648,-0.4001995921134949
1683132147669390600,4.182390625,9.787242889404297,0.9529415965080261,0.34695929288864136
1683132147687239700,4.20023974609375,9.631709098815918,1.1718848943710327,-0.39481574296951294
1683132147705081300,4.218081298828125,9.607781410217285,1.103689432144165,0.3523431420326233
1683132147722919200,4.235919189453125,9.448657989501953,1.4656038284301758,-0.23389841616153717
1683132147740759000,4.253759033203125,9.725028991699219,0.9487541913986206,0.16450655460357666
1683132147758594800,4.2715947265625,9.293723106384277,1.648654818534851,-0.08614161610603333
1683132147776439800,4.289439697265625,9.859027862548828,0.5318048596382141,0.04546362906694412
1683132147794280000,4.307280029296875,9.455238342285156,1.8544375896453857,-0.0005982056609354913
1683132147812115500,4.325115478515625,9.933204650878906,0.6095715761184692,0.03469592705368996
1683132147829957600,4.34295751953125,9.533005714416504,1.8975083827972412,0.16331014037132263
1683132147847798300,4.36079833984375,10.03549861907959,1.1676974296569824,-0.08315058797597885
1683132147865641000,4.378640869140625,9.615557670593262,1.2945170402526855,0.17527425289154053
1683132147883469300,4.39646923828125,10.040284156799316,1.5978072881698608,-0.3194418251514435
1683132147901321200,4.4143212890625,9.690333366394043,0.8069794178009033,0.24406790733337402
1683132147919153200,4.432153076171875,9.707681655883789,1.3124631643295288,-0.46779683232307434
1683132147936989000,4.449989013671875,9.80100154876709,1.0612168312072754,0.37447673082351685
1683132147954843100,4.467843017578125,9.400203704833984,1.2251251935958862,-0.2709871530532837
1683132147972685600,4.485685546875,9.734002113342285,1.129412293434143,0.2273181527853012
1683132147990522600,4.503522705078125,9.402596473693848,1.7048860788345337,-0.0933200865983963
1683132148008366000,4.521365966796875,9.76989459991455,0.6825526356697083,0.04007977992296219
1683132148026203400,4.539203369140625,9.455238342285156,1.7563318014144897,-0.049651071429252625
1683132148044043500,4.55704345703125,9.951150894165039,0.5246263742446899,-0.005383851006627083
1683132148061884000,4.5748837890625,9.33141040802002,1.8574285507202148,0.12382857501506805
1683132148079723800,4.592723876953125,9.960124015808105,0.924227774143219,-0.04905286431312561
1683132148097565400,4.6105654296875,9.535996437072754,1.5296118259429932,0.2877369225025177
1683132148115392500,4.628392578125,10.120443344116211,1.552941918373108,-0.2991028428077698
1683132148133245000,4.646244873046875,9.729815483093262,0.9517452120780945,0.2919243574142456
1683132148151085000,4.6640849609375,9.746564865112305,1.5134602785110474,-0.47258245944976807
1683132148168925200,4.68192529296875,9.800403594970703,0.8590233325958252,0.28115665912628174
1683132148186765800,4.699765869140625,9.54377269744873,1.23589289188385,-0.33858439326286316
1683132148204605700,4.717605712890625,9.708279609680176,0.9678967595100403,0.23389841616153717
1683132148222443500,4.735443603515625,9.360123634338379,1.5936198234558105,-0.08733802288770676
1683132148240286200,4.7532861328125,9.736993789672852,0.8093722462654114,0.11006984114646912
1683132148258125600,4.77112548828125,9.42772102355957,1.7168502807617188,-0.058624155819416046
1683132148275965700,4.788965576171875,9.885348320007324,0.5934200286865234,0.038285162299871445
1683132148293806000,4.80680615234375,9.355338096618652,1.6217355728149414,0.061016976833343506
1683132148311648800,4.824648681640625,9.94397258758545,0.9445667266845703,-0.010169495828449726
1683132148329487400,4.8424873046875,9.45164966583252,1.6522440910339355,0.29431718587875366
1683132148347327700,4.86032763671875,10.071390151977539,1.4117653369903564,-0.22432711720466614
1683132148365169700,4.878169677734375,9.681958198547363,1.2957134246826172,0.4013960063457489
1683132148383008000,4.896008056640625,9.9469633102417,1.5206388235092163,-0.42352959513664246
1683132148400842000,4.913842041015625,9.78245735168457,0.8883354067802429,0.23389841616153717
1683132148418689000,4.93168896484375,9.54377269744873,1.384247899055481,-0.3732803463935852
1683132148436529200,4.949529052734375,9.787840843200684,0.8721838593482971,0.16390834748744965
1683132148454372900,4.967372802734375,9.364311218261719,1.5744773149490356,-0.12083754688501358
1683132148472209700,4.985209716796875,9.768099784851074,0.7417750358581543,0.08733802288770676
1683132148490038000,5.0030380859375,9.449854850769043,1.7940187454223633,-0.0011964113218709826
1683132148507890200,5.02089013671875,9.912267684936523,0.6981059908866882,0.03409772366285324
1683132148525731300,5.0387314453125,9.433703422546387,1.5720844268798828,-0.03888336941599846
1683132148543570700,5.05657080078125,9.93559741973877,0.8578268885612488,-0.03469592705368996
1683132148561410800,5.074410888671875,9.448060035705566,1.4590235948562622,0.12622138857841492
1683132148579240700,5.09224072265625,10.087542533874512,1.1856436729431152,-0.16091732680797577
1683132148597091300,5.11009130859375,9.460023880004883,1.414756417274475,0.37866419553756714
1683132148614932700,5.1279326171875,10.095318794250488,1.4787644147872925,-0.3415754437446594
1683132148632771800,5.145771728515625,9.754341125488281,1.0917253494262695,0.3523431420326233
1683132148650611700,5.16361181640625,9.657432556152344,1.4344971179962158,-0.3684946894645691
1683132148668452400,5.181452392578125,9.78245735168457,0.8344969153404236,0.1908276081085205
1683132148686279000,5.19927880859375,9.494720458984375,1.4344971179962158,-0.24646073579788208
1683132148704132900,5.2171328125,9.750752449035645,0.7908278703689575,0.1495514214038849
1683132148721962200,5.234962158203125,9.337990760803223,1.7629120349884033,0.005982056725770235
1683132148739812900,5.252812744140625,9.841081619262695,0.722034215927124,0.0568295381963253
1683132148757653800,5.27065380859375,9.562317848205566,1.7587246894836426,-0.01136590726673603
1683132148775495200,5.2884951171875,10.01874828338623,0.737587571144104,-0.02273181453347206
1683132148793334300,5.306334228515625,9.471988677978516,1.3459627628326416,-0.037088751792907715
1683132148811174400,5.32417431640625,10.068997383117676,1.0827522277832031,-0.10229317098855972
1683132148829012200,5.34201220703125,9.415757179260254,1.4075778722763062,0.24825534224510193
1683132148846856200,5.359856201171875,9.943374633789062,1.3555340766906738,-0.2566302418708801
1683132148864694300,5.3776943359375,9.622138023376465,1.2586246728897095,0.4211367964744568
1683132148882535400,5.395535400390625,9.916455268859863,1.44945228099823,-0.388235479593277
1683132148900371500,5.413371337890625,9.745368003845215,0.9798609018325806,0.2847459018230438
1683132148918212900,5.431212890625,9.539586067199707,1.4464613199234009,-0.2721835672855377
1683132148936055600,5.4490556640625,9.767501831054688,0.8039883971214294,0.14297115802764893
1683132148953896400,5.466896484375,9.371489524841309,1.667797327041626,-0.0771685317158699
1683132148971736800,5.48473681640625,9.870991706848145,0.6436693072319031,0.06759724020957947
1683132148989564700,5.502564697265625,9.430113792419434,1.8867406845092773,0.0687936544418335
1683132149007417300,5.520417236328125,10.092328071594238,0.7202396392822266,0.006580262444913387
1683132149025257700,5.5382578125,9.597013473510742,1.5672988891601562,-0.05563312768936157
1683132149043097600,5.55609765625,10.066604614257812,1.0007981061935425,-0.10289137065410614
1683132149060938500,5.5739384765625,9.541379928588867,1.207179069519043,0.08614161610603333
1683132149078781000,5.591781005859375,9.999606132507324,1.196411371231079,-0.23688943684101105
1683132149096610300,5.6096103515625,9.464810371398926,1.3124631643295288,0.3535395562648773
1683132149114459100,5.627459228515625,9.81954574584961,1.420140266418457,-0.3200400173664093
1683132149132299300,5.64529931640625,9.689735412597656,1.2658032178878784,0.44745782017707825
1683132149150140400,5.663140380859375,9.616754531860352,1.4057832956314087,-0.349352091550827
1683132149167979000,5.68097900390625,9.68494987487793,0.9206385016441345,0.23270200192928314
1683132149185820400,5.6988203125,9.45763111114502,1.5068800449371338,-0.1704886108636856
1683132149203660000,5.716659912109375,9.812965393066406,0.6975077986717224,0.0771685317158699
1683132149221495800,5.734495849609375,9.34875774383545,1.892722725868225,0.04307080805301666
1683132149239340800,5.7523408203125,9.969695091247559,0.6005984544754028,0.008374879136681557
1683132149257172700,5.7701728515625,9.548559188842773,1.8921245336532593,0.0526420995593071
1683132149275020000,5.78802001953125,10.112068176269531,0.865005373954773,-0.01136590726673603
1683132149292860200,5.805860107421875,9.506684303283691,1.2993026971817017,-0.05563312768936157
1683132149310701800,5.823701904296875,10.046265602111816,1.1509476900100708,-0.1585244983434677
1683132149328542000,5.8415419921875,9.55513858795166,1.1569297313690186,0.16689938306808472
1683132149346381000,5.859381103515625,9.912267684936523,1.2711870670318604,-0.27038896083831787
1683132149364222500,5.877222412109375,9.498908042907715,1.3465609550476074,0.4372883439064026
1683132149382063400,5.8950634765625,9.796216011047363,1.41834557056427,-0.33858439326286316
1683132149399903200,5.9129033203125,9.649057388305664,1.186241865158081,0.389431893825531
1683132149417745000,5.930744873046875,9.535398483276367,1.4536397457122803,-0.2721835672855377
1683132149435586800,5.9485869140625,9.760921478271484,0.7728816866874695,0.14117653667926788
1683132149453425700,5.96642578125,9.376873970031738,1.6450655460357666,-0.07238288223743439
1683132149471264300,5.98426416015625,9.905089378356934,0.5754738450050354,0.039481572806835175
1683132149489104600,6.002104736328125,9.339186668395996,1.9489539861679077,0.0771685317158699
1683132149506944800,6.01994482421875,10.036096572875977,0.6299105882644653,-0.0077766734175384045
1683132149524785200,6.03778515625,9.562317848205566,1.672582983970642,-0.003589233849197626
1683132149542625800,6.055625732421875,10.047462463378906,0.9930213689804077,-0.06819544732570648
1683132149560454100,6.0734541015625,9.486943244934082,1.1593226194381714,0.025722842663526535
1683132149578302000,6.091302001953125,9.960124015808105,1.200000524520874,-0.22612173855304718
1683132149596143600,6.1091435546875,9.509077072143555,1.2077772617340088,0.27816563844680786
1683132149613986600,6.126986572265625,9.832706451416016,1.3435698747634888,-0.3475574851036072
1683132149631826700,6.14482666015625,9.594022750854492,1.3232308626174927,0.45583271980285645
1683132149649652700,6.16265283203125,9.659226417541504,1.4033905267715454,-0.363709032535553
1683132149667496000,6.180495849609375,9.614959716796875,1.0689935684204102,0.28893333673477173
1683132149685336000,6.198336181640625,9.42173957824707,1.4506487846374512,-0.16929219663143158
1683132149703176200,6.21617626953125,9.842875480651855,0.7399803996086121,0.07238288223743439
1683132149721028000,6.234028076171875,9.43609619140625,1.8317056894302368,0.003589233849197626
1683132149738858000,6.25185791015625,9.920044898986816,0.5682953596115112,0.020937198773026466
1683132149756707300,6.269707275390625,9.449854850769043,1.8963119983673096,0.08554340898990631
1683132149774549000,6.287549072265625,10.092328071594238,0.8063812255859375,-0.0005982056609354913
1683132149792389000,6.30538916015625,9.5802640914917,1.435693621635437,-0.0568295381963253
1683132149810229500,6.3232294921875,10.075577735900879,1.1569297313690186,-0.15912270545959473
1683132149828069600,6.341069580078125,9.56052303314209,1.1078768968582153,0.1178465187549591
1683132149845898200,6.358898193359375,9.89970588684082,1.2562319040298462,-0.3086741268634796
1683132149863750400,6.37675048828125,9.449854850769043,1.2849457263946533,0.38703906536102295
1683132149881590500,6.394590576171875,9.81954574584961,1.363310694694519,-0.3236292600631714
1683132149899432700,6.4124326171875,9.661619186401367,1.3052847385406494,0.4582255482673645
1683132149917270000,6.43027001953125,9.554540634155273,1.4213366508483887,-0.29431718587875366
1683132149935111700,6.448111572265625,9.715457916259766,0.8733802437782288,0.18005990982055664
1683132149952951800,6.465951904296875,9.346963882446289,1.607378602027893,-0.09870393574237823
1683132149970792000,6.4837919921875,9.887741088867188,0.582054078578949,0.05623133108019829
1683132149988619500,6.50161962890625,9.399007797241211,1.9710876941680908,0.07178468257188797
1683132150006463000,6.519462890625,10.030712127685547,0.5982056856155396,0.0029910283628851175
1683132150024312600,6.5373125,9.67657470703125,1.7856439352035522,0.04666004329919815
1683132150042153000,6.555153076171875,10.0612211227417,0.9960124492645264,-0.054436713457107544
1683132150059990500,6.572990478515625,9.517452239990234,1.1928220987319946,0.001794616924598813
1683132150077833700,6.590833740234375,10.109077453613281,1.2681959867477417,-0.23688943684101105
1683132150095673900,6.608673828125,9.624530792236328,1.085145115852356,0.26919254660606384
1683132150113500700,6.626500732421875,9.789037704467773,1.2969099283218384,-0.35114672780036926
1683132150131354600,6.644354736328125,9.515657424926758,1.3142578601837158,0.4498506486415863
1683132150149194800,6.66219482421875,9.696913719177246,1.4063814878463745,-0.3332005441188812
1683132150167038000,6.680037841796875,9.581459999084473,1.1395817995071411,0.3164508044719696
1683132150184879000,6.697879150390625,9.372088432312012,1.4632110595703125,-0.2021935135126114
1683132150202716000,6.7157158203125,9.866804122924805,0.6783652305603027,0.09690931439399719
1683132150220553500,6.733553466796875,9.362516403198242,1.82273268699646,-0.01196411345154047
1683132150238386200,6.75138623046875,9.902098655700684,0.5078766345977783,0.03529413416981697
1683132150256236500,6.769236572265625,9.438488960266113,2.018944025039673,0.11485548317432404
1683132150274065000,6.78706494140625,10.088140487670898,0.771087110042572,-0.001794616924598813
1683132150291916500,6.80491650390625,9.628120422363281,1.5379867553710938,0.024526432156562805
1683132150309753300,6.82275341796875,10.088738441467285,1.2699905633926392,-0.14656038582324982
1683132150327597800,6.840597900390625,9.584450721740723,0.9996016621589661,0.0891326442360878
1683132150345438000,6.85843798828125,9.958329200744629,1.2993026971817017,-0.34995031356811523
1683132150363277800,6.87627783203125,9.642477035522461,1.1611171960830688,0.3846462368965149
1683132150381118500,6.894118408203125,9.693922996520996,1.2610175609588623,-0.3445664644241333
1683132150398958800,6.911958740234375,9.65503978729248,1.3256237506866455,0.4468596279621124
1683132150416792300,6.929792236328125,9.550951957702637,1.4632110595703125,-0.26440688967704773
1683132150434639400,6.947639404296875,9.629316329956055,0.9266205430030823,0.20518454909324646
1683132150452481800,6.965481689453125,9.263813018798828,1.592423439025879,-0.12502498924732208
1683132150470315800,6.983315673828125,9.953543663024902,0.5868397355079651,0.0526420995593071
1683132150488156400,7.001156494140625,9.392427444458008,1.9262222051620483,0.03349951654672623
1683132150506001000,7.0190009765625,9.964909553527832,0.5790630578994751,0.0568295381963253
1683132150523840800,7.0368408203125,9.621540069580078,1.882553219795227,0.10468599200248718
1683132150541663000,7.0546630859375,10.16171932220459,1.0450652837753296,-0.04905286431312561
1683132150559515600,7.072515625,9.592825889587402,1.2424731254577637,0.05383851006627083
1683132150577362000,7.09036181640625,9.954740524291992,1.3567304611206055,-0.2757728099822998
1683132150595205000,7.108205078125,9.735198974609375,1.0037890672683716,0.25244277715682983
1683132150613039400,7.126039306640625,9.748359680175781,1.225723385810852,-0.4127618968486786
1683132150630878000,7.1438779296875,9.55633544921875,1.2167502641677856,0.43489551544189453
1683132150648722700,7.16172265625,9.55513858795166,1.3776676654815674,-0.27756741642951965
1683132150666562800,7.179562744140625,9.680164337158203,1.170688509941101,0.3044866919517517
1683132150684403500,7.197403564453125,9.391230583190918,1.5601203441619873,-0.20458634197711945
1683132150702243300,7.215243408203125,9.8267240524292,0.6849454641342163,0.09391828626394272
1683132150720081400,7.233081298828125,9.42353343963623,1.8023936748504639,-0.04007977992296219
1683132150737924400,7.25092431640625,9.942776679992676,0.5641079545021057,0.04905286431312561
1683132150755768600,7.2687685546875,9.409774780273438,1.9561325311660767,0.10229317098855972
1683132150773607200,7.286607177734375,10.048060417175293,0.9194421172142029,0.026919255033135414
1683132150791445200,7.3044453125,9.637691497802734,1.5445669889450073,0.10648060590028763
1683132150809285000,7.32228515625,10.109675407409668,1.3465609550476074,-0.1866401731967926
1683132150827126500,7.34012646484375,9.725627899169922,1.00259268283844,0.16689938306808472
1683132150844966700,7.357966552734375,9.852447509765625,1.3381860256195068,-0.40259242057800293
1683132150862806500,7.375806640625,9.732806205749512,1.0552347898483276,0.3888336718082428
1683132150880636400,7.393636474609375,9.617352485656738,1.2113664150238037,-0.3601198196411133
1683132150898482700,7.411482666015625,9.671789169311523,1.194616675376892,0.37507495284080505
1683132150916327200,7.4293271484375,9.361320495605469,1.5481562614440918,-0.16689938306808472
1683132150934167300,7.447167236328125,9.734601020812988,0.9361918568611145,0.15972091257572174
1683132150952003000,7.465003173828125,9.315258979797363,1.6468602418899536,-0.11246266216039658
1683132150969847600,7.48284765625,9.847063064575195,0.50907301902771,0.05563312768936157
1683132150987684600,7.5006845703125,9.466604232788086,1.8604196310043335,0.023330021649599075
1683132151005528600,7.518528564453125,9.963713645935059,0.6281159520149231,0.019142581149935722
1683132151023355600,7.536355712890625,9.533005714416504,1.8454644680023193,0.15672987699508667
1683132151041208600,7.55420849609375,10.101899147033691,1.205384373664856,-0.11425728350877762
1683132151059051500,7.572051513671875,9.667601585388184,1.2634103298187256,0.1495514214038849
1683132151076888300,7.589888427734375,9.997811317443848,1.5170495510101318,-0.34995031356811523
1683132151094730200,7.607730224609375,9.701101303100586,0.8913264274597168,0.25782662630081177
1683132151112570400,7.6255703125,9.723235130310059,1.2388839721679688,-0.44446679949760437
1683132151130410500,7.643410400390625,9.684351921081543,1.0887342691421509,0.38703906536102295
1683132151148248600,7.66124853515625,9.42353343963623,1.3286148309707642,-0.24167509377002716
1683132151166090000,7.679090087890625,9.811769485473633,1.1162517070770264,0.23688943684101105
1683132151183934500,7.6969345703125,9.339186668395996,1.6857435703277588,-0.0933200865983963
1683132151201766100,7.71476611328125,9.840482711791992,0.6496513485908508,0.03888336941599846
1683132151219608600,7.732608642578125,9.489336013793945,1.7886348962783813,-0.01615155301988125
1683132151237452300,7.750452392578125,9.948160171508789,0.5365904569625854,0.013160524889826775
1683132151255293200,7.768293212890625,9.366703987121582,1.9004993438720703,0.15254244208335876
1683132151273133000,7.786133056640625,9.947562217712402,0.9493523836135864,-0.035892341285943985
1683132151290967600,7.803967529296875,9.595816612243652,1.5170495510101318,0.24047867953777313
1683132151308813300,7.821813232421875,10.072587013244629,1.5248262882232666,-0.2799602448940277
1683132151326653000,7.83965283203125,9.739386558532715,0.9266205430030823,0.2476571500301361
1683132151344494000,7.857494140625,9.908080101013184,1.4572290182113647,-0.46480581164360046
1683132151362332700,7.875332763671875,9.8207426071167,0.9505487680435181,0.33798620104789734
1683132151380175000,7.893175048828125,9.503693580627441,1.2245270013809204,-0.32721850275993347
1683132151398014000,7.911013916015625,9.717252731323242,1.0325030088424683,0.267397940158844
1683132151415855600,7.928855712890625,9.363713264465332,1.6265212297439575,-0.05383851006627083
1683132151433695700,7.94669580078125,9.844072341918945,0.8446664214134216,0.0891326442360878
1683132151451536000,7.964535888671875,9.442078590393066,1.781456470489502,-0.06400800496339798
1683132151469376000,7.9823759765625,9.9140625,0.582054078578949,-0.019740786403417587
1683132151487217000,8.000216796875,9.345169067382812,1.662413477897644,0.029312077909708023
1683132151505057000,8.01805712890625,9.964311599731445,0.8422735929489136,-0.050847481936216354
1683132151522888400,8.035888427734376,9.44028377532959,1.705484390258789,0.28893333673477173
1683132151540737500,8.053737548828124,10.089935302734375,1.4530415534973145,-0.1950150430202484
1683132151558577700,8.07157763671875,9.701101303100586,1.2335001230239868,0.35892340540885925
1683132151576418000,8.08941796875,9.969695091247559,1.537388563156128,-0.44446679949760437
1683132151594246700,8.10724658203125,9.871589660644531,0.8823533654212952,0.20997019112110138
1683132151612098600,8.1250986328125,9.55513858795166,1.3226326704025269,-0.3655036687850952
1683132151629935600,8.142935546875,9.7938232421875,0.8745766878128052,0.20159530639648438
1683132151647779600,8.160779541015625,9.330811500549316,1.566102385520935,-0.08554340898990631
1683132151665605400,8.17860546875,9.722038269042969,0.7549355626106262,0.06759724020957947
1683132151683448300,8.1964482421875,9.406784057617188,1.7838492393493652,-0.015553346835076809
1683132151701288700,8.214288818359375,9.970293998718262,0.7339983582496643,0.04366901144385338
1683132151719137300,8.23213720703125,9.40917682647705,1.4781662225723267,-0.06400800496339798
1683132151736980500,8.24998046875,9.956535339355469,0.9302098155021667,-0.019142581149935722
1683132151754821000,8.267821044921876,9.470791816711426,1.48055899143219,0.14835500717163086
1683132151772652300,8.28565234375,10.028319358825684,1.1922239065170288,-0.17706887423992157
1683132151790501600,8.303501708984374,9.56052303314209,1.3746765851974487,0.381655216217041
1683132151808332500,8.32133251953125,10.03011417388916,1.4841482639312744,-0.3684946894645691
1683132151826182100,8.33918212890625,9.780064582824707,1.0378868579864502,0.32602208852767944
1683132151844022800,8.357022705078125,9.658628463745117,1.44945228099823,-0.3846462368965149
1683132151861863000,8.37486279296875,9.762716293334961,0.8536394834518433,0.18544375896453857
1683132151879691300,8.392691162109376,9.404989242553711,1.5104693174362183,-0.16510476171970367
1683132151897546800,8.410546630859375,9.757930755615234,0.7567301392555237,0.11844471842050552
1683132151915385300,8.42838525390625,9.348159790039062,1.8394824266433716,0.035892341285943985
1683132151933221400,8.446221435546875,9.800403594970703,0.6951149702072144,0.054436713457107544
1683132151951067600,8.464067626953126,9.485747337341309,1.7060825824737549,-0.04666004329919815
1683132151968898600,8.481898681640626,10.060623168945312,0.7902296781539917,-0.04905286431312561
1683132151986745000,8.4997451171875,9.449854850769043,1.3280165195465088,0.008973085321485996
1683132152004585500,8.51758544921875,10.079765319824219,1.119242787361145,-0.14416755735874176
1683132152022425900,8.53542578125,9.471389770507812,1.428515076637268,0.29850462079048157
1683132152040261000,8.55326123046875,9.978070259094238,1.3950155973434448,-0.27756741642951965
1683132152058092800,8.5710927734375,9.656235694885254,1.275374412536621,0.4420739710330963
1683132152075945700,8.58894580078125,9.823135375976562,1.4632110595703125,-0.3888336718082428
1683132152093786600,8.60678662109375,9.787840843200684,0.9266205430030823,0.24287149310112
1683132152111630000,8.624630126953125,9.470791816711426,1.4422738552093506,-0.26560330390930176
1683132152129467400,8.64246728515625,9.790233612060547,0.8117650747299194,0.12442677468061447
1683132152147307500,8.6603076171875,9.397810935974121,1.714457392692566,-0.026919255033135414
1683132152165145900,8.678145751953124,9.871589660644531,0.6508477330207825,0.07058826833963394
1683132152182976500,8.6959765625,9.498908042907715,1.908874273300171,0.0526420995593071
1683132152200828700,8.71382861328125,10.02413272857666,0.7698906660079956,0.014955141581594944
1683132152218671600,8.731671630859376,9.466604232788086,1.4715858697891235,-0.07477571070194244
1683132152236509700,8.749509765625,10.102497100830078,1.0450652837753296,-0.08673982322216034
1683132152254349300,8.767349365234375,9.512067794799805,1.23589289188385,0.10468599200248718
1683132152272190000,8.78518994140625,9.954740524291992,1.1724830865859985,-0.24646073579788208
1683132152290017300,8.803017333984375,9.484550476074219,1.3513466119766235,0.3762713670730591
1683132152307870200,8.8208701171875,9.893723487854004,1.4057832956314087,-0.34576287865638733
1683132152325707800,8.838707763671875,9.669994354248047,1.217348575592041,0.43549370765686035
1683132152343547600,8.856547607421875,9.54197883605957,1.4123635292053223,-0.3439682424068451
1683132152361384000,8.874384033203125,9.780064582824707,0.8470591902732849,0.18005990982055664
1683132152379233300,8.8922333984375,9.33141040802002,1.5272190570831299,-0.13280165195465088
1683132152397072000,8.91007177734375,9.809974670410156,0.6741777658462524,0.062213387340307236
1683132152414913300,8.927913330078125,9.40917682647705,1.929213285446167,0.06400800496339798
1683132152432752600,8.945752685546875,9.983454704284668,0.6442674994468689,0.010767702013254166
1683132152450592800,8.9635927734375,9.493523597717285,1.828116536140442,-0.0005982056609354913
1683132152468433000,8.981432861328125,10.067203521728516,0.875174880027771,-0.058624155819416046
1683132152486271500,8.999271484375,9.585049629211426,1.2478569746017456,-0.03349951654672623
1683132152504102100,9.01710205078125,10.010972023010254,1.1653046607971191,-0.15194423496723175
1683132152521953800,9.034953857421876,9.499505996704102,1.2352946996688843,0.1860419660806656
1683132152539794200,9.052794189453126,9.915857315063477,1.3004990816116333,-0.32123643159866333
1683132152557635800,9.0706357421875,9.570094108581543,1.327418327331543,0.4582255482673645
1683132152575475200,9.08847509765625,9.77527904510498,1.4063814878463745,-0.3768695592880249
1683132152593315300,9.1063154296875,9.66939640045166,1.0929217338562012,0.35413774847984314
1683132152611151000,9.124151123046875,9.572486877441406,1.4464613199234009,-0.2602194547653198
1683132152628995600,9.14199560546875,9.79681396484375,0.7776673436164856,0.11904292553663254
1683132152646836200,9.159836181640625,9.345169067382812,1.6821542978286743,-0.04307080805301666
1683132152664673800,9.177673828125,9.961320877075195,0.6083751320838928,0.06999006122350693
1683132152682515500,9.195515380859375,9.394820213317871,1.9459630250930786,0.11126625537872314
1683132152700354600,9.2133544921875,10.040882110595703,0.7184450030326843,-0.003589233849197626
1683132152718193700,9.231193603515624,9.626923561096191,1.5900306701660156,-0.037088751792907715
1683132152736034000,9.249033935546874,10.06002426147461,1.0492527484893799,-0.09272187948226929
1683132152753878300,9.266878173828125,9.517452239990234,1.1569297313690186,0.04187439754605293
1683132152771718400,9.284718505859376,9.990034103393555,1.2005987167358398,-0.259621262550354
1683132152789558500,9.30255859375,9.491130828857422,1.2783654928207397,0.3481557071208954
1683132152807400200,9.320400146484374,9.851250648498535,1.3716856241226196,-0.33738797903060913
1683132152825239300,9.3382392578125,9.636494636535645,1.2705888748168945,0.4749752879142761
1683132152843079400,9.356079345703124,9.652048110961914,1.4165509939193726,-0.3332005441188812
1683132152860919800,9.373919921875,9.689735412597656,0.9475577473640442,0.23688943684101105
1683132152878749400,9.39174951171875,9.316454887390137,1.4662020206451416,-0.13998012244701385
1683132152896603100,9.40960302734375,9.894919395446777,0.672383189201355,0.03409772366285324
1683132152914440700,9.427440673828125,9.474381446838379,1.8640087842941284,0.0687936544418335
1683132152932276500,9.4452763671875,9.955338478088379,0.5653043389320374,-0.004785645287483931
1683132152950121000,9.463120849609375,9.567103385925293,1.8987047672271729,0.07477571070194244
1683132152967961300,9.48096142578125,10.120443344116211,0.8739784955978394,-0.04366901144385338
1683132152985801700,9.4988017578125,9.492327690124512,1.3142578601837158,-0.01615155301988125
1683132153003641900,9.516641845703125,10.076175689697266,1.2340983152389526,-0.17946170270442963
1683132153021482500,9.534482421875,9.605986595153809,1.085145115852356,0.1818545162677765
1683132153039308300,9.552308349609374,9.839884757995605,1.2741780281066895,-0.3164508044719696
1683132153057162000,9.570161865234375,9.503693580627441,1.3196417093276978,0.4091726839542389
1683132153075004400,9.58800439453125,9.726823806762695,1.3854442834854126,-0.35473597049713135
1683132153092844000,9.605843994140624,9.618548393249512,1.2317054271697998,0.389431893825531
1683132153110684000,9.623683837890624,9.507282257080078,1.423729419708252,-0.243469700217247
1683132153128525000,9.641525146484375,9.81356430053711,0.7561319470405579,0.12681959569454193
1683132153146361900,9.65936181640625,9.340981483459473,1.7072789669036865,-0.054436713457107544
1683132153164204800,9.677204833984375,9.92542839050293,0.5443671345710754,0.0364905446767807
1683132153182033400,9.695033447265626,9.418149948120117,1.9986051321029663,0.09870393574237823
1683132153199875000,9.712875,10.068997383117676,0.6885347366333008,-0.0023928226437419653
1683132153217728000,9.73072802734375,9.712467193603516,1.6456637382507324,0.0323031060397625
1683132153235555000,9.74855517578125,10.103693962097168,1.109073281288147,-0.08255238085985184
1683132153253406500,9.766406494140625,9.5533447265625,1.098305583000183,0.049651071429252625
1683132153271242200,9.7842421875,10.017552375793457,1.2801600694656372,-0.27756741642951965
1683132153289087200,9.802087158203125,9.552745819091797,1.1563315391540527,0.32662028074264526
1683132153306927000,9.819927001953126,9.720842361450195,1.3405789136886597,-0.34576287865638733
1683132153324770600,9.8377705078125,9.587442398071289,1.31365966796875,0.4534398913383484
1683132153342609200,9.855609130859374,9.575477600097656,1.4602199792861938,-0.25244277715682983
1683132153360450800,9.873450927734375,9.667601585388184,1.0259226560592651,0.24287149310112
1683132153378288400,9.891288330078124,9.370293617248535,1.5122638940811157,-0.17108681797981262
1683132153396129800,9.9091298828125,9.790233612060547,0.6203392744064331,0.061016976833343506
1683132153413969200,9.92696923828125,9.353543281555176,1.8807586431503296,-0.01375873014330864
1683132153431809500,9.9448095703125,9.961918830871582,0.5389832854270935,0.052043892443180084
1683132153449649400,9.9626494140625,9.548559188842773,1.9417755603790283,0.10588239878416061
1683132153467489500,9.980489501953125,10.13180923461914,0.9343972206115723,-0.008973085321485996
1683132153485321500,9.998321533203125,9.685547828674316,1.4195420742034912,0.03409772366285324
1683132153503170600,10.016170654296875,10.075577735900879,1.3351950645446777,-0.19142581522464752
1683132153521011000,10.034010986328125,9.652647018432617,1.0307083129882812,0.16271193325519562
1683132153538841900,10.051841796875,9.865009307861328,1.272383451461792,-0.37806597352027893
1683132153556691700,10.069691650390626,9.483952522277832,1.2293126583099365,0.41575294733047485
1683132153574513700,10.087513671875,9.654440879821777,1.3369896411895752,-0.3242274820804596
1683132153592372000,10.1053720703125,9.686744689941406,1.2717852592468262,0.3655036687850952
1683132153610212400,10.12321240234375,9.42054271697998,1.4877375364303589,-0.2315055876970291
1683132153628052500,10.141052490234374,9.808777809143066,0.7651050686836243,0.11844471842050552
1683132153645894100,10.15889404296875,9.394820213317871,1.674975872039795,-0.09032905846834183
1683132153663733200,10.176733154296874,9.966106414794922,0.5718846321105957,0.038285162299871445
1683132153681559000,10.19455908203125,9.401400566101074,1.9579271078109741,0.05144568532705307
1683132153699402800,10.21240283203125,10.076175689697266,0.6915257573127747,0.03469592705368996
1683132153717242600,10.23024267578125,9.667601585388184,1.7126628160476685,0.12502498924732208
1683132153735097000,10.24809716796875,10.107880592346191,1.1647064685821533,-0.10707881301641464
1683132153752934700,10.2659345703125,9.57787036895752,1.1240284442901611,0.09511470049619675
1683132153770774500,10.2837744140625,9.917651176452637,1.3716856241226196,-0.29790642857551575
1683132153788612900,10.30161279296875,9.746564865112305,1.0378868579864502,0.33379876613616943
1683132153806455000,10.319455078125,9.650253295898438,1.2305090427398682,-0.4007977843284607
1683132153824295700,10.337295654296875,9.596415519714355,1.2400803565979004,0.4043870270252228
1683132153842136300,10.35513623046875,9.476774215698242,1.4913266897201538,-0.2309073805809021
1683132153859976400,10.3729765625,9.710672378540039,1.0683952569961548,0.22133609652519226
1683132153877816600,10.390816650390626,9.298508644104004,1.6205391883850098,-0.18903298676013947
1683132153895658200,10.408658203125,9.873982429504395,0.5647061467170715,0.022133609279990196
1683132153913497300,10.426497314453124,9.542576789855957,1.8442680835723877,-0.04366901144385338
1683132153931337500,10.44433740234375,9.987641334533691,0.584446907043457,0.026919255033135414
1683132153949177600,10.462177490234374,9.522237777709961,1.9244276285171509,0.12323036789894104
1683132153967016200,10.48001611328125,10.077970504760742,1.028315544128418,-0.013160524889826775
1683132153984856300,10.497856201171874,9.70349407196045,1.4422738552093506,0.12263216078281403
1683132154002695700,10.51569580078125,9.997811317443848,1.399801254272461,-0.24945175647735596
1683132154020536300,10.533536376953125,9.733404159545898,0.9230313301086426,0.20937198400497437
1683132154038370300,10.551370361328125,9.779465675354004,1.2550355195999146,-0.43968117237091064
1683132154056219600,10.5692197265625,9.769296646118164,1.0618150234222412,0.4289134442806244
1683132154074060000,10.58706005859375,9.488738059997559,1.2945170402526855,-0.3284149169921875
1683132154091900200,10.604900146484376,9.701699256896973,1.1994023323059082,0.2883351147174835
1683132154109740000,10.622739990234376,9.396614074707031,1.6061822175979614,-0.13040883839130402
1683132154127580400,10.640580322265626,9.81117057800293,0.7890332937240601,0.08374879509210587
1683132154145421300,10.65842138671875,9.34457015991211,1.7353945970535278,-0.04426721855998039
1683132154163261200,10.67626123046875,9.94397258758545,0.5216353535652161,0.04007977992296219
1683132154181101800,10.694101806640624,9.56471061706543,1.929213285446167,0.059820566326379776
1683132154198941700,10.711941650390624,9.930811882019043,0.7280163168907166,0.029312077909708023
1683132154216783000,10.729783203125,9.64965534210205,1.662413477897644,0.16749759018421173
1683132154234622000,10.7476220703125,10.101899147033691,1.3561322689056396,-0.15254244208335876
1683132154252462600,10.765462646484375,9.623932838439941,1.0803594589233398,0.1621137410402298
1683132154270303000,10.783302978515625,9.920642852783203,1.5427724123001099,-0.39541393518447876
1683132154288147200,10.801147216796876,9.741181373596191,0.8901300430297852,0.3032902777194977
1683132154305970700,10.818970703125,9.596415519714355,1.2113664150238037,-0.4378865361213684
1683132154323823900,10.836823974609375,9.67657470703125,1.1072787046432495,0.34277185797691345
1683132154341659600,10.85465966796875,9.33739185333252,1.3806586265563965,-0.19561325013637543
1683132154359504100,10.872504150390625,9.78843879699707,1.0426725149154663,0.12801600992679596
1683132154377344800,10.8903447265625,9.467801094055176,1.7066807746887207,-0.10049854964017868
1683132154395188200,10.908188232421875,9.832706451416016,0.5383850932121277,-0.0077766734175384045
1683132154413025300,10.926025390625,9.4390869140625,1.8035900592803955,-0.0323031060397625
1683132154430865400,10.943865478515624,9.975079536437988,0.6299105882644653,0.018544375896453857
1683132154448706800,10.961706787109375,9.452845573425293,1.8681962490081787,0.17527425289154053
1683132154466543400,10.97954345703125,9.970293998718262,1.1341979503631592,-0.06161518394947052
1683132154484386600,10.997386474609375,9.64965534210205,1.3316057920455933,0.267397940158844
1683132154502224600,11.015224609375,10.139585494995117,1.5810575485229492,-0.34217363595962524
1683132154520066800,11.03306689453125,9.718449592590332,0.8590233325958252,0.27696922421455383
1683132154537909500,11.050909423828125,9.702896118164062,1.4189438819885254,-0.45583271980285645
1683132154555747600,11.06874755859375,9.843474388122559,0.9984052777290344,0.357128769159317
1683132154573588000,11.086587890625,9.427123069763184,1.2394821643829346,-0.27756741642951965
1683132154591428400,11.104428466796875,9.744172096252441,1.0211371183395386,0.19202402234077454
1683132154609268000,11.12226806640625,9.419346809387207,1.7018951177597046,-0.0364905446767807
1683132154627108900,11.14010888671875,9.808777809143066,0.7627122402191162,0.052043892443180084
1683132154644950000,11.157949951171876,9.428318977355957,1.7670994997024536,-0.050847481936216354
1683132154662789600,11.17578955078125,9.965508460998535,0.5605186820030212,0.004187439568340778
1683132154680629500,11.19362939453125,9.393025398254395,1.7156537771224976,0.08853443711996078
1683132154698469400,11.211469482421874,9.937990188598633,0.9690931439399719,-0.03349951654672623
1683132154716308500,11.22930859375,9.471988677978516,1.597209095954895,0.27696922421455383
1683132154734150100,11.247150146484374,10.191031455993652,1.5092729330062866,-0.267397940158844
1683132154751990500,11.264990478515625,9.732806205749512,1.1054840087890625,0.31345975399017334
1683132154769820000,11.28281982421875,9.89432144165039,1.5451651811599731,-0.4701896607875824
1683132154787670000,11.300669921875,9.91825008392334,0.8368897438049316,0.22013968229293823
1683132154805504500,11.31850439453125,9.510871887207031,1.3262219429016113,-0.3732803463935852
1683132154823351800,11.336351806640625,9.725028991699219,0.8512466549873352,0.1746760457754135
1683132154841192000,11.35419189453125,9.395418167114258,1.597209095954895,-0.048454657196998596
1683132154859032800,11.37203271484375,9.827322959899902,0.8003991842269897,0.08554340898990631
1683132154876869600,11.38986962890625,9.489934921264648,1.740180253982544,-0.006580262444913387
1683132154894713000,11.407713134765626,9.884750366210938,0.649053156375885,0.03469592705368996
1683132154912553200,11.42555322265625,9.42473030090332,1.5469598770141602,-0.0005982056609354913
1683132154930393300,11.443393310546876,9.926026344299316,0.9068797826766968,-0.03290131315588951
1683132154948229600,11.461229736328125,9.469595909118652,1.5750755071640015,0.2548356056213379
1683132154966071000,11.479071044921875,10.056435585021973,1.3262219429016113,-0.15613168478012085
1683132154983914000,11.4969140625,9.671789169311523,1.3549357652664185,0.39541393518447876
1683132155001751800,11.514751708984376,10.028319358825684,1.4901303052902222,-0.4019941985607147
1683132155019594500,11.532594482421874,9.77408218383789,0.9786644577980042,0.2787638306617737
1683132155037436700,11.550436767578125,9.581459999084473,1.3854442834854126,-0.4384847581386566
1683132155055275500,11.568275634765625,9.822537422180176,0.9194421172142029,0.18364913761615753
1683132155073115400,11.586115478515625,9.365508079528809,1.4715858697891235,-0.16331014037132263
1683132155090955800,11.603955810546875,9.824930191040039,0.8069794178009033,0.10229317098855972
1683132155108789800,11.621789794921876,9.370891571044922,1.8263218402862549,0.049651071429252625
1683132155126636300,11.63963623046875,9.865608215332031,0.7040880918502808,0.04007977992296219
1683132155144476400,11.657476318359375,9.54377269744873,1.6755740642547607,-0.004785645287483931
1683132155162316800,11.67531689453125,9.959526062011719,0.7244270443916321,-0.005383851006627083
1683132155180157000,11.693156982421876,9.404391288757324,1.4380863904953003,0.0364905446767807
1683132155197997600,11.71099755859375,10.025328636169434,1.0654042959213257,-0.11425728350877762
1683132155215837400,11.72883740234375,9.4390869140625,1.4769697189331055,0.30149564146995544
1683132155233677800,11.746677734375,10.078569412231445,1.456032633781433,-0.2835494875907898
1683132155251518000,11.76451806640625,9.750752449035645,1.2059825658798218,0.39541393518447876
1683132155269358000,11.782358154296874,9.853643417358398,1.4931213855743408,-0.38644084334373474
1683132155287201500,11.800201416015625,9.900901794433594,0.8937192559242249,0.23688943684101105
1683132155305032200,11.8180322265625,9.519845008850098,1.409970760345459,-0.3415754437446594
1683132155322879000,11.83587890625,9.707083702087402,0.8913264274597168,0.20817556977272034
1683132155340719600,11.8537197265625,9.32004451751709,1.664208173751831,-0.03349951654672623
1683132155358553600,11.8715537109375,9.829116821289062,0.7758727669715881,0.08673982322216034
1683132155376400100,11.889400146484375,9.456435203552246,1.8059829473495483,0.037088751792907715
1683132155394240300,11.907240234375,9.946365356445312,0.6699903607368469,0.006580262444913387
1683132155412083500,11.92508349609375,9.486345291137695,1.5427724123001099,-0.039481572806835175
1683132155429911600,11.94291162109375,9.967302322387695,0.908674418926239,-0.04127619042992592
1683132155447766000,11.96076611328125,9.416953086853027,1.4895321130752563,0.15134602785110474
1683132155465598200,11.97859814453125,10.027721405029297,1.2478569746017456,-0.18305093050003052
1683132155483441700,11.996441650390626,9.516255378723145,1.3806586265563965,0.41156548261642456
1683132155501278700,12.01427880859375,9.947562217712402,1.5050854682922363,-0.33499518036842346
1683132155519121700,12.03212158203125,9.79262638092041,1.0319048166275024,0.33439695835113525
1683132155536962300,12.04996240234375,9.677172660827637,1.428515076637268,-0.38644084334373474
1683132155554802400,12.067802490234374,9.833903312683105,0.8482556343078613,0.1824527233839035
1683132155572642800,12.085642822265624,9.416953086853027,1.4835500717163086,-0.14057832956314087
1683132155590483200,12.103483154296875,9.798608779907227,0.8081758618354797,0.14715859293937683
1683132155608319000,12.121319091796876,9.385847091674805,1.843071699142456,0.08255238085985184
1683132155626166300,12.139166259765625,9.863214492797852,0.7076773047447205,0.012562318705022335
1683132155644003800,12.15700390625,9.493523597717285,1.7587246894836426,-0.024526432156562805
1683132155661841400,12.17484130859375,10.067203521728516,0.8219345808029175,-0.06819544732570648
1683132155679678500,12.192678466796876,9.511469841003418,1.3196417093276978,-0.012562318705022335
1683132155697524700,12.210524658203125,9.984650611877441,1.100698471069336,-0.14356936514377594
1683132155715354600,12.228354736328125,9.501300811767578,1.3369896411895752,0.2632105052471161
1683132155733193500,12.246193359375,9.89432144165039,1.4009976387023926,-0.2997010350227356
1683132155751037000,12.264036865234376,9.641879081726074,1.2275179624557495,0.44446679949760437
1683132155768885200,12.28188525390625,9.818947792053223,1.4488540887832642,-0.37866419553756714
1683132155786726100,12.29972607421875,9.769296646118164,0.9696913957595825,0.2745763957500458
1683132155804565800,12.317565673828126,9.480961799621582,1.3968101739883423,-0.23389841616153717
1683132155822406400,12.335406494140624,9.883553504943848,0.7884350419044495,0.10827522724866867
1683132155840246300,12.353246337890624,9.332008361816406,1.7587246894836426,-0.01136590726673603
1683132155858087200,12.371087158203125,9.90688419342041,0.5868397355079651,0.035892341285943985
1683132155875926300,12.38892626953125,9.490532875061035,1.922034740447998,0.06819544732570648
1683132155893767700,12.406767578125,10.108479499816895,0.7770691514015198,-0.005982056725770235
1683132155911607600,12.424607666015625,9.512666702270508,1.44945228099823,-0.04546362906694412
1683132155929447700,12.44244775390625,10.015159606933594,1.1102696657180786,-0.12382857501506805
1683132155947288800,12.460288818359375,9.609575271606445,1.150349497795105,0.09451649338006973
1683132155965111800,12.47811181640625,10.009775161743164,1.2370892763137817,-0.2715853750705719
1683132155982968800,12.49596875,9.483354568481445,1.3058829307556152,0.3678964674472809
1683132156000797200,12.513797119140625,9.826126098632812,1.3956137895584106,-0.35054850578308105
1683132156018645800,12.531645751953125,9.719645500183105,1.2370892763137817,0.43968117237091064
1683132156036481800,12.549481689453126,9.602995872497559,1.4135600328445435,-0.30628129839897156
1683132156054329600,12.56732958984375,9.717850685119629,0.8500502705574036,0.1698904037475586
1683132156072166100,12.585166259765625,9.443872451782227,1.5601203441619873,-0.11186445504426956
1683132156089998600,12.60299853515625,9.9469633102417,0.6855437159538269,0.06759724020957947
1683132156107853300,12.620853271484375,9.364909172058105,1.948355793952942,0.08853443711996078
1683132156125691000,12.63869091796875,10.002596855163574,0.5850451588630676,0.010169495828449726
1683132156143533600,12.656533447265625,9.598209381103516,1.8436698913574219,0.06759724020957947
1683132156161370400,12.674370361328124,10.031908988952637,0.9092726111412048,-0.050847481936216354
1683132156179211300,12.692211181640625,9.527023315429688,1.2095718383789062,-0.03290131315588951
1683132156197050600,12.710050537109375,10.045069694519043,1.2544373273849487,-0.16689938306808472
1683132156214892800,12.727892822265625,9.57607650756836,1.1270195245742798,0.21655045449733734
1683132156232732200,12.745732177734375,9.909276962280273,1.292722463607788,-0.29730820655822754
1683132156250572300,12.763572265625,9.524630546569824,1.3645070791244507,0.4612165689468384
1683132156268413400,12.781413330078125,9.7998046875,1.439282774925232,-0.3684946894645691
1683132156286251500,12.79925146484375,9.637093544006348,1.174277663230896,0.33918261528015137
1683132156304093000,12.817093017578125,9.497113227844238,1.3980066776275635,-0.2273181527853012
1683132156321928700,12.8349287109375,9.808777809143066,0.7794619798660278,0.11246266216039658
1683132156339773200,12.852773193359376,9.329017639160156,1.7569299936294556,0.006580262444913387
1683132156357614000,12.870614013671876,9.908080101013184,0.527019202709198,0.031106693670153618
1683132156375454200,12.8884541015625,9.439684867858887,2.059622049331665,0.09690931439399719
1683132156393294600,12.906294677734374,10.097711563110352,0.6885347366333008,-0.03409772366285324
1683132156411134500,12.924134521484374,9.623932838439941,1.5906288623809814,-0.023330021649599075
1683132156428963300,12.94196337890625,10.112068176269531,1.1455638408660889,-0.09511470049619675
1683132156446815700,12.959815673828125,9.617950439453125,1.0857433080673218,0.048454657196998596
1683132156464648000,12.97764794921875,9.957133293151855,1.2681959867477417,-0.268594354391098
1683132156482495500,12.99549560546875,9.514460563659668,1.211964726448059,0.3044866919517517
1683132156500335400,13.01333544921875,9.822537422180176,1.3489537239074707,-0.3643072545528412
1683132156518164200,13.031164306640624,9.624530792236328,1.3411771059036255,0.4773681163787842
1683132156536003300,13.04900341796875,9.613164901733398,1.3962119817733765,-0.3409772217273712
1683132156553856500,13.0668564453125,9.737591743469238,0.9828519225120544,0.25004997849464417
1683132156571697000,13.08469677734375,9.383454322814941,1.490728497505188,-0.13579268753528595
1683132156589537000,13.102537109375,9.875179290771484,0.672383189201355,0.05802594870328903
1683132156607379700,13.120379638671874,9.361918449401855,1.8861424922943115,0.04666004329919815
1683132156625217300,13.13821728515625,9.988838195800781,0.5341976284980774,-0.004785645287483931
1683132156643058700,13.15605859375,9.507881164550781,1.9363917112350464,0.09690931439399719
1683132156660897800,13.173897705078126,10.090533256530762,0.8392825126647949,-0.04486542567610741
1683132156678738000,13.191738037109374,9.614959716796875,1.316650629043579,-0.05742774158716202
1683132156696581000,13.2095810546875,10.068399429321289,1.2897313833236694,-0.17647066712379456
1683132156714418400,13.22741845703125,9.597013473510742,1.0414760112762451,0.1579262912273407
1683132156732258600,13.245258544921874,9.91286563873291,1.292722463607788,-0.30149564146995544
1683132156750099000,13.263098876953125,9.504291534423828,1.2855439186096191,0.4163511395454407
1683132156767937800,13.280937744140624,9.704092025756836,1.373480200767517,-0.33499518036842346
1683132156785779700,13.29877978515625,9.719645500183105,1.3124631643295288,0.388235479593277
1683132156803619300,13.316619384765625,9.489934921264648,1.4207384586334229,-0.28235307335853577
1683132156821459700,13.334459716796875,9.767501831054688,0.7591229677200317,0.11306086927652359
1683132156839294000,13.3522939453125,9.393623352050781,1.6869399547576904,-0.0568295381963253
1683132156857140200,13.37014013671875,9.879964828491211,0.5246263742446899,0.037088751792907715
1683132156874981600,13.387981689453126,9.42054271697998,2.0003998279571533,0.08434699475765228
1683132156892820700,13.40582080078125,10.097113609313965,0.6394818425178528,-0.02273181453347206
1683132156910661000,13.4236611328125,9.67238712310791,1.638485312461853,0.030508488416671753
1683132156928501000,13.4415009765625,10.122238159179688,1.1312068700790405,-0.06640082597732544
1683132156946341400,13.45934130859375,9.639486312866211,1.088136076927185,0.047258246690034866
1683132156964175400,13.47717529296875,9.995418548583984,1.2885349988937378,-0.24586252868175507
1683132156982023400,13.4950234375,9.598209381103516,1.0911271572113037,0.2919243574142456
1683132156999851500,13.5128515625,9.80518913269043,1.2610175609588623,-0.37926238775253296
1683132157017702700,13.53070263671875,9.58205795288086,1.368694543838501,0.44327038526535034
1683132157035538000,13.548537841796875,9.546764373779297,1.4021940231323242,-0.2871387302875519
1683132157053383000,13.5663828125,9.68913745880127,1.0809576511383057,0.259621262550354
1683132157071227600,13.5842275390625,9.351150512695312,1.4985052347183228,-0.16151553392410278
1683132157089057500,13.6020576171875,9.78544807434082,0.6047859191894531,0.05742774158716202
1683132157106907100,13.6199072265625,9.410971641540527,1.8975083827972412,-0.015553346835076809
1683132157124743700,13.63774365234375,9.972088813781738,0.4953143000602722,0.02273181453347206
1683132157142585600,13.655585693359376,9.525228500366211,1.9441684484481812,0.09571290761232376
1683132157160419300,13.67341943359375,10.158130645751953,0.9098708033561707,-0.029312077909708023
1683132157178260500,13.691260498046875,9.659226417541504,1.4039887189865112,0.010767702013254166
1683132157196103400,13.709103515625,10.039087295532227,1.332203984260559,-0.17946170270442963
1683132157213944800,13.72694482421875,9.667601585388184,0.9840483069419861,0.1381855010986328
1683132157231785200,13.74478515625,9.909276962280273,1.2843475341796875,-0.37088751792907715
1683132157249624800,13.762624755859376,9.601201057434082,1.2035897970199585,0.42711883783340454
1683132157267465200,13.78046533203125,9.617352485656738,1.2891331911087036,-0.3188436031341553
1683132157285308700,13.79830859375,9.647860527038574,1.3022937774658203,0.3858426511287689
1683132157303146000,13.81614599609375,9.471988677978516,1.5158531665802002,-0.21355941891670227
1683132157320985900,13.83398583984375,9.77408218383789,0.8039883971214294,0.1453639715909958
1683132157338826200,13.851826171875,9.311071395874023,1.6803597211837769,-0.09152546525001526
1683132157356667600,13.869667724609375,9.944570541381836,0.5485545992851257,0.05503492057323456
1683132157374506800,13.8875068359375,9.41755199432373,1.9860427379608154,0.05563312768936157
1683132157392347100,13.90534716796875,10.012765884399414,0.656829833984375,0.03170489892363548
1683132157410175500,13.923175537109374,9.631111145019531,1.726421594619751,0.12382857501506805
1683132157428027400,13.94102734375,10.125228881835938,1.2113664150238037,-0.08733802288770676
1683132157445867500,13.958867431640625,9.68494987487793,1.1198409795761108,0.05383851006627083
1683132157463695400,13.9766953125,9.968499183654785,1.3968101739883423,-0.3008974492549896
1683132157481543400,13.99454345703125,9.70349407196045,0.9954141974449158,0.29371899366378784
1683132157499387100,14.01238720703125,9.701699256896973,1.1832507848739624,-0.4145565330982208
1683132157517231400,14.0302314453125,9.633503913879395,1.2245270013809204,0.4103690981864929
1683132157535069000,14.04806884765625,9.42173957824707,1.4207384586334229,-0.22073788940906525
1683132157552909000,14.065908935546876,9.68076229095459,1.0707881450653076,0.23988047242164612
1683132157570752500,14.08375244140625,9.374481201171875,1.5774682760238647,-0.1543370634317398
1683132157588589000,14.101589111328124,9.818349838256836,0.5802595019340515,0.047258246690034866
1683132157606433500,14.11943359375,9.361320495605469,1.8197416067123413,-0.02751746028661728
1683132157624269600,14.13726953125,10.023533821105957,0.5886343717575073,0.04486542567610741
1683132157642111000,14.155111083984375,9.575477600097656,1.9561325311660767,0.13040883839130402
1683132157659950300,14.172950439453125,10.03848934173584,0.9978070259094238,-0.0005982056609354913
1683132157677791500,14.19079150390625,9.632905960083008,1.43389892578125,0.13698910176753998
1683132157695630600,14.208630615234375,10.109077453613281,1.4799607992172241,-0.24885354936122894
1683132157713467600,14.226467529296874,9.76391315460205,0.9110672473907471,0.17946170270442963
1683132157731299300,14.24429931640625,9.806385040283203,1.3094722032546997,-0.45583271980285645
1683132157749140500,14.262140380859375,9.778867721557617,1.0360921621322632,0.39481574296951294
1683132157766979800,14.279979736328125,9.5324068069458,1.2245270013809204,-0.3487538993358612
1683132157784831000,14.2978310546875,9.713663101196289,1.155733346939087,0.30628129839897156
1683132157802671600,14.315671630859375,9.397212982177734,1.566102385520935,-0.12861421704292297
1683132157820509400,14.333509521484375,9.787840843200684,0.8644071817398071,0.09990034252405167
1683132157838356500,14.3513564453125,9.29611587524414,1.7383856773376465,-0.02392822690308094
1683132157856191000,14.36919091796875,9.879366874694824,0.4875376224517822,0.06640082597732544
1683132157874032400,14.387032470703126,9.558130264282227,1.933998942375183,0.07058826833963394
1683132157891872800,14.404872802734374,9.93559741973877,0.7411768436431885,0.04127619042992592
1683132157909712600,14.422712646484374,9.589237213134766,1.6785650253295898,0.1740778535604477
1683132157927554300,14.44055419921875,10.124032974243164,1.3764712810516357,-0.16809579730033875
1683132157945393400,14.458393310546874,9.674779891967773,1.0683952569961548,0.18723836541175842
1683132157963233300,14.4762333984375,10.107880592346191,1.5637096166610718,-0.39421752095222473
1683132157981073400,14.494073486328125,9.833903312683105,0.8500502705574036,0.3278166949748993
1683132157998914600,14.51191455078125,9.622138023376465,1.2299108505249023,-0.38644084334373474
1683132158016744700,14.52974462890625,9.76989459991455,1.1228320598602295,0.36670008301734924
1683132158034594300,14.54759423828125,9.419346809387207,1.4177473783493042,-0.12801600992679596
1683132158052434000,14.565433837890625,9.801599502563477,1.0151549577713013,0.13878370821475983
1683132158070274800,14.58327490234375,9.449256896972656,1.7850457429885864,-0.08374879509210587
1683132158088117800,14.60111767578125,9.90269660949707,0.5509474277496338,-0.03469592705368996
1683132158105954000,14.6189541015625,9.470193862915039,1.7563318014144897,-0.004187439568340778
1683132158123795200,14.636795166015625,9.930213928222656,0.6783652305603027,0.01734796352684498
1683132158141635600,14.654635498046876,9.33559799194336,1.7593228816986084,0.1866401731967926
1683132158159479800,14.672479736328125,9.959526062011719,1.2352946996688843,-0.10648060590028763
1683132158177314600,14.690314453125,9.659226417541504,1.3196417093276978,0.3044866919517517
1683132158195153200,14.708153076171875,10.083952903747559,1.6121642589569092,-0.3403790295124054
1683132158212984600,14.725984619140625,9.767501831054688,0.8955138921737671,0.27696922421455383
1683132158230836500,14.74383642578125,9.725028991699219,1.3405789136886597,-0.45224347710609436
1683132158248677400,14.761677490234375,9.855438232421875,0.9326026439666748,0.2590230405330658
1683132158266505500,14.77950537109375,9.44746208190918,1.3680963516235352,-0.19800607860088348
1683132158284356900,14.79735693359375,9.760921478271484,0.851844847202301,0.15194423496723175
1683132158302197200,14.815197265625,9.404989242553711,1.7174484729766846,-0.010169495828449726
1683132158320037000,14.833037109375,9.845867156982422,0.755533754825592,0.06819544732570648
1683132158337877500,14.85087744140625,9.441479682922363,1.6271194219589233,-0.029312077909708023
1683132158355717400,14.86871728515625,9.89551830291748,0.747757077217102,0.0077766734175384045
1683132158373557800,14.886557861328125,9.401998519897461,1.5200406312942505,0.09810572862625122
1683132158391386600,14.90438671875,10.006784439086914,1.0839486122131348,-0.1010967567563057
1683132158409237800,14.92223779296875,9.498908042907715,1.4380863904953003,0.3326023519039154
1683132158427078400,14.940078369140625,10.119247436523438,1.4763715267181396,-0.30927231907844543
1683132158444919300,14.957919189453126,9.771689414978027,1.1389836072921753,0.3655036687850952
1683132158462758700,14.975758544921876,9.761520385742188,1.456032633781433,-0.41874396800994873
1683132158480587000,14.9935869140625,9.859625816345215,0.8626125454902649,0.21296121180057526
1683132158498432800,15.011432861328124,9.494122505187988,1.4476577043533325,-0.2350948303937912
1683132158516264000,15.029263916015625,9.710074424743652,0.8434699773788452,0.1663011759519577
1683132158534119400,15.047119384765624,9.33440113067627,1.7485551834106445,0.004187439568340778
1683132158551957500,15.06495751953125,9.832706451416016,0.7369893789291382,0.052043892443180084
1683132158569802200,15.08280224609375,9.482755661010742,1.771286964416504,-0.008973085321485996
1683132158587641600,15.1006416015625,9.999007225036621,0.7070791125297546,0.005383851006627083
1683132158605480200,15.118480224609375,9.473783493041992,1.4279168844223022,-0.03349951654672623
1683132158623324200,15.13632421875,10.017552375793457,1.0348957777023315,-0.08733802288770676
1683132158641160400,15.154160400390625,9.407979965209961,1.4476577043533325,0.19381862878799438
1683132158659001000,15.1720009765625,10.003194808959961,1.2969099283218384,-0.20817556977272034
1683132158676840700,15.1898408203125,9.655637741088867,1.317248821258545,0.41994038224220276
1683132158694681000,15.20768115234375,9.924830436706543,1.4739787578582764,-0.3846462368965149
1683132158712521200,15.225521240234375,9.789037704467773,0.9846464991569519,0.28534409403800964
1683132158730361600,15.243361572265625,9.626923561096191,1.420140266418457,-0.3080759048461914
1683132158748198100,15.2611982421875,9.786046028137207,0.8721838593482971,0.15194423496723175
1683132158766042000,15.2790419921875,9.33440113067627,1.5810575485229492,-0.08733802288770676
1683132158783881700,15.2968818359375,9.780064582824707,0.7387840151786804,0.10827522724866867
1683132158801722000,15.31472216796875,9.380462646484375,1.9148563146591187,0.09631111472845078
1683132158819556000,15.33255615234375,9.970293998718262,0.7124629616737366,0.026919255033135414
1683132158837402600,15.350402587890626,9.56052303314209,1.6636099815368652,-0.046061836183071136
1683132158855242500,15.368242431640626,10.046265602111816,0.9032905697822571,-0.06699903309345245
1683132158873083000,15.386082763671874,9.501898765563965,1.2849457263946533,0.017946170642971992
1683132158890925800,15.40392578125,10.009775161743164,1.1389836072921753,-0.1746760457754135
1683132158908762600,15.4217626953125,9.451051712036133,1.3507484197616577,0.32542386651039124
1683132158926603500,15.439603515625,9.899106979370117,1.4333007335662842,-0.2871387302875519
1683132158944443600,15.457443603515625,9.753145217895508,1.2460623979568481,0.45942193269729614
1683132158962283500,15.475283447265625,9.693324089050293,1.430907964706421,-0.39421752095222473
1683132158980123600,15.49312353515625,9.745966911315918,0.9308080077171326,0.21714866161346436
1683132158997965300,15.51096533203125,9.514460563659668,1.461416482925415,-0.20997019112110138
1683132159015806700,15.528806640625,9.81236743927002,0.7698906660079956,0.09690931439399719
1683132159033633000,15.546633056640625,9.32722282409668,1.781456470489502,0.010169495828449726
1683132159051480000,15.56447998046875,9.939187049865723,0.6460621356964111,0.047258246690034866
1683132159069312800,15.582312744140625,9.555737495422363,1.8472590446472168,0.05922235921025276
1683132159087166000,15.600166015625,10.016953468322754,0.7770691514015198,-0.001794616924598813
1683132159105004800,15.6180048828125,9.559925079345703,1.4039887189865112,-0.04127619042992592
1683132159122845200,15.63584521484375,9.967901229858398,1.067797064781189,-0.10648060590028763
1683132159140682000,15.653681884765625,9.485149383544922,1.290927767753601,0.1333998590707779
1683132159158513400,15.671513427734375,9.995418548583984,1.2137593030929565,-0.23629122972488403
1683132159176365300,15.689365234375,9.530014038085938,1.3603196144104004,0.4145565330982208
1683132159194205700,15.707205810546874,9.815957069396973,1.451246976852417,-0.35533416271209717
1683132159212045800,15.7250458984375,9.7669038772583,1.1653046607971191,0.3900300860404968
1683132159229883400,15.74288330078125,9.580862045288086,1.4368900060653687,-0.3487538993358612
1683132159247726300,15.760726318359374,9.721440315246582,0.8464609980583191,0.1663011759519577
1683132159265566500,15.77856640625,9.34457015991211,1.5595221519470215,-0.13280165195465088
1683132159283406600,15.796406494140625,9.865608215332031,0.656829833984375,0.07417750358581543
1683132159301246700,15.814246826171875,9.359525680541992,1.9166508913040161,0.07896314561367035
1683132159319086600,15.832086669921875,10.029516220092773,0.6837490797042847,-0.013160524889826775
1683132159336928500,15.849928466796875,9.538987159729004,1.7138592004776,-0.004785645287483931
1683132159354767400,15.867767333984375,10.103095054626465,0.8937192559242249,-0.05024927482008934
1683132159372595700,15.885595703125,9.54377269744873,1.25144624710083,-0.038285162299871445
1683132159390447600,15.903447509765625,10.00857925415039,1.0887342691421509,-0.1663011759519577
1683132159408285000,15.921284912109375,9.488140106201172,1.2747762203216553,0.23629122972488403
1683132159426128100,15.939128173828125,9.918848037719727,1.3142578601837158,-0.3026920557022095
1683132159443968000,15.956968017578125,9.580862045288086,1.2664014101028442,0.44745782017707825
1683132159461803500,15.974803466796875,9.784252166748047,1.4368900060653687,-0.381655216217041
1683132159479648000,15.99264794921875,9.671191215515137,1.059422254562378,0.2949153780937195
1683132159497485300,16.0104853515625,9.516255378723145,1.3692927360534668,-0.2470589429140091
1683132159515328500,16.02832861328125,9.837491989135742,0.8171489238739014,0.1010967567563057
1683132159533168400,16.04616845703125,9.32004451751709,1.7204394340515137,-0.025722842663526535
1683132159551011000,16.064010986328125,9.955338478088379,0.5832505226135254,0.04666004329919815
1683132159568848600,16.0818486328125,9.503693580627441,1.97407865524292,0.10468599200248718
1683132159586688000,16.09968798828125,10.094720840454102,0.7369893789291382,0.005383851006627083
1683132159604529200,16.117529052734376,9.674779891967773,1.578664779663086,-0.03469592705368996
1683132159622369800,16.135369873046876,10.05823040008545,1.0785647630691528,-0.08673982322216034
1683132159640209700,16.153209716796876,9.510273933410645,1.1635099649429321,0.06161518394947052
1683132159658051000,16.171051025390625,9.994820594787598,1.2382856607437134,-0.25304099917411804
1683132159675890200,16.18889013671875,9.445667266845703,1.29810631275177,0.36729827523231506
1683132159693733400,16.2067333984375,9.770493507385254,1.3836497068405151,-0.33080771565437317
1683132159711570400,16.2245703125,9.664012908935547,1.2873386144638062,0.47557350993156433
1683132159729396000,16.24239599609375,9.619745254516602,1.4225330352783203,-0.35413774847984314
1683132159747239000,16.260239013671875,9.729815483093262,0.9445667266845703,0.2021935135126114
1683132159765079600,16.27807958984375,9.384650230407715,1.5032907724380493,-0.12921242415905
1683132159782933800,16.295933837890626,9.897313117980957,0.6921239495277405,0.06041877344250679
1683132159800771000,16.31377099609375,9.471988677978516,1.9130617380142212,0.09032905846834183
1683132159818611000,16.33161083984375,10.013364791870117,0.5575276613235474,0.01375873014330864
1683132159836450300,16.3494501953125,9.622735977172852,1.887937068939209,0.06520441919565201
1683132159854291700,16.367291748046874,10.054640769958496,0.9044869542121887,-0.008374879136681557
1683132159872131800,16.3851318359375,9.623932838439941,1.2675977945327759,-0.02392822690308094
1683132159889960000,16.4029599609375,10.047462463378906,1.2329018115997314,-0.16869398951530457
1683132159907810800,16.420810791015626,9.523433685302734,1.0857433080673218,0.20099709928035736
1683132159925652200,16.43865234375,9.878170013427734,1.3280165195465088,-0.3332005441188812
1683132159943492000,16.4564921875,9.513862609863281,1.3040883541107178,0.4181457459926605
1683132159961332200,16.474332275390626,9.652048110961914,1.3746765851974487,-0.36670008301734924
1683132159979172000,16.492172119140626,9.668798446655273,1.2538390159606934,0.35114672780036926
1683132159996998400,16.509998291015624,9.410971641540527,1.4135600328445435,-0.2386840581893921
1683132160014841900,16.527841796875,9.89133071899414,0.7130611538887024,0.08673982322216034
1683132160032692500,16.5456923828125,9.366703987121582,1.7694923877716064,-0.03529413416981697
1683132160050532900,16.563532958984375,9.944570541381836,0.5383850932121277,0.0364905446767807
1683132160068361200,16.581361328125,9.531808853149414,2.015354871749878,0.11126625537872314
1683132160086210000,16.5992099609375,10.081560134887695,0.6981059908866882,-0.0005982056609354913
1683132160104053500,16.617053466796875,9.644271850585938,1.5828521251678467,0.016749758273363113
1683132160121893600,16.6348935546875,10.092926025390625,1.1629117727279663,-0.08434699475765228
1683132160139733800,16.652733642578124,9.622138023376465,1.064207911491394,0.07058826833963394
1683132160157577200,16.6705771484375,9.981659889221191,1.316650629043579,-0.27337998151779175
1683132160175414300,16.688414306640624,9.589237213134766,1.176072359085083,0.3332005441188812
1683132160193254000,16.70625390625,9.719645500183105,1.2837493419647217,-0.364905446767807
1683132160211091500,16.724091552734375,9.594620704650879,1.3603196144104004,0.4414757788181305
1683132160228928500,16.741928466796875,9.584450721740723,1.4398809671401978,-0.30628129839897156
1683132160246773200,16.759773193359376,9.692726135253906,0.997208833694458,0.23270200192928314
1683132160264614700,16.77761474609375,9.358329772949219,1.5242279767990112,-0.14656038582324982
1683132160282456000,16.7954560546875,9.917651176452637,0.607776939868927,0.04007977992296219
1683132160300293400,16.81329345703125,9.413962364196777,1.9016958475112915,0.01136590726673603
1683132160318135800,16.8311357421875,10.001399993896484,0.5551348328590393,0.031106693670153618
1683132160335974400,16.848974365234376,9.612566947937012,1.8496519327163696,0.11485548317432404
1683132160353815800,16.86681591796875,10.109675407409668,0.9403793215751648,-0.019142581149935722
1683132160371655400,16.884655517578125,9.662816047668457,1.317248821258545,-0.0077766734175384045
1683132160389496000,16.90249609375,10.080363273620605,1.3070793151855469,-0.1866401731967926
1683132160407335700,16.920335693359377,9.675378799438477,1.0193424224853516,0.18963119387626648
1683132160425177000,16.938177001953125,9.842875480651855,1.272383451461792,-0.3756731450557709
1683132160443016000,16.956015869140625,9.54796028137207,1.2035897970199585,0.43489551544189453
1683132160460856000,16.97385595703125,9.634101867675781,1.3214362859725952,-0.3080759048461914
1683132160478690300,16.991690185546876,9.65683364868164,1.275374412536621,0.3601198196411133
1683132160496539600,17.00953955078125,9.359525680541992,1.4536397457122803,-0.24227328598499298
1683132160514375700,17.027375732421874,9.832108497619629,0.7363911867141724,0.07836493849754333
1683132160532216300,17.04521630859375,9.387042999267578,1.7042878866195679,-0.08075776696205139
1683132160550050800,17.06305078125,9.954142570495605,0.527019202709198,0.038285162299871445
1683132160567885000,17.080885009765623,9.548559188842773,1.9710876941680908,0.07178468257188797
1683132160585725200,17.09872509765625,10.087542533874512,0.7363911867141724,0.061016976833343506
1683132160603577000,17.1165771484375,9.678967475891113,1.683350682258606,0.07238288223743439
1683132160621417700,17.134417724609374,10.091729164123535,1.1599208116531372,-0.07058826833963394
1683132160639257000,17.152257080078126,9.626325607299805,1.1078768968582153,0.06161518394947052
1683132160657100300,17.170100341796875,9.961320877075195,1.3639088869094849,-0.3038884699344635
1683132160674938600,17.187938720703126,9.690333366394043,1.0947163105010986,0.31824541091918945
1683132160692780800,17.20578076171875,9.701699256896973,1.2161520719528198,-0.37806597352027893
1683132160710616300,17.2236162109375,9.530014038085938,1.2903295755386353,0.4414757788181305
1683132160728457700,17.241457763671875,9.486943244934082,1.456032633781433,-0.25423741340637207
1683132160746299400,17.25929931640625,9.739386558532715,1.0773683786392212,0.24586252868175507
1683132160764138500,17.277138427734375,9.266205787658691,1.5625132322311401,-0.16091732680797577
1683132160781975600,17.2949755859375,9.889535903930664,0.5796613097190857,0.046061836183071136
1683132160799812600,17.3128125,9.470791816711426,1.8747764825820923,-0.01375873014330864
1683132160817659000,17.330658935546875,9.969097137451172,0.5252245664596558,0.052043892443180084
1683132160835498800,17.348498779296875,9.483354568481445,1.934597134590149,0.1094716340303421
1683132160853339000,17.3663388671875,10.083952903747559,1.0007981061935425,0.03170489892363548
1683132160871174400,17.38417431640625,9.677172660827637,1.4141582250595093,0.08255238085985184
1683132160889019400,17.402019287109376,10.049257278442383,1.3645070791244507,-0.18424734473228455
1683132160906859000,17.41985888671875,9.708279609680176,0.9936196208000183,0.16510476171970367
1683132160924699600,17.43769970703125,9.828518867492676,1.2161520719528198,-0.4205385744571686
1683132160942539500,17.45553955078125,9.629914283752441,1.1066805124282837,0.41934216022491455
1683132160960379600,17.473379638671876,9.537193298339844,1.2939188480377197,-0.3158525824546814
1683132160978216200,17.49121630859375,9.69511890411377,1.231107234954834,0.32602208852767944
1683132160996061400,17.5090615234375,9.448657989501953,1.5804593563079834,-0.18065811693668365
1683132161013899800,17.526899658203124,9.772287368774414,0.8087740540504456,0.1178465187549591
1683132161031742500,17.544742431640625,9.363713264465332,1.710868239402771,-0.10887342691421509
1683132161049568000,17.562568115234374,9.956535339355469,0.5653043389320374,0.04785645380616188
1683132161067423200,17.58042333984375,9.464810371398926,1.9591234922409058,0.049651071429252625
1683132161085248500,17.59824853515625,9.982257843017578,0.7052844762802124,0.04426721855998039
1683132161103100700,17.6161005859375,9.649057388305664,1.7276179790496826,0.14656038582324982
1683132161120939000,17.63393896484375,10.06002426147461,1.2628121376037598,-0.12921242415905
1683132161138780200,17.6517802734375,9.681958198547363,1.1258230209350586,0.12023933976888657
1683132161156620800,17.669620849609377,9.887741088867188,1.48055899143219,-0.357128769159317
1683132161174461000,17.6874609375,9.767501831054688,0.9314061999320984,0.28654050827026367
1683132161192296400,17.70529638671875,9.70349407196045,1.181456208229065,-0.4127618968486786
1683132161210141200,17.72314111328125,9.669994354248047,1.1365907192230225,0.35892340540885925
1683132161227981000,17.74098095703125,9.403793334960938,1.3968101739883423,-0.22911277413368225
1683132161245820700,17.758820556640625,9.749555587768555,1.0737791061401367,0.17347964644432068
1683132161263661600,17.77666162109375,9.354740142822266,1.6719847917556763,-0.1052841991186142
1683132161281501700,17.794501708984374,9.833304405212402,0.5467599630355835,0.018544375896453857
1683132161299341300,17.81234130859375,9.513264656066895,1.8239290714263916,0.020338991656899452
1683132161317181000,17.830180908203126,9.9409818649292,0.5593222975730896,0.049651071429252625
1683132161335011300,17.84801123046875,9.559925079345703,1.9698911905288696,0.14297115802764893
1683132161352862000,17.865862060546874,10.033703804016113,1.0504491329193115,-0.031106693670153618
1683132161370702000,17.8837021484375,9.686744689941406,1.3663017749786377,0.18424734473228455
1683132161388543200,17.901543212890626,10.055238723754883,1.5583257675170898,-0.2679961323738098
1683132161406382300,17.91938232421875,9.728020668029785,0.8536394834518433,0.2315055876970291
1683132161424222500,17.937222412109374,9.8267240524292,1.4219348430633545,-0.44745782017707825
1683132161442058000,17.95505810546875,9.765707015991211,1.0265209674835205,0.363709032535553
1683132161459902700,17.97290283203125,9.449256896972656,1.225723385810852,-0.2991028428077698
1683132161477742800,17.990742919921875,9.799206733703613,1.0869396924972534,0.22911277413368225
1683132161495585800,18.008585693359375,9.43190860748291,1.6671991348266602,-0.03290131315588951
1683132161513423000,18.026423095703127,9.781859397888184,0.794417142868042,0.0526420995593071
1683132161531262500,18.044262451171875,9.483354568481445,1.8191434144973755,-0.1010967567563057
1683132161549102800,18.062102783203127,9.959526062011719,0.5377869009971619,-0.026919255033135414
1683132161566930200,18.07993017578125,9.350552558898926,1.7802600860595703,0.03768695518374443
1683132161584783000,18.097783203125,9.869196891784668,0.865005373954773,-0.029312077909708023
1683132161602623200,18.115623291015623,9.483354568481445,1.6037893295288086,0.2709871530532837
1683132161620463900,18.1334638671875,10.108479499816895,1.4793626070022583,-0.21355941891670227
1683132161638298600,18.151298583984374,9.726225852966309,1.0839486122131348,0.30568310618400574
1683132161656140800,18.169140869140627,9.943374633789062,1.557727575302124,-0.43130627274513245
1683132161673983700,18.186983642578124,9.880562782287598,0.8201399445533752,0.23988047242164612
1683132161691824400,18.204824462890624,9.54377269744873,1.2897313833236694,-0.33918261528015137
1683132161709667300,18.222667236328125,9.766305923461914,0.9284151792526245,0.2153540402650833
1683132161727501000,18.2405009765625,9.407382011413574,1.551147222518921,-0.04785645380616188
1683132161745330000,18.258329833984376,9.772287368774414,0.7998009920120239,0.08135596662759781
1683132161763172900,18.2761728515625,9.454042434692383,1.7593228816986084,-0.04307080805301666
1683132161781024000,18.29402392578125,9.885348320007324,0.6185446381568909,0.007178467698395252
1683132161798855200,18.311855224609374,9.433703422546387,1.5708880424499512,-0.01196411345154047
1683132161816702000,18.329701904296876,10.01575756072998,0.9314061999320984,-0.03349951654672623
1683132161834545000,18.347544921875,9.418149948120117,1.576271891593933,0.2225325107574463
1683132161852387300,18.36538720703125,9.978070259094238,1.3130614757537842,-0.1740778535604477
1683132161870225200,18.38322509765625,9.675976753234863,1.3250255584716797,0.39541393518447876
1683132161888064800,18.401064697265625,9.907482147216797,1.4919248819351196,-0.3846462368965149
1683132161905905400,18.418905517578125,9.844072341918945,0.966102123260498,0.259621262550354
1683132161923745000,18.4367451171875,9.604789733886719,1.4135600328445435,-0.38225340843200684
1683132161941585400,18.45458544921875,9.839286804199219,0.8919246196746826,0.18065811693668365
1683132161959419400,18.47241943359375,9.357730865478516,1.5451651811599731,-0.12861421704292297
1683132161977265700,18.490265625,9.784850120544434,0.7387840151786804,0.08434699475765228
1683132161995105800,18.508105712890625,9.492327690124512,1.8658034801483154,0.050847481936216354
1683132162012946000,18.52594580078125,9.955936431884766,0.711864709854126,0.003589233849197626
1683132162030785800,18.543785888671874,9.463613510131836,1.597209095954895,-0.061016976833343506
1683132162048625400,18.56162548828125,10.059426307678223,0.8410771489143372,-0.038285162299871445
1683132162066465800,18.5794658203125,9.446864128112793,1.339382529258728,0.061016976833343506
1683132162084306400,18.597306396484374,9.977472305297852,1.1563315391540527,-0.12921242415905
1683132162102134500,18.615134521484375,9.489336013793945,1.4333007335662842,0.33439695835113525
1683132162119986400,18.632986328125,9.961918830871582,1.4446666240692139,-0.3122633695602417
1683132162137826300,18.650826416015626,9.732806205749512,1.191625714302063,0.41874396800994873
1683132162155667700,18.668667724609374,9.751948356628418,1.445863127708435,-0.3684946894645691
1683132162173506600,18.686506591796874,9.78544807434082,0.882951557636261,0.18783657252788544
1683132162191347000,18.704346923828126,9.476774215698242,1.4434702396392822,-0.22193430364131927
1683132162209180700,18.7221806640625,9.866804122924805,0.8171489238739014,0.09930214285850525
1683132162227026700,18.740026611328126,9.31884765625,1.7964116334915161,0.03469592705368996
1683132162244867600,18.75786767578125,9.913464546203613,0.6813562512397766,0.012562318705022335
1683132162262695000,18.77569482421875,9.54197883605957,1.8640087842941284,0.04007977992296219
1683132162280542200,18.793542236328125,10.022337913513184,0.7639086246490479,-0.01375873014330864
1683132162298377000,18.811376953125,9.5802640914917,1.3387842178344727,-0.0729810893535614
1683132162316224000,18.82922412109375,9.970293998718262,1.0995019674301147,-0.10348957777023315
1683132162334067000,18.84706689453125,9.477372169494629,1.174277663230896,0.15493527054786682
1683132162351907600,18.864907470703123,9.954142570495605,1.2789636850357056,-0.26979073882102966
1683132162369747000,18.882746826171875,9.53061294555664,1.28255295753479,0.39481574296951294
1683132162387589000,18.900589111328124,9.847063064575195,1.4488540887832642,-0.3403790295124054
1683132162405430500,18.918430419921876,9.732208251953125,1.1820544004440308,0.38703906536102295
1683132162423267800,18.936267822265624,9.585647583007812,1.430309772491455,-0.2350948303937912
1683132162441107200,18.954107177734375,9.757930755615234,0.7884350419044495,0.1501496136188507
1683132162458947800,18.97194775390625,9.349954605102539,1.6618152856826782,-0.04785645380616188
1683132162476789200,18.989789306640624,9.91705322265625,0.6047859191894531,0.04785645380616188
1683132162494628000,19.007628173828124,9.448060035705566,1.999801516532898,0.09451649338006973
1683132162512468200,19.02546826171875,10.061819076538086,0.6616154313087463,-0.015553346835076809
1683132162530303700,19.0433037109375,9.554540634155273,1.672582983970642,0.010169495828449726
1683132162548152000,19.061152099609377,10.086345672607422,1.0085747241973877,-0.0687936544418335
1683132162565987300,19.0789873046875,9.508479118347168,1.1808580160140991,0.017946170642971992
1683132162583828700,19.096828857421876,9.981060981750488,1.2263215780258179,-0.2105683982372284
1683132162601663700,19.114663818359375,9.579665184020996,1.2191431522369385,0.2847459018230438
1683132162619508200,19.13250830078125,9.765109062194824,1.363310694694519,-0.29730820655822754
1683132162637348900,19.150348876953124,9.660423278808594,1.3262219429016113,0.46360939741134644
1683132162655189000,19.16818896484375,9.720243453979492,1.4482558965682983,-0.3517449200153351
1683132162673029000,19.186029052734376,9.6466646194458,1.0301101207733154,0.25363919138908386
1683132162690868700,19.20386865234375,9.441479682922363,1.441077470779419,-0.16809579730033875
1683132162708708900,19.221708984375,9.899106979370117,0.7178468108177185,0.08614161610603333
1683132162726550500,19.239550537109373,9.302098274230957,1.812563180923462,0.02273181453347206
1683132162744389400,19.257389404296877,9.981659889221191,0.5676971673965454,0.031106693670153618
1683132162762228700,19.275228759765625,9.525228500366211,1.9764715433120728,0.09212367236614227
1683132162780069600,19.293069580078125,10.019346237182617,0.8183453679084778,-0.013160524889826775
1683132162797908700,19.31090869140625,9.616155624389648,1.389033555984497,-0.047258246690034866
1683132162815749600,19.32874951171875,10.033703804016113,1.164108157157898,-0.13280165195465088
1683132162833586400,19.34658642578125,9.541379928588867,1.0785647630691528,0.09690931439399719
1683132162851425500,19.364425537109376,9.934999465942383,1.2382856607437134,-0.2883351147174835
1683132162869272600,19.3822724609375,9.498309135437012,1.2975081205368042,0.37447673082351685
1683132162887110000,19.40010986328125,9.811769485473633,1.3950155973434448,-0.32662028074264526
1683132162904951300,19.417951416015626,9.667003631591797,1.3112667798995972,0.44805604219436646
1683132162922790100,19.4357900390625,9.508479118347168,1.4297115802764893,-0.29371899366378784
1683132162940633300,19.45363330078125,9.795019149780273,0.8865407705307007,0.17527425289154053
1683132162958473200,19.47147314453125,9.351150512695312,1.6103696823120117,-0.08015955984592438
1683132162976307500,19.489307373046874,9.888937950134277,0.5886343717575073,0.05503492057323456
1683132162994150400,19.507150390625,9.434301376342773,2.0129621028900146,0.10707881301641464
1683132163011979300,19.524979248046876,10.02592658996582,0.5545366406440735,-0.03170489892363548
1683132163029830100,19.542830078125,9.623334884643555,1.8239290714263916,0.07178468257188797
1683132163047671800,19.560671875,10.080962181091309,0.9876375198364258,-0.040677983313798904
1683132163065510400,19.578510498046874,9.57906723022461,1.181456208229065,-0.02153540402650833
1683132163083350800,19.596350830078126,10.04267692565918,1.2915260791778564,-0.21774685382843018
1683132163101190700,19.614190673828126,9.615557670593262,1.0666006803512573,0.2315055876970291
1683132163119031800,19.63203173828125,9.821340560913086,1.28255295753479,-0.34277185797691345
1683132163136870700,19.64987060546875,9.499505996704102,1.3232308626174927,0.4331009089946747
1683132163154711300,19.667711181640627,9.674779891967773,1.4087743759155273,-0.32961133122444153
1683132163172551200,19.68555126953125,9.685547828674316,1.1653046607971191,0.31046873331069946
1683132163190391000,19.70339111328125,9.364311218261719,1.4506487846374512,-0.1902294009923935
1683132163208227300,19.721227294921874,9.836894035339355,0.6957131624221802,0.0729810893535614
1683132163226070300,19.7390703125,9.374481201171875,1.8239290714263916,-0.017946170642971992
1683132163243911400,19.756911376953123,9.91286563873291,0.5527420043945312,0.052043892443180084
1683132163261746200,19.77474609375,9.527023315429688,2.008176326751709,0.10588239878416061
1683132163279591200,19.792591064453124,10.097113609313965,0.7824530005455017,0.02153540402650833
1683132163297418800,19.810418701171876,9.704092025756836,1.557727575302124,0.03349951654672623
1683132163315271700,19.828271728515624,10.088738441467285,1.2251251935958862,-0.11605189740657806
1683132163333110800,19.84611083984375,9.57487964630127,1.0456634759902954,0.09032905846834183
1683132163350950400,19.863950439453124,9.994820594787598,1.28255295753479,-0.3026920557022095
1683132163368791800,19.881791748046876,9.548559188842773,1.1832507848739624,0.380458801984787
1683132163386631700,19.899631591796876,9.642477035522461,1.2867404222488403,-0.33439695835113525
1683132163404471800,19.917471923828124,9.637691497802734,1.3280165195465088,0.4127618968486786
1683132163422312000,19.93531201171875,9.504291534423828,1.4715858697891235,-0.2667997181415558
1683132163440155000,19.95315478515625,9.704092025756836,0.9182456731796265,0.17288143932819366
1683132163457992200,19.9709921875,9.363713264465332,1.576271891593933,-0.13220344483852386
1683132163475820500,19.988820556640626,9.952347755432129,0.6035895347595215,0.03349951654672623
1683132163493672700,20.006672607421876,9.44447135925293,1.9022940397262573,0.029910283163189888
1683132163511512300,20.02451220703125,9.952945709228516,0.5778666734695435,0.05024927482008934
1683132163529352000,20.04235205078125,9.627521514892578,1.8299111127853394,0.05623133108019829
1683132163547192600,20.060192626953125,10.17009449005127,1.0007981061935425,-0.03290131315588951
1683132163565034500,20.078034423828125,9.562915802001953,1.222732424736023,0.016749758273363113
1683132163582872300,20.095872314453125,10.012765884399414,1.3519448041915894,-0.2392822653055191
1683132163600712200,20.113712158203125,9.664610862731934,1.031306505203247,0.21774685382843018
1683132163618546700,20.131546630859376,9.744172096252441,1.2185449600219727,-0.38703906536102295
1683132163636390100,20.14939013671875,9.559925079345703,1.2233306169509888,0.4384847581386566
1683132163654232800,20.16723291015625,9.550951957702637,1.40279221534729,-0.2626122832298279
1683132163672073000,20.185072998046873,9.600603103637695,1.197009563446045,0.32602208852767944
1683132163689901000,20.202901123046875,9.370891571044922,1.5565310716629028,-0.22432711720466614
1683132163707753200,20.220753173828125,9.868598937988281,0.7106683254241943,0.0687936544418335
1683132163725593000,20.238593017578125,9.391828536987305,1.7306089401245117,-0.0771685317158699
1683132163743433200,20.25643310546875,9.988838195800781,0.5706881880760193,0.052043892443180084
1683132163761258800,20.2742587890625,9.561120986938477,1.9256240129470825,0.08853443711996078
1683132163779101700,20.292101806640623,10.054640769958496,0.7980063557624817,0.06041877344250679
1683132163796941800,20.30994189453125,9.730413436889648,1.6193426847457886,0.09690931439399719
1683132163814784800,20.32778466796875,10.095318794250488,1.2406785488128662,-0.15074782073497772
1683132163832633600,20.345633544921874,9.647262573242188,1.052243709564209,0.1423729509115219
1683132163850473200,20.36347314453125,9.862018585205078,1.342971682548523,-0.38344982266426086
1683132163868309200,20.381309326171873,9.726225852966309,1.0289137363433838,0.35892340540885925
1683132163886153700,20.39915380859375,9.585647583007812,1.1694921255111694,-0.34636107087135315
1683132163903993600,20.41699365234375,9.641280174255371,1.201795220375061,0.39062830805778503
1683132163921833700,20.434833740234374,9.479166984558105,1.526620864868164,-0.19202402234077454
1683132163939666400,20.45266650390625,9.698708534240723,0.9876375198364258,0.17647066712379456
1683132163957517000,20.47051708984375,9.29312515258789,1.6253247261047363,-0.13639089465141296
1683132163975353300,20.488353271484375,9.909276962280273,0.5234299302101135,0.047258246690034866
1683132163993194000,20.506194091796875,9.516854286193848,1.8867406845092773,-0.01196411345154047
1683132164011034400,20.524034423828127,9.947562217712402,0.5892325639724731,0.04187439754605293
1683132164028874000,20.5418740234375,9.628718376159668,1.8634105920791626,0.1423729509115219
1683132164046714400,20.55971435546875,10.052248001098633,1.1377872228622437,-0.061016976833343506
1683132164064554200,20.57755419921875,9.661619186401367,1.316650629043579,0.137587308883667
1683132164082394000,20.59539404296875,10.031908988952637,1.4584254026412964,-0.3164508044719696
1683132164100234800,20.61323486328125,9.734601020812988,0.8715856671333313,0.23629122972488403
1683132164118074400,20.631074462890624,9.711270332336426,1.2388839721679688,-0.4378865361213684
1683132164135916800,20.648916748046876,9.725028991699219,1.0534402132034302,0.4061816334724426
1683132164153754400,20.66675439453125,9.465408325195312,1.3052847385406494,-0.25782662630081177
1683132164171594500,20.684594482421875,9.729216575622559,1.1479566097259521,0.24885354936122894
1683132164189435000,20.702434814453124,9.33141040802002,1.6444673538208008,-0.12083754688501358
1683132164207276000,20.720276123046876,9.834501266479492,0.7178468108177185,0.02392822690308094
1683132164225115000,20.738114990234376,9.437891006469727,1.771286964416504,-0.02512463741004467
1683132164242954800,20.755954833984376,9.899106979370117,0.511465847492218,0.05024927482008934
1683132164260784000,20.7737841796875,9.467801094055176,1.95852530002594,0.10827522724866867
1683132164278623200,20.791623291015625,9.958329200744629,0.8787640929222107,0.007178467698395252
1683132164296475100,20.80947509765625,9.558130264282227,1.5672988891601562,0.20757736265659332
1683132164314305300,20.82730517578125,10.036096572875977,1.5086746215820312,-0.22911277413368225
1683132164332155400,20.8451552734375,9.653244972229004,0.9834501147270203,0.20099709928035736
1683132164349989000,20.862989013671875,9.944570541381836,1.4811571836471558,-0.4247260093688965
1683132164367835600,20.880835693359376,9.778867721557617,0.9433703422546387,0.357128769159317
1683132164385675300,20.89867529296875,9.503693580627441,1.2335001230239868,-0.3517449200153351
1683132164403515400,20.916515380859376,9.773484230041504,1.0839486122131348,0.3074777126312256
1683132164421358600,20.934358642578125,9.34277629852295,1.511067509651184,-0.09032905846834183
1683132164439195400,20.9521953125,9.875777244567871,0.9224331378936768,0.06999006122350693
1683132164457040400,20.970040283203126,9.467801094055176,1.750349760055542,-0.11006984114646912
1683132164474877000,20.987876953125,9.91286563873291,0.5485545992851257,-0.05383851006627083
1683132164492715800,21.0057158203125,9.480362892150879,1.7784653902053833,-0.013160524889826775
1683132164510556000,21.023555908203125,9.896714210510254,0.7046862840652466,-0.009571290574967861
1683132164528401400,21.0414013671875,9.349356651306152,1.740180253982544,0.18783657252788544
1683132164546236200,21.059236083984374,10.040882110595703,1.296311616897583,-0.14835500717163086
1683132164564076000,21.077075927734374,9.713663101196289,1.2287144660949707,0.3158525824546814
1683132164581911300,21.094911376953124,9.983454704284668,1.6061822175979614,-0.36191442608833313
1683132164599756000,21.112756103515625,9.870393753051758,0.8781659007072449,0.2841476798057556
1683132164617596200,21.13059619140625,9.648459434509277,1.3316057920455933,-0.42293140292167664
1683132164635436300,21.148436279296874,9.80937671661377,0.9684949517250061,0.2632105052471161
1683132164653276000,21.16627587890625,9.391828536987305,1.4141582250595093,-0.1585244983434677
1683132164671116500,21.184116455078126,9.772287368774414,0.8554341197013855,0.137587308883667
1683132164688956700,21.201956787109374,9.479764938354492,1.810768485069275,0.01615155301988125
1683132164706795300,21.219795166015626,9.810572624206543,0.7202396392822266,0.047258246690034866
1683132164724636400,21.237636474609374,9.433703422546387,1.5984054803848267,-0.03768695518374443
1683132164742476500,21.2554765625,9.940383911132812,0.7914260625839233,0.001794616924598813
1683132164760316400,21.27331640625,9.395418167114258,1.6115660667419434,0.13698910176753998
1683132164778148000,21.291148193359376,9.956535339355469,1.089930772781372,-0.11246266216039658
1683132164795996000,21.308995849609374,9.590433120727539,1.537388563156128,0.36251261830329895
1683132164813836300,21.326836181640626,10.01575756072998,1.4925230741500854,-0.2991028428077698
1683132164831676700,21.3446767578125,9.76391315460205,1.0546365976333618,0.3194418251514435
1683132164849516800,21.362516845703126,9.789037704467773,1.5242279767990112,-0.45583271980285645
1683132164867359700,21.38035986328125,9.863214492797852,0.8099704384803772,0.18544375896453857
1683132164885200100,21.3982001953125,9.422935485839844,1.4075778722763062,-0.2602194547653198
1683132164903037000,21.416036865234375,9.872187614440918,0.8560323119163513,0.15613168478012085
1683132164920878800,21.43387890625,9.2919282913208,1.726421594619751,0.02512463741004467
1683132164938716700,21.451716552734375,9.863813400268555,0.7663014531135559,0.058624155819416046
1683132164956556000,21.46955615234375,9.509675025939941,1.755733609199524,-0.024526432156562805
1683132164974400000,21.48739990234375,9.979865074157715,0.6819544434547424,-0.015553346835076809
1683132164992237600,21.505237548828124,9.408578872680664,1.4333007335662842,-0.04366901144385338
1683132165010077200,21.5230771484375,9.968499183654785,0.9876375198364258,-0.0771685317158699
1683132165027916000,21.540916015625,9.525228500366211,1.5481562614440918,0.23210379481315613
1683132165045757200,21.558757080078124,9.985847473144531,1.3369896411895752,-0.2105683982372284
1683132165063597600,21.57659765625,9.67657470703125,1.3280165195465088,0.4061816334724426
1683132165081437200,21.594437255859376,9.985248565673828,1.4967105388641357,-0.3810569941997528
1683132165099277000,21.612277099609376,9.854242324829102,0.9481559991836548,0.2638086974620819
1683132165117117400,21.630117431640624,9.598808288574219,1.357926845550537,-0.3643072545528412
1683132165134958300,21.647958251953124,9.810572624206543,0.8721838593482971,0.1944168359041214
1683132165152797700,21.665797607421876,9.361320495605469,1.4949159622192383,-0.10827522724866867
1683132165170637600,21.683637451171876,9.81535816192627,0.7651050686836243,0.09870393574237823
1683132165188478000,21.70147802734375,9.394820213317871,1.7988044023513794,0.0526420995593071
1683132165206317800,21.71931787109375,9.947562217712402,0.7040880918502808,0.019740786403417587
1683132165224158000,21.737157958984376,9.472586631774902,1.6271194219589233,-0.06400800496339798
1683132165241998000,21.754998046875,9.938589096069336,0.7848458290100098,-0.01136590726673603
1683132165259826400,21.772826416015626,9.461220741271973,1.3770694732666016,0.062213387340307236
1683132165277667800,21.790667724609374,9.988240242004395,1.1078768968582153,-0.17647066712379456
1683132165295521000,21.80852099609375,9.480961799621582,1.4380863904953003,0.3242274820804596
1683132165313354200,21.826354248046876,10.012765884399414,1.4297115802764893,-0.3068794906139374
1683132165331198200,21.8441982421875,9.765707015991211,1.196411371231079,0.4205385744571686
1683132165349030400,21.862030517578123,9.762118339538574,1.4626128673553467,-0.37028929591178894
1683132165366878500,21.87987841796875,9.855438232421875,0.8769695162773132,0.2027917206287384
1683132165384722200,21.89772216796875,9.533005714416504,1.4464613199234009,-0.24227328598499298
1683132165402558200,21.91555810546875,9.761520385742188,0.8267202377319336,0.13220344483852386
1683132165420400000,21.933400146484374,9.266803741455078,1.7581263780593872,-0.013160524889826775
1683132165438235100,21.951235107421876,9.912267684936523,0.6897311210632324,0.05383851006627083
1683132165456081200,21.9690810546875,9.54377269744873,1.812563180923462,0.026919255033135414
1683132165473921500,21.986921630859374,9.962516784667969,0.7106683254241943,-0.018544375896453857
1683132165491758600,22.004758544921874,9.516255378723145,1.4177473783493042,-0.09212367236614227
1683132165509601000,22.02260107421875,9.983454704284668,1.0115658044815063,-0.08793623000383377
1683132165527438600,22.0404384765625,9.46301555633545,1.3459627628326416,0.1543370634317398
1683132165545280000,22.058280029296874,9.953543663024902,1.2472587823867798,-0.23449662327766418
1683132165563118800,22.076118896484374,9.497113227844238,1.2867404222488403,0.39900317788124084
1683132165580958700,22.093958740234374,9.877572059631348,1.4482558965682983,-0.36311084032058716
1683132165598793000,22.11179296875,9.764511108398438,1.098903775215149,0.3487538993358612
1683132165616638500,22.129638427734374,9.599406242370605,1.3716856241226196,-0.3200400173664093
1683132165634478800,22.147478759765626,9.794421195983887,0.836291491985321,0.13519448041915894
1683132165652319000,22.165319091796874,9.4121675491333,1.5960127115249634,-0.09511470049619675
1683132165670153200,22.1831533203125,9.897313117980957,0.6604190468788147,0.06759724020957947
1683132165687999500,22.20099951171875,9.339186668395996,1.9310078620910645,0.10648060590028763
1683132165705839000,22.218839111328126,10.013364791870117,0.6598208546638489,-0.0029910283628851175
1683132165723679200,22.23667919921875,9.660423278808594,1.6606189012527466,-0.024526432156562805
1683132165741519400,22.254519287109375,9.994820594787598,0.9272187948226929,-0.022133609279990196
1683132165759362000,22.272362060546875,9.509077072143555,1.1880364418029785,0.0023928226437419653
1683132165777184800,22.290184814453124,10.02293586730957,1.171286702156067,-0.19740787148475647
1683132165795024100,22.308024169921875,9.474979400634766,1.2610175609588623,0.28175488114356995
1683132165812872400,22.32587255859375,9.838688850402832,1.3471591472625732,-0.30927231907844543
1683132165830701300,22.343701416015627,9.658628463745117,1.3058829307556152,0.46420758962631226
1683132165848556500,22.361556640625,9.729216575622559,1.4225330352783203,-0.36191442608833313
1683132165866388200,22.37938818359375,9.65384292602539,0.99481600522995,0.2638086974620819
1683132165884240000,22.397239990234375,9.370891571044922,1.4554343223571777,-0.1866401731967926
1683132165902082800,22.415082763671876,9.931410789489746,0.7387840151786804,0.06340979784727097
1683132165919913700,22.432913818359374,9.412766456604004,1.786242127418518,0.04366901144385338
1683132165937762600,22.450762451171876,9.93978500366211,0.5545366406440735,0.05922235921025276
1683132165955600100,22.46860009765625,9.558728218078613,1.9369899034500122,0.10588239878416061
1683132165973440800,22.486440673828124,10.107282638549805,0.8327022790908813,0.0005982056609354913
1683132165991275500,22.504275634765627,9.53659439086914,1.394417405128479,-0.05503492057323456
1683132166009119500,22.522119384765624,10.033703804016113,1.1581261157989502,-0.11306086927652359
1683132166026960100,22.539960205078124,9.578469276428223,1.0887342691421509,0.1094716340303421
1683132166044800000,22.557800048828124,9.897313117980957,1.246660590171814,-0.28654050827026367
1683132166062640000,22.57564013671875,9.518050193786621,1.2987045049667358,0.36670008301734924
1683132166080479700,22.593479736328124,9.722636222839355,1.399801254272461,-0.33918261528015137
1683132166098315300,22.611315185546875,9.665806770324707,1.280758261680603,0.4265206456184387
1683132166116159200,22.6291591796875,9.545567512512207,1.4231312274932861,-0.30149564146995544
1683132166134000000,22.647000244140624,9.734002113342285,0.8309076428413391,0.16271193325519562
1683132166151840500,22.664840576171876,9.377471923828125,1.6002001762390137,-0.07417750358581543
1683132166169680100,22.68268017578125,9.953543663024902,0.607776939868927,0.0364905446767807
1683132166187521500,22.700521484375,9.381659507751465,1.9848463535308838,0.11066804826259613
