time,seconds_elapsed,z,y,x
1683133642394366700,0.12436669921875,9.749555587768555,1.319043517112732,0.16450655460357666
1683133642412184600,0.1421845703125,9.811769485473633,1.1222338676452637,-0.09152546525001526
1683133642430019600,0.16001953125,9.465408325195312,1.5625132322311401,-0.13220344483852386
1683133642447857700,0.177857666015625,9.977472305297852,0.8781659007072449,0.0568295381963253
1683133642465691400,0.19569140625,9.503693580627441,1.7204394340515137,-0.09451649338006973
1683133642483534000,0.2135341796875,9.763314247131348,0.916451096534729,0.1178465187549591
1683133642501372700,0.23137255859375,9.656235694885254,1.4811571836471558,-0.2835494875907898
1683133642519210800,0.249210693359375,9.729815483093262,1.2185449600219727,0.24107688665390015
1683133642537046000,0.2670458984375,9.674181938171387,1.246660590171814,-0.18783657252788544
1683133642554881000,0.284881103515625,9.636494636535645,1.4620146751403809,-0.08853443711996078
1683133642572721200,0.30272119140625,9.915258407592773,0.9260223507881165,0.052043892443180084
1683133642590562000,0.32056201171875,9.45583724975586,1.7730815410614014,-0.06580262631177902
1683133642608394000,0.33839404296875,9.848857879638672,0.8638089895248413,0.08015955984592438
1683133642626239500,0.356239501953125,9.589237213134766,1.5433706045150757,-0.2602194547653198
1683133642644075300,0.3740751953125,9.734601020812988,1.1228320598602295,0.2267199456691742
1683133642661919000,0.3919189453125,9.707681655883789,1.3088740110397339,-0.24526432156562805
1683133642679754200,0.409754150390625,9.602396965026855,1.3806586265563965,0.03529413416981697
1683133642697592300,0.42759228515625,9.877572059631348,1.031306505203247,-0.0005982056609354913
1683133642715430700,0.4454306640625,9.555737495422363,1.7545372247695923,-0.07956135272979736
1683133642733252000,0.463252197265625,9.934401512145996,0.8685946464538574,0.03768695518374443
1683133642751107600,0.481107666015625,9.54197883605957,1.6247265338897705,-0.17946170270442963
1683133642768945400,0.4989453125,9.77707290649414,1.0223335027694702,0.1986042857170105
1683133642786778600,0.516778564453125,9.584450721740723,1.3657035827636719,-0.29371899366378784
1683133642804621300,0.534621337890625,9.696913719177246,1.2855439186096191,0.1453639715909958
1683133642822459600,0.552459716796875,9.79262638092041,1.1365907192230225,-0.10169496387243271
1683133642840296700,0.570296630859375,9.489336013793945,1.6534404754638672,-0.10887342691421509
1683133642858136000,0.588135986328125,9.967901229858398,0.8542376756668091,0.03349951654672623
1683133642875974400,0.605974365234375,9.522835731506348,1.7258232831954956,-0.08973085135221481
1683133642893812500,0.6238125,9.772287368774414,0.9260223507881165,0.12263216078281403
1683133642911649300,0.641649169921875,9.570094108581543,1.41834557056427,-0.2745763957500458
1683133642929490000,0.659489990234375,9.753743171691895,1.2424731254577637,0.2315055876970291
1683133642947326700,0.67732666015625,9.717252731323242,1.2275179624557495,-0.19740787148475647
1683133642965165300,0.695165283203125,9.546165466308594,1.5242279767990112,-0.07477571070194244
1683133642983003100,0.713003173828125,9.963115692138672,0.9116654396057129,0.047258246690034866
1683133643000841500,0.730841552734375,9.498908042907715,1.7204394340515137,-0.10887342691421509
1683133643018679800,0.7486796875,9.820143699645996,0.8638089895248413,0.061016976833343506
1683133643036517600,0.766517578125,9.565906524658203,1.557727575302124,-0.23688943684101105
1683133643054352400,0.784352294921875,9.77707290649414,1.1754741668701172,0.2841476798057556
1683133643072197000,0.802197021484375,9.660423278808594,1.2939188480377197,-0.2787638306617737
1683133643090032000,0.8200322265625,9.678967475891113,1.4243277311325073,0.007178467698395252
1683133643107871000,0.83787109375,9.948758125305176,0.9882357716560364,0.03290131315588951
1683133643125707300,0.855707275390625,9.498908042907715,1.7060825824737549,-0.10408778488636017
1683133643143547000,0.873546875,9.882357597351074,0.8590233325958252,0.028115665540099144
1683133643161381000,0.891381103515625,9.561120986938477,1.6151553392410278,-0.21774685382843018
1683133643179227100,0.90922705078125,9.739386558532715,1.0558329820632935,0.24107688665390015
1683133643197061000,0.92706103515625,9.6466646194458,1.3848460912704468,-0.3409772217273712
1683133643214899500,0.9448994140625,9.720842361450195,1.2951152324676514,0.10767702013254166
1683133643232734000,0.96273388671875,9.81655502319336,1.093519926071167,-0.04905286431312561
1683133643250575400,0.980575439453125,9.550951957702637,1.6534404754638672,-0.0891326442360878
1683133643268414000,0.9984140625,9.910472869873047,0.8590233325958252,0.01375873014330864
1683133643286252300,1.016252197265625,9.508479118347168,1.667797327041626,-0.15134602785110474
1683133643304090000,1.034090087890625,9.791430473327637,0.9840483069419861,0.19381862878799438
1683133643321928200,1.05192822265625,9.589237213134766,1.4333007335662842,-0.28893333673477173
1683133643339763500,1.069763427734375,9.734601020812988,1.2041879892349243,0.19322042167186737
1683133643357607700,1.087607666015625,9.769296646118164,1.2131611108779907,-0.1824527233839035
1683133643375442700,1.105442626953125,9.593423843383789,1.5242279767990112,-0.050847481936216354
1683133643393281300,1.12328125,9.915857315063477,0.8973084688186646,0.023330021649599075
1683133643411116800,1.14111669921875,9.494122505187988,1.710868239402771,-0.1136590763926506
1683133643428959700,1.158959716796875,9.844072341918945,0.8877372145652771,0.09930214285850525
1683133643446795500,1.17679541015625,9.550951957702637,1.5290136337280273,-0.21296121180057526
1683133643464633900,1.1946337890625,9.758528709411621,1.1324033737182617,0.25064817070961
1683133643482472000,1.212471923828125,9.70349407196045,1.2897313833236694,-0.27337998151779175
1683133643500309800,1.230309814453125,9.65503978729248,1.4578272104263306,0.0023928226437419653
1683133643518148400,1.2481484375,9.854242324829102,0.9882357716560364,-0.0011964113218709826
1683133643535986700,1.265986572265625,9.527621269226074,1.6534404754638672,-0.13698910176753998
1683133643553820000,1.28381982421875,9.8871431350708,0.8685946464538574,0.047258246690034866
1683133643571662800,1.301662841796875,9.546764373779297,1.6342978477478027,-0.14656038582324982
1683133643589500700,1.319500732421875,9.80100154876709,1.0223335027694702,0.20817556977272034
1683133643607339000,1.337339111328125,9.66520881652832,1.3806586265563965,-0.3122633695602417
1683133643625177000,1.355177001953125,9.716055870056152,1.3621143102645874,0.12622138857841492
1683133643643015700,1.373015625,9.830313682556152,1.0887342691421509,-0.02512463741004467
1683133643660853500,1.390853515625,9.546165466308594,1.6103696823120117,-0.13698910176753998
1683133643678690300,1.408690185546875,9.948758125305176,0.8733802437782288,0.047258246690034866
1683133643696530700,1.42653076171875,9.494122505187988,1.6917256116867065,-0.1136590763926506
1683133643714368000,1.444367919921875,9.80100154876709,0.973878800868988,0.18005990982055664
1683133643732205800,1.462205810546875,9.6466646194458,1.4476577043533325,-0.3314059376716614
1683133643750044400,1.48004443359375,9.7064847946167,1.2233306169509888,0.1788634955883026
1683133643767871000,1.49787109375,9.754940032958984,1.184447169303894,-0.13040883839130402
1683133643785720600,1.515720458984375,9.617352485656738,1.5242279767990112,-0.07417750358581543
1683133643803558700,1.53355859375,9.8871431350708,0.9068797826766968,0.04247260093688965
1683133643821397500,1.5513974609375,9.460622787475586,1.730010747909546,-0.08015955984592438
1683133643839234600,1.569234619140625,9.89133071899414,0.9212366938591003,0.1423729509115219
1683133643857073000,1.587072998046875,9.608379364013672,1.5625132322311401,-0.24586252868175507
1683133643874906600,1.60490673828125,9.744172096252441,1.1132607460021973,0.18903298676013947
1683133643892739300,1.6227392578125,9.674779891967773,1.2945170402526855,-0.22612173855304718
1683133643910587400,1.64058740234375,9.650253295898438,1.4386845827102661,0.01615155301988125
1683133643928413000,1.658412841796875,9.844670295715332,0.9978070259094238,-0.0011964113218709826
1683133643946262800,1.6762626953125,9.503693580627441,1.7012969255447388,-0.11306086927652359
1683133643964101400,1.694101318359375,9.90568733215332,0.8733802437782288,0.07118647545576096
1683133643981943000,1.711943115234375,9.555737495422363,1.6247265338897705,-0.16031911969184875
1683133643999776000,1.72977587890625,9.739386558532715,1.00259268283844,0.18903298676013947
1683133644017607700,1.747607666015625,9.646066665649414,1.3806586265563965,-0.2835494875907898
1683133644035455000,1.765455078125,9.716654777526855,1.3381860256195068,0.10767702013254166
1683133644053292800,1.783292724609375,9.759127616882324,1.098305583000183,-0.05383851006627083
1683133644071131000,1.801130859375,9.546165466308594,1.6151553392410278,-0.12263216078281403
1683133644088969200,1.81896923828125,9.939187049865723,0.8685946464538574,0.03768695518374443
1683133644106807300,1.836807373046875,9.470193862915039,1.7060825824737549,-0.08973085135221481
1683133644124633900,1.8546337890625,9.80100154876709,0.9547362327575684,0.14656038582324982
1683133644142483700,1.872483642578125,9.627521514892578,1.466800332069397,-0.2793620526790619
1683133644160322000,1.890322021484375,9.744172096252441,1.2616157531738281,0.23629122972488403
1683133644178160000,1.90816015625,9.717252731323242,1.222732424736023,-0.16869398951530457
1683133644195993600,1.92599365234375,9.570094108581543,1.4859428405761719,-0.09810572862625122
1683133644213836000,1.9438359375,9.920044898986816,0.916451096534729,0.07597211748361588
1683133644231674400,1.96167431640625,9.465408325195312,1.7587246894836426,-0.0849452018737793
1683133644249500000,1.9795,9.772287368774414,0.8638089895248413,0.07956135272979736
1683133644267352300,1.997352294921875,9.641879081726074,1.5242279767990112,-0.2745763957500458
1683133644285177000,2.015177001953125,9.758528709411621,1.1515458822250366,0.2554338276386261
1683133644303027500,2.03302734375,9.602995872497559,1.2747762203216553,-0.23629122972488403
1683133644320864300,2.0508642578125,9.66939640045166,1.409970760345459,0.01196411345154047
1683133644338702800,2.068702880859375,9.8871431350708,0.9978070259094238,0.023330021649599075
1683133644356543000,2.08654296875,9.42772102355957,1.7587246894836426,-0.07118647545576096
1683133644374379500,2.104379638671875,9.939187049865723,0.8590233325958252,0.0568295381963253
1683133644392218000,2.122218017578125,9.518050193786621,1.6247265338897705,-0.19920247793197632
1683133644410056400,2.140056396484375,9.753743171691895,1.0462616682052612,0.20338992774486542
1683133644427894000,2.15789404296875,9.636494636535645,1.3513466119766235,-0.29312077164649963
1683133644445732000,2.175732177734375,9.664012908935547,1.3094722032546997,0.10707881301641464
1683133644463570700,2.19357080078125,9.783055305480957,1.1078768968582153,-0.09690931439399719
1683133644481408500,2.211408447265625,9.513264656066895,1.648654818534851,-0.11306086927652359
1683133644499246800,2.229246826171875,9.953543663024902,0.8733802437782288,0.023330021649599075
1683133644517085200,2.247085205078125,9.494122505187988,1.7395820617675781,-0.10408778488636017
1683133644534922800,2.2649228515625,9.796216011047363,0.9260223507881165,0.10827522724866867
1683133644552758000,2.282758056640625,9.608379364013672,1.4476577043533325,-0.2841476798057556
1683133644570597000,2.30059716796875,9.734601020812988,1.252044439315796,0.24107688665390015
1683133644588439600,2.318439453125,9.717252731323242,1.2083754539489746,-0.1782652884721756
1683133644606275600,2.336275634765625,9.565308570861816,1.5337992906570435,-0.08434699475765228
1683133644624114000,2.354114013671875,9.977472305297852,0.9068797826766968,0.03349951654672623
1683133644641950700,2.37195068359375,9.527621269226074,1.7204394340515137,-0.10348957777023315
1683133644659790600,2.38979052734375,9.820143699645996,0.8781659007072449,0.061016976833343506
1683133644677629000,2.40762890625,9.555737495422363,1.5146567821502686,-0.2225325107574463
1683133644695466500,2.425466552734375,9.772287368774414,1.1371889114379883,0.2745763957500458
1683133644713304600,2.4433046875,9.6795654296875,1.3130614757537842,-0.29790642857551575
1683133644731143000,2.461142822265625,9.635896682739258,1.404586911201477,0.0023928226437419653
1683133644748980700,2.478980712890625,9.8871431350708,0.9930213689804077,0.04666004329919815
1683133644766810400,2.496810302734375,9.527621269226074,1.7156537771224976,-0.12263216078281403
1683133644784645000,2.51464501953125,9.882357597351074,0.8446664214134216,0.023330021649599075
1683133644802495500,2.53249560546875,9.522835731506348,1.5912270545959473,-0.19381862878799438
1683133644820331000,2.5503310546875,9.772287368774414,1.0606186389923096,0.24167509377002716
1683133644838174500,2.568174560546875,9.6466646194458,1.3752747774124146,-0.32183465361595154
1683133644856010000,2.586010009765625,9.7064847946167,1.280758261680603,0.0933200865983963
1683133644873847600,2.60384765625,9.825528144836426,1.1222338676452637,-0.029910283163189888
1683133644891673300,2.62167333984375,9.541379928588867,1.648654818534851,-0.09391828626394272
1683133644909525500,2.639525390625,9.958329200744629,0.8685946464538574,0.014356935396790504
1683133644927362600,2.657362548828125,9.503693580627441,1.6917256116867065,-0.1417747437953949
1683133644945200400,2.675200439453125,9.78664493560791,0.9595218896865845,0.18005990982055664
1683133644963040000,2.6930400390625,9.632308006286621,1.4524433612823486,-0.2787638306617737
1683133644980876500,2.71087646484375,9.758528709411621,1.1802598237991333,0.18424734473228455
1683133644998715000,2.72871484375,9.702896118164062,1.2179467678070068,-0.1782652884721756
1683133645016553200,2.74655322265625,9.588638305664062,1.5194423198699951,-0.050847481936216354
1683133645034391600,2.7643916015625,9.90149974822998,0.9068797826766968,0.004187439568340778
1683133645052229600,2.782229736328125,9.503693580627441,1.710868239402771,-0.1178465187549591
1683133645070068000,2.80006787109375,9.824930191040039,0.8733802437782288,0.08973085135221481
1683133645087905800,2.81790576171875,9.603593826293945,1.5481562614440918,-0.1986042857170105
1683133645105744000,2.835743896484375,9.744172096252441,1.0941181182861328,0.2602194547653198
1683133645123582000,2.85358203125,9.674779891967773,1.3088740110397339,-0.27397820353507996
1683133645141420300,2.871420166015625,9.697511672973633,1.414756417274475,0.035892341285943985
1683133645159258400,2.88925830078125,9.849455833435059,1.00259268283844,0.008374879136681557
1683133645177097000,2.907096923828125,9.513264656066895,1.6390835046768188,-0.15613168478012085
1683133645194935000,2.92493505859375,9.863214492797852,0.8542376756668091,0.05144568532705307
1683133645212769300,2.942769287109375,9.546764373779297,1.648654818534851,-0.1417747437953949
1683133645230610700,2.960610595703125,9.810572624206543,1.0462616682052612,0.20338992774486542
1683133645248439300,2.978439208984375,9.627521514892578,1.394417405128479,-0.34576287865638733
1683133645266287400,2.996287353515625,9.735198974609375,1.3286148309707642,0.15493527054786682
1683133645284118000,3.014117919921875,9.811769485473633,1.1318050622940063,-0.04905286431312561
1683133645301966600,3.031966552734375,9.570094108581543,1.576870083808899,-0.12263216078281403
1683133645319801900,3.0498017578125,9.8871431350708,0.8781659007072449,0.04247260093688965
1683133645337640200,3.06764013671875,9.527621269226074,1.740180253982544,-0.08973085135221481
1683133645355475000,3.085474853515625,9.834501266479492,0.9595218896865845,0.1657029688358307
1683133645373319700,3.103319580078125,9.57069206237793,1.4709876775741577,-0.3080759048461914
1683133645391151400,3.1211513671875,9.739386558532715,1.165902853012085,0.21236300468444824
1683133645408994300,3.138994384765625,9.745368003845215,1.2275179624557495,-0.15912270545959473
1683133645426831600,3.15683154296875,9.602995872497559,1.4620146751403809,-0.046061836183071136
1683133645444669200,3.174669189453125,9.882357597351074,0.9547362327575684,0.023330021649599075
1683133645462504700,3.192504638671875,9.470193862915039,1.7156537771224976,-0.09451649338006973
1683133645480347600,3.21034765625,9.872187614440918,0.8925228714942932,0.1136590763926506
1683133645498183400,3.228183349609375,9.594022750854492,1.6055840253829956,-0.20817556977272034
1683133645516021500,3.246021484375,9.734601020812988,1.0462616682052612,0.1986042857170105
1683133645533855000,3.26385498046875,9.631709098815918,1.3417752981185913,-0.26919254660606384
1683133645551686000,3.281685791015625,9.692726135253906,1.3668999671936035,0.064606212079525
1683133645569536300,3.299536376953125,9.739984512329102,1.0600204467773438,-0.03469592705368996
1683133645587360000,3.317360107421875,9.527621269226074,1.6390835046768188,-0.13220344483852386
1683133645605210600,3.335210693359375,9.967901229858398,0.8733802437782288,0.04247260093688965
1683133645623042600,3.35304248046875,9.479764938354492,1.6965112686157227,-0.09451649338006973
1683133645640888600,3.370888671875,9.796216011047363,0.9690931439399719,0.1417747437953949
1683133645658713900,3.3887138671875,9.651450157165527,1.4333007335662842,-0.29312077164649963
1683133645676565800,3.406565673828125,9.725627899169922,1.280758261680603,0.21236300468444824
1683133645694402800,3.42440283203125,9.698110580444336,1.2035897970199585,-0.13519448041915894
1683133645712241700,3.44224169921875,9.570094108581543,1.5242279767990112,-0.12203395366668701
1683133645730078500,3.460078369140625,9.948758125305176,0.9116654396057129,0.06640082597732544
1683133645747918800,3.4779189453125,9.446864128112793,1.7491533756256104,-0.07537391036748886
1683133645765755600,3.495755615234375,9.805787086486816,0.8542376756668091,0.0849452018737793
1683133645783594000,3.513593994140625,9.622735977172852,1.5194423198699951,-0.2745763957500458
1683133645801432300,3.531432373046875,9.758528709411621,1.170688509941101,0.2602194547653198
1683133645819270400,3.5492705078125,9.660423278808594,1.2849457263946533,-0.24047867953777313
1683133645837108200,3.567108154296875,9.607182502746582,1.423729419708252,-0.0029910283628851175
1683133645854942000,3.58494189453125,9.90149974822998,1.00259268283844,0.047258246690034866
1683133645872778500,3.602778564453125,9.470193862915039,1.7784653902053833,-0.05623133108019829
1683133645890626000,3.6206259765625,9.90568733215332,0.8685946464538574,0.04247260093688965
1683133645908461000,3.6384609375,9.561120986938477,1.6007983684539795,-0.19381862878799438
1683133645926294800,3.656294677734375,9.762716293334961,1.0510473251342773,0.2273181527853012
1683133645944137200,3.67413720703125,9.56052303314209,1.3609179258346558,-0.29850462079048157
1683133645961975600,3.6919755859375,9.7064847946167,1.2951152324676514,0.11246266216039658
1683133645979812400,3.709812255859375,9.81655502319336,1.1270195245742798,-0.08673982322216034
1683133645997653200,3.7276533203125,9.513264656066895,1.6534404754638672,-0.10827522724866867
1683133646015489800,3.74548974609375,9.94397258758545,0.849452018737793,0.03768695518374443
1683133646033327900,3.763327880859375,9.513264656066895,1.7252250909805298,-0.08973085135221481
1683133646051165000,3.7811650390625,9.777671813964844,0.9212366938591003,0.10348957777023315
1683133646068993500,3.79899365234375,9.594022750854492,1.4470595121383667,-0.29371899366378784
1683133646086843000,3.8168427734375,9.758528709411621,1.2424731254577637,0.24107688665390015
1683133646104680700,3.8346806640625,9.722038269042969,1.2179467678070068,-0.21655045449733734
1683133646122514400,3.852514404296875,9.583852767944336,1.5194423198699951,-0.06520441919565201
1683133646140361200,3.870361328125,9.982257843017578,0.9308080077171326,0.06640082597732544
1683133646158195500,3.888195556640625,9.470193862915039,1.7204394340515137,-0.11844471842050552
1683133646176028700,3.906028564453125,9.81535816192627,0.8398807644844055,0.04666004329919815
1683133646193859600,3.923859619140625,9.570094108581543,1.581655740737915,-0.21296121180057526
1683133646211710000,3.9417099609375,9.791430473327637,1.1228320598602295,0.2793620526790619
1683133646229548300,3.95954833984375,9.617950439453125,1.3226326704025269,-0.3314059376716614
1683133646247386000,3.97738623046875,9.626325607299805,1.3663017749786377,0.03529413416981697
1683133646265224200,3.99522412109375,9.891928672790527,1.0121639966964722,0.008973085321485996
1683133646283062300,4.013062255859375,9.537193298339844,1.6917256116867065,-0.1178465187549591
1683133646300899300,4.0308994140625,9.834501266479492,0.8350951075553894,0.018544375896453857
1683133646318729700,4.048729736328125,9.522835731506348,1.6342978477478027,-0.16091732680797577
1683133646336576800,4.06657666015625,9.791430473327637,1.036690354347229,0.21296121180057526
1683133646354415400,4.084415283203125,9.584450721740723,1.389631748199463,-0.35533416271209717
1683133646372251600,4.102251708984375,9.725627899169922,1.2281162738800049,0.13160525262355804
1683133646390092300,4.12009228515625,9.826126098632812,1.184447169303894,-0.10588239878416061
1683133646407929600,4.1379296875,9.584450721740723,1.552941918373108,-0.07956135272979736
1683133646425767400,4.155767333984375,9.891928672790527,0.8877372145652771,0.03290131315588951
1683133646443606300,4.173606201171875,9.5324068069458,1.710868239402771,-0.12741780281066895
1683133646461444400,4.1914443359375,9.820143699645996,0.9308080077171326,0.13698910176753998
1683133646479282000,4.209281982421875,9.565308570861816,1.5146567821502686,-0.23688943684101105
1683133646497120500,4.22712060546875,9.78664493560791,1.1563315391540527,0.2512463629245758
1683133646514958300,4.244958251953125,9.674779891967773,1.2705888748168945,-0.24526432156562805
1683133646532785700,4.26278564453125,9.621540069580078,1.4380863904953003,-0.01734796352684498
1683133646550634800,4.280634765625,9.863214492797852,0.9930213689804077,0.017946170642971992
1683133646568466200,4.298466064453125,9.513264656066895,1.6821542978286743,-0.1417747437953949
1683133646586311400,4.3163115234375,9.829715728759766,0.849452018737793,0.05144568532705307
1683133646604149800,4.334149658203125,9.546764373779297,1.6151553392410278,-0.16510476171970367
1683133646621986000,4.351986083984375,9.753743171691895,1.017547845840454,0.19381862878799438
1683133646639822800,4.36982275390625,9.632308006286621,1.3561322689056396,-0.32183465361595154
1683133646657668000,4.387668212890625,9.739984512329102,1.3621143102645874,0.12203395366668701
1683133646675502000,4.405502197265625,9.77826976776123,1.098305583000183,-0.039481572806835175
1683133646693335300,4.423335205078125,9.522835731506348,1.5720844268798828,-0.15134602785110474
1683133646711184400,4.441184326171875,9.910472869873047,0.8877372145652771,0.06161518394947052
1683133646729016600,4.4590166015625,9.470193862915039,1.7060825824737549,-0.10887342691421509
1683133646746854700,4.476854736328125,9.81535816192627,0.9643075466156006,0.14656038582324982
1683133646764692000,4.49469189453125,9.641879081726074,1.4572290182113647,-0.3074777126312256
1683133646782531800,4.51253173828125,9.753743171691895,1.2089736461639404,0.21236300468444824
1683133646800369200,4.530369140625,9.702896118164062,1.2275179624557495,-0.1495514214038849
1683133646818206500,4.54820654296875,9.622138023376465,1.5002998113632202,-0.059820566326379776
1683133646836046800,4.566046875,9.872786521911621,0.9451649188995361,0.03290131315588951
1683133646853883400,4.58388330078125,9.403793334960938,1.7635103464126587,-0.10468599200248718
1683133646871719200,4.60171923828125,9.886545181274414,0.8973084688186646,0.08973085135221481
1683133646889563600,4.619563720703125,9.54197883605957,1.5672988891601562,-0.23688943684101105
1683133646907397600,4.637397705078125,9.758528709411621,1.0654042959213257,0.20338992774486542
1683133646925236500,4.655236572265625,9.65085220336914,1.2939188480377197,-0.27397820353507996
1683133646943070000,4.673070068359375,9.64965534210205,1.3764712810516357,0.07836493849754333
1683133646960912600,4.69091259765625,9.792028427124023,1.0408778190612793,-0.015553346835076809
1683133646978751200,4.708751220703125,9.54197883605957,1.667797327041626,-0.11306086927652359
1683133646996589000,4.726589111328125,9.924830436706543,0.8638089895248413,0.06161518394947052
1683133647014422800,4.7444228515625,9.489336013793945,1.6965112686157227,-0.10887342691421509
1683133647032265200,4.76226513671875,9.848857879638672,0.9888339638710022,0.14656038582324982
1683133647050103600,4.780103515625,9.570094108581543,1.4039887189865112,-0.29850462079048157
1683133647067930000,4.79793017578125,9.720842361450195,1.2999008893966675,0.2027917206287384
1683133647085780500,4.815780517578125,9.745368003845215,1.184447169303894,-0.14476576447486877
1683133647103618300,4.833618408203125,9.541379928588867,1.5290136337280273,-0.13698910176753998
1683133647121456600,4.85145654296875,9.882357597351074,0.8973084688186646,0.06580262631177902
1683133647139294200,4.869294189453125,9.508479118347168,1.7641085386276245,-0.09451649338006973
1683133647157132500,4.887132568359375,9.781859397888184,0.8638089895248413,0.07537391036748886
1683133647174970600,4.904970703125,9.5324068069458,1.5050854682922363,-0.2560320198535919
1683133647192805400,4.922805419921875,9.734601020812988,1.1850453615188599,0.24586252868175507
1683133647210647300,4.940647216796875,9.6795654296875,1.2658032178878784,-0.25004997849464417
1683133647228485000,4.958485107421875,9.588638305664062,1.423729419708252,-0.022133609279990196
1683133647246323700,4.97632373046875,9.91107177734375,0.9978070259094238,0.047258246690034866
1683133647264157000,4.994156982421875,9.508479118347168,1.7593228816986084,-0.07058826833963394
1683133647281999400,5.011999267578125,9.839286804199219,0.8638089895248413,0.037088751792907715
1683133647299838700,5.029838623046875,9.565906524658203,1.6199408769607544,-0.20817556977272034
1683133647317676000,5.047676025390625,9.767501831054688,1.0414760112762451,0.23210379481315613
1683133647335509800,5.065509765625,9.594022750854492,1.3752747774124146,-0.29312077164649963
1683133647353353000,5.08335302734375,9.711270332336426,1.2951152324676514,0.14057832956314087
1683133647371190800,5.101190673828125,9.849455833435059,1.1030912399291992,-0.06759724020957947
1683133647389027600,5.119027587890625,9.479764938354492,1.648654818534851,-0.08015955984592438
1683133647406868500,5.136868408203125,9.972686767578125,0.8781659007072449,0.02871387079358101
1683133647424705300,5.154705322265625,9.503693580627441,1.7060825824737549,-0.09930214285850525
1683133647442543000,5.172543212890625,9.758528709411621,0.9260223507881165,0.11306086927652359
1683133647460381400,5.19038134765625,9.613164901733398,1.4715858697891235,-0.26979073882102966
1683133647478215400,5.20821533203125,9.715457916259766,1.2137593030929565,0.25064817070961
1683133647496059400,5.226059326171875,9.722038269042969,1.25144624710083,-0.21176479756832123
1683133647513896200,5.243896240234375,9.602995872497559,1.5290136337280273,-0.050847481936216354
1683133647531734500,5.261734619140625,9.94397258758545,0.916451096534729,0.052043892443180084
1683133647549572400,5.279572265625,9.489336013793945,1.7060825824737549,-0.09930214285850525
1683133647567411000,5.297410888671875,9.848857879638672,0.8733802437782288,0.05623133108019829
1683133647585244200,5.315244140625,9.5324068069458,1.552941918373108,-0.1986042857170105
1683133647603086800,5.3330869140625,9.805787086486816,1.1276177167892456,0.24167509377002716
1683133647620925200,5.35092529296875,9.660423278808594,1.332203984260559,-0.33080771565437317
1683133647638763800,5.368763671875,9.68794059753418,1.3764712810516357,0.04546362906694412
1683133647656594400,5.386594482421875,9.859027862548828,1.0265209674835205,0.017946170642971992
1683133647674441700,5.404441650390625,9.537193298339844,1.6582261323928833,-0.13698910176753998
1683133647692278300,5.4222783203125,9.8871431350708,0.8350951075553894,0.008973085321485996
1683133647710114800,5.44011474609375,9.5324068069458,1.6534404754638672,-0.1657029688358307
1683133647727955200,5.457955078125,9.80100154876709,0.9984052777290344,0.21774685382843018
1683133647745792500,5.47579248046875,9.603593826293945,1.389631748199463,-0.32662028074264526
1683133647763627800,5.493627685546875,9.735198974609375,1.2424731254577637,0.16031911969184875
1683133647781471700,5.5114716796875,9.773484230041504,1.1700903177261353,-0.09690931439399719
1683133647799307000,5.52930712890625,9.589237213134766,1.5720844268798828,-0.07956135272979736
1683133647817145000,5.54714501953125,9.915857315063477,0.9260223507881165,0.01375873014330864
1683133647834983200,5.564983154296875,9.513264656066895,1.710868239402771,-0.11306086927652359
1683133647852817400,5.5828173828125,9.810572624206543,0.9355936646461487,0.12741780281066895
1683133647870659600,5.60065966796875,9.55633544921875,1.5290136337280273,-0.2554338276386261
1683133647888490000,5.618489990234375,9.768099784851074,1.1228320598602295,0.2273181527853012
1683133647906331600,5.63633154296875,9.693922996520996,1.2801600694656372,-0.259621262550354
1683133647924174000,5.654174072265625,9.640682220458984,1.4195420742034912,-0.0023928226437419653
1683133647942012400,5.672012451171875,9.844670295715332,0.9882357716560364,0.013160524889826775
1683133647959850800,5.689850830078125,9.561120986938477,1.6869399547576904,-0.1417747437953949
1683133647977689000,5.707689208984375,9.8871431350708,0.8685946464538574,0.052043892443180084
1683133647995527400,5.72552734375,9.518050193786621,1.6534404754638672,-0.15134602785110474
1683133648013365000,5.743364990234375,9.796216011047363,1.0319048166275024,0.18903298676013947
1683133648031202300,5.761202392578125,9.617950439453125,1.3657035827636719,-0.32183465361595154
1683133648049040000,5.779039794921875,9.7064847946167,1.3381860256195068,0.1453639715909958
1683133648066882600,5.796882568359375,9.81655502319336,1.1078768968582153,-0.06819544732570648
1683133648084717800,5.8147177734375,9.527621269226074,1.576870083808899,-0.14656038582324982
1683133648102556200,5.83255615234375,9.872786521911621,0.882951557636261,0.07058826833963394
1683133648120394500,5.85039453125,9.527621269226074,1.7353945970535278,-0.09870393574237823
1683133648138231800,5.868231689453125,9.767501831054688,0.9212366938591003,0.13698910176753998
1683133648156071400,5.886071533203125,9.608379364013672,1.466800332069397,-0.3122633695602417
1683133648173910500,5.90391064453125,9.79681396484375,1.2089736461639404,0.20338992774486542
1683133648191745500,5.92174560546875,9.712467193603516,1.222732424736023,-0.1543370634317398
1683133648209585400,5.93958544921875,9.602995872497559,1.4811571836471558,-0.05024927482008934
1683133648227423700,5.957423828125,9.90149974822998,0.9547362327575684,0.03290131315588951
1683133648245249800,5.975249755859375,9.470193862915039,1.7641085386276245,-0.0849452018737793
1683133648263097000,5.99309716796875,9.910472869873047,0.8973084688186646,0.09511470049619675
1683133648280941000,6.010941162109375,9.584450721740723,1.5960127115249634,-0.2225325107574463
1683133648298774000,6.02877392578125,9.772886276245117,1.079761266708374,0.1746760457754135
1683133648316616400,6.046616455078125,9.603593826293945,1.303490161895752,-0.26440688967704773
1683133648334452500,6.064452392578125,9.707083702087402,1.3860424757003784,0.08374879509210587
1683133648352289000,6.0822890625,9.8207426071167,1.0552347898483276,-0.02512463741004467
1683133648370119200,6.100119140625,9.470193862915039,1.672582983970642,-0.14656038582324982
1683133648387967200,6.11796728515625,9.963115692138672,0.8542376756668091,0.052043892443180084
1683133648405805600,6.1358056640625,9.537193298339844,1.6923238039016724,-0.11306086927652359
1683133648423643400,6.153643310546875,9.772287368774414,0.9451649188995361,0.14656038582324982
1683133648441481500,6.1714814453125,9.594022750854492,1.3992030620574951,-0.29371899366378784
1683133648459319800,6.18931982421875,9.7064847946167,1.280758261680603,0.20757736265659332
1683133648477146000,6.20714599609375,9.68794059753418,1.1700903177261353,-0.1256231814622879
1683133648494996200,6.224996337890625,9.589237213134766,1.5481562614440918,-0.12681959569454193
1683133648512830200,6.242830322265625,9.924830436706543,0.9068797826766968,0.09032905846834183
1683133648530672400,6.26067236328125,9.451051712036133,1.7395820617675781,-0.07537391036748886
1683133648548511200,6.27851123046875,9.834501266479492,0.9020941257476807,0.07058826833963394
1683133648566348800,6.296348876953125,9.551549911499023,1.5002998113632202,-0.29371899366378784
1683133648584191000,6.31419091796875,9.744172096252441,1.1754741668701172,0.26500511169433594
1683133648602025500,6.332025390625,9.660423278808594,1.275374412536621,-0.25004997849464417
1683133648619860200,6.349860107421875,9.607781410217285,1.4189438819885254,-0.022133609279990196
1683133648637705500,6.36770556640625,9.891928672790527,0.9882357716560364,0.061016976833343506
1683133648655540200,6.385540283203125,9.5324068069458,1.7641085386276245,-0.08973085135221481
1683133648673373700,6.403373779296875,9.8871431350708,0.8590233325958252,0.03290131315588951
1683133648691213000,6.421213134765625,9.494122505187988,1.6199408769607544,-0.19920247793197632
1683133648709057500,6.4390576171875,9.748957633972168,1.0701899528503418,0.24167509377002716
1683133648726892800,6.456892822265625,9.608379364013672,1.3417752981185913,-0.3026920557022095
1683133648744731000,6.47473095703125,9.597611427307129,1.3040883541107178,0.0975075215101242
1683133648762556000,6.492555908203125,9.835697174072266,1.1078768968582153,-0.08673982322216034
1683133648780398300,6.5103984375,9.541379928588867,1.6534404754638672,-0.09870393574237823
1683133648798244600,6.52824462890625,9.924830436706543,0.8781659007072449,0.03290131315588951
1683133648816080400,6.546080322265625,9.537193298339844,1.7018951177597046,-0.10348957777023315
1683133648833926700,6.5639267578125,9.78664493560791,0.9451649188995361,0.12263216078281403
1683133648851759600,6.581759521484375,9.498908042907715,1.4327025413513184,-0.2847459018230438
1683133648869598700,6.5995986328125,9.777671813964844,1.2041879892349243,0.24107688665390015
1683133648887421000,6.6174208984375,9.764511108398438,1.2179467678070068,-0.19680966436862946
1683133648905274600,6.635274658203125,9.541379928588867,1.5290136337280273,-0.06520441919565201
1683133648923110400,6.6531103515625,9.977472305297852,0.9266205430030823,0.052043892443180084
1683133648940954000,6.6709541015625,9.503693580627441,1.710868239402771,-0.10408778488636017
1683133648958789000,6.6887890625,9.772886276245117,0.8685946464538574,0.037088751792907715
1683133648976627500,6.70662744140625,9.594022750854492,1.5481562614440918,-0.20817556977272034
1683133648994461200,6.724461181640625,9.781859397888184,1.1132607460021973,0.2560320198535919
1683133649012302800,6.742302734375,9.660423278808594,1.3130614757537842,-0.33080771565437317
1683133649030142500,6.760142578125,9.68794059753418,1.3908281326293945,0.064606212079525
1683133649047980300,6.777980224609375,9.863813400268555,1.0265209674835205,0.013160524889826775
1683133649065818600,6.795818603515625,9.5324068069458,1.6630117893218994,-0.14656038582324982
1683133649083656400,6.813656494140625,9.877572059631348,0.8590233325958252,0.03290131315588951
1683133649101495000,6.8314951171875,9.498908042907715,1.648654818534851,-0.1417747437953949
1683133649119331800,6.849331787109375,9.820143699645996,1.012762188911438,0.19920247793197632
1683133649137172700,6.8671728515625,9.632308006286621,1.3902299404144287,-0.3170489966869354
1683133649155009800,6.885009765625,9.66819953918457,1.2616157531738281,0.16450655460357666
1683133649172850700,6.9028505859375,9.80219841003418,1.160519003868103,-0.10588239878416061
1683133649190686000,6.92068603515625,9.646066665649414,1.5726827383041382,-0.09810572862625122
1683133649208509400,6.938509521484375,9.829715728759766,0.8925228714942932,0.02273181453347206
1683133649226365400,6.956365478515625,9.479764938354492,1.6965112686157227,-0.12323036789894104
1683133649244200700,6.97420068359375,9.886545181274414,0.9074779748916626,0.14715859293937683
1683133649262033000,6.992032958984375,9.561120986938477,1.5290136337280273,-0.23688943684101105
1683133649279877000,7.009877197265625,9.763314247131348,1.1324033737182617,0.20817556977272034
1683133649297715700,7.0277158203125,9.698110580444336,1.2562319040298462,-0.2590230405330658
1683133649315548700,7.045548583984375,9.611968994140625,1.4386845827102661,0.01615155301988125
1683133649333391400,7.063391357421875,9.853643417358398,0.9930213689804077,0.037088751792907715
1683133649351229400,7.0812294921875,9.518050193786621,1.7012969255447388,-0.13220344483852386
1683133649369059800,7.099059814453125,9.848857879638672,0.8685946464538574,0.05144568532705307
1683133649386907400,7.116907470703125,9.5324068069458,1.6247265338897705,-0.1657029688358307
1683133649404744200,7.134744140625,9.781859397888184,1.017547845840454,0.17946170270442963
1683133649422584300,7.152584228515625,9.637093544006348,1.3615161180496216,-0.29790642857551575
1683133649440419600,7.170419677734375,9.696913719177246,1.3381860256195068,0.1501496136188507
1683133649458258700,7.1882587890625,9.773484230041504,1.1078768968582153,-0.05383851006627083
1683133649476099000,7.20609912109375,9.584450721740723,1.552941918373108,-0.15553347766399384
1683133649493935400,7.223935302734375,9.872786521911621,0.882951557636261,0.07058826833963394
1683133649511773700,7.241773681640625,9.479764938354492,1.740180253982544,-0.09930214285850525
1683133649529611500,7.259611572265625,9.863214492797852,0.9361918568611145,0.12801600992679596
1683133649547439000,7.277439208984375,9.565906524658203,1.4811571836471558,-0.3032902777194977
1683133649565288400,7.295288330078125,9.701699256896973,1.2185449600219727,0.21714866161346436
1683133649583128000,7.313128173828125,9.740582466125488,1.1988041400909424,-0.18305093050003052
1683133649600959000,7.330958984375,9.569496154785156,1.4763715267181396,-0.06041877344250679
1683133649618807300,7.348807373046875,9.891928672790527,0.9403793215751648,0.052043892443180084
1683133649636636400,7.366636474609375,9.460622787475586,1.7688941955566406,-0.07058826833963394
1683133649654479600,7.384479736328125,9.886545181274414,0.9068797826766968,0.08973085135221481
1683133649672318000,7.40231787109375,9.537193298339844,1.5864413976669312,-0.2273181527853012
1683133649690155000,7.420155029296875,9.753743171691895,1.079761266708374,0.1986042857170105
1683133649707995100,7.4379951171875,9.660423278808594,1.3184453248977661,-0.259621262550354
1683133649725832200,7.455832275390625,9.668798446655273,1.3621143102645874,0.0975075215101242
1683133649743670300,7.473670166015625,9.825528144836426,1.069591760635376,-0.039481572806835175
1683133649761507800,7.4915078125,9.5324068069458,1.672582983970642,-0.13220344483852386
1683133649779337200,7.509337158203125,9.94397258758545,0.8733802437782288,0.047258246690034866
1683133649797185300,7.527185302734375,9.479764938354492,1.7012969255447388,-0.12323036789894104
1683133649815023600,7.545023681640625,9.820143699645996,0.9451649188995361,0.12741780281066895
1683133649832858400,7.5628583984375,9.594022750854492,1.428515076637268,-0.2793620526790619
1683133649850702600,7.58070263671875,9.7064847946167,1.2759727239608765,0.21714866161346436
1683133649868538000,7.5985380859375,9.735796928405762,1.2035897970199585,-0.14476576447486877
1683133649886376200,7.616376220703125,9.517452239990234,1.5433706045150757,-0.10827522724866867
1683133649904202500,7.634202392578125,9.963115692138672,0.893121063709259,0.07118647545576096
1683133649922052600,7.652052490234375,9.484550476074219,1.7306089401245117,-0.09930214285850525
1683133649939889200,7.66988916015625,9.791430473327637,0.8685946464538574,0.061016976833343506
1683133649957730800,7.687730712890625,9.546764373779297,1.5098711252212524,-0.2512463629245758
1683133649975564500,7.705564453125,9.739386558532715,1.165902853012085,0.2602194547653198
1683133649993406200,7.72340625,9.66520881652832,1.2849457263946533,-0.29730820655822754
1683133650011244300,7.741244384765625,9.616754531860352,1.3956137895584106,0.001794616924598813
1683133650029083000,7.759082763671875,9.844072341918945,0.9978070259094238,0.05144568532705307
1683133650046920200,7.776920166015625,9.522835731506348,1.7258232831954956,-0.10827522724866867
1683133650064758300,7.79475830078125,9.868000984191895,0.8446664214134216,0.023330021649599075
1683133650082596000,7.81259619140625,9.513264656066895,1.6103696823120117,-0.20817556977272034
1683133650100434700,7.8304345703125,9.753743171691895,1.0558329820632935,0.21774685382843018
1683133650118271700,7.848271728515625,9.608379364013672,1.3615161180496216,-0.3026920557022095
1683133650136112000,7.866112060546875,9.701699256896973,1.2855439186096191,0.13579268753528595
1683133650153950000,7.883949951171875,9.797411918640137,1.1222338676452637,-0.09690931439399719
1683133650171788000,7.9017880859375,9.546165466308594,1.6342978477478027,-0.09391828626394272
1683133650189623000,7.919623046875,9.920044898986816,0.8685946464538574,0.023330021649599075
1683133650207467000,7.937467041015625,9.494122505187988,1.721037745475769,-0.10887342691421509
1683133650225302300,7.95530224609375,9.829715728759766,0.9116654396057129,0.10887342691421509
1683133650243140400,7.973140380859375,9.565308570861816,1.4811571836471558,-0.2554338276386261
1683133650260978700,7.990978759765625,9.725028991699219,1.2041879892349243,0.2554338276386261
1683133650278816800,8.008816650390624,9.722038269042969,1.2370892763137817,-0.2350948303937912
1683133650296655000,8.026655029296874,9.602995872497559,1.5056836605072021,-0.05503492057323456
1683133650314493400,8.044493408203126,9.94397258758545,0.9553344249725342,0.047258246690034866
1683133650332330500,8.06233056640625,9.470791816711426,1.6917256116867065,-0.15613168478012085
1683133650350171000,8.0801708984375,9.777671813964844,0.8398807644844055,0.04666004329919815
1683133650367996700,8.09799658203125,9.57487964630127,1.576870083808899,-0.19381862878799438
1683133650385846300,8.11584619140625,9.805787086486816,1.079761266708374,0.26081767678260803
1683133650403680000,8.133679931640625,9.627521514892578,1.3417752981185913,-0.32662028074264526
1683133650421523000,8.15152294921875,9.716654777526855,1.3573286533355713,0.08374879509210587
1683133650439361000,8.169361083984375,9.896714210510254,1.0654042959213257,-0.0005982056609354913
1683133650457199000,8.18719921875,9.522835731506348,1.6295121908187866,-0.13220344483852386
1683133650475037200,8.205037109375,9.824930191040039,0.8398807644844055,0.037088751792907715
1683133650492875500,8.22287548828125,9.522835731506348,1.6827524900436401,-0.12741780281066895
1683133650510701800,8.240701904296875,9.81535816192627,0.9936196208000183,0.18963119387626648
1683133650528539100,8.2585390625,9.561120986938477,1.4135600328445435,-0.3601198196411133
1683133650546391300,8.276391357421875,9.730413436889648,1.2185449600219727,0.16510476171970367
1683133650564228900,8.294228759765625,9.759725570678711,1.1892328262329102,-0.14476576447486877
1683133650582067000,8.31206689453125,9.622138023376465,1.5200406312942505,-0.059820566326379776
1683133650599904800,8.32990478515625,9.94397258758545,0.9355936646461487,0.023330021649599075
1683133650617743000,8.3477431640625,9.460622787475586,1.6869399547576904,-0.11844471842050552
1683133650635569400,8.3655693359375,9.881759643554688,0.9026923179626465,0.12323036789894104
1683133650653415200,8.383415283203124,9.608379364013672,1.5481562614440918,-0.20757736265659332
1683133650671257600,8.401257568359375,9.781859397888184,1.0845468044281006,0.21296121180057526
1683133650689097000,8.419096923828125,9.660423278808594,1.3088740110397339,-0.26919254660606384
1683133650706934000,8.43693408203125,9.692726135253906,1.4195420742034912,0.064606212079525
1683133650724768300,8.454768310546875,9.806385040283203,1.0456634759902954,0.008374879136681557
1683133650742610400,8.4726103515625,9.518050193786621,1.648654818534851,-0.13220344483852386
1683133650760448800,8.49044873046875,9.881759643554688,0.8590233325958252,0.06640082597732544
1683133650778286600,8.50828662109375,9.550951957702637,1.673181176185608,-0.12263216078281403
1683133650796121600,8.52612158203125,9.796216011047363,0.9936196208000183,0.15134602785110474
1683133650813963300,8.54396337890625,9.603593826293945,1.4189438819885254,-0.3026920557022095
1683133650831798800,8.561798828125,9.7064847946167,1.319043517112732,0.2027917206287384
1683133650849642000,8.57964208984375,9.778867721557617,1.1748759746551514,-0.13040883839130402
1683133650867479800,8.597479736328125,9.570094108581543,1.5098711252212524,-0.12203395366668701
1683133650885316600,8.615316650390625,9.910472869873047,0.8973084688186646,0.07118647545576096
1683133650903154400,8.633154541015625,9.446864128112793,1.7545372247695923,-0.08973085135221481
1683133650920993500,8.65099365234375,9.805787086486816,0.8925228714942932,0.09451649338006973
1683133650938831400,8.668831298828126,9.608379364013672,1.5290136337280273,-0.2745763957500458
1683133650956669200,8.686669189453125,9.691530227661133,1.1467602252960205,0.21714866161346436
1683133650974502100,8.704502197265626,9.655637741088867,1.2705888748168945,-0.24047867953777313
1683133650992346600,8.7223466796875,9.678967475891113,1.409970760345459,-0.016749758273363113
1683133651010184000,8.740183837890624,9.863214492797852,0.9978070259094238,-0.0005982056609354913
1683133651028022500,8.7580224609375,9.437292098999023,1.734796404838562,-0.10887342691421509
1683133651045848000,8.77584814453125,9.958329200744629,0.8739784955978394,0.07597211748361588
1683133651063699200,8.79369921875,9.54197883605957,1.643869161605835,-0.15613168478012085
1683133651081537000,8.811537109375,9.78245735168457,1.017547845840454,0.15134602785110474
1683133651099374000,8.8293740234375,9.632308006286621,1.3663017749786377,-0.29790642857551575
1683133651117214700,8.847214599609375,9.730413436889648,1.3286148309707642,0.1788634955883026
1683133651135051500,8.865051513671874,9.716654777526855,1.1509476900100708,-0.10169496387243271
1683133651152890000,8.88289013671875,9.56052303314209,1.581655740737915,-0.12263216078281403
1683133651170727000,8.900726806640625,9.953543663024902,0.893121063709259,0.06161518394947052
1683133651188567600,8.918567626953125,9.484550476074219,1.716252088546753,-0.08973085135221481
1683133651206404900,8.93640478515625,9.810572624206543,0.882951557636261,0.07058826833963394
1683133651224248300,8.954248291015626,9.550951957702637,1.4859428405761719,-0.24107688665390015
1683133651242081000,8.9720810546875,9.768099784851074,1.2185449600219727,0.26500511169433594
1683133651259920400,8.98992041015625,9.712467193603516,1.2562319040298462,-0.24945175647735596
1683133651277753000,9.007753173828124,9.650253295898438,1.4434702396392822,-0.05024927482008934
1683133651295594000,9.025593994140625,9.924830436706543,0.9601200819015503,0.0568295381963253
1683133651313433900,9.043433837890625,9.498908042907715,1.7353945970535278,-0.1136590763926506
1683133651331272200,9.061272216796874,9.872786521911621,0.8590233325958252,0.023330021649599075
1683133651349110800,9.07911083984375,9.5324068069458,1.5912270545959473,-0.20338992774486542
1683133651366940000,9.09693994140625,9.763314247131348,1.079761266708374,0.2273181527853012
1683133651384787000,9.114786865234375,9.603593826293945,1.3800604343414307,-0.32183465361595154
1683133651402625300,9.132625244140625,9.678369522094727,1.2903295755386353,0.11665010452270508
1683133651420462300,9.15046240234375,9.859027862548828,1.093519926071167,-0.07238288223743439
1683133651438302500,9.168302490234375,9.565308570861816,1.649253010749817,-0.0891326442360878
1683133651456141000,9.18614111328125,9.92961597442627,0.8685946464538574,0.03768695518374443
1683133651473977900,9.203977783203126,9.503693580627441,1.7012969255447388,-0.12263216078281403
1683133651491815400,9.2218154296875,9.839286804199219,0.9457631707191467,0.12323036789894104
1683133651509656000,9.239656005859375,9.579665184020996,1.4715858697891235,-0.24586252868175507
1683133651527492900,9.257492919921875,9.744172096252441,1.1802598237991333,0.2602194547653198
1683133651545331200,9.275331298828124,9.731609344482422,1.25144624710083,-0.22073788940906525
1683133651563169300,9.293169189453126,9.598209381103516,1.5056836605072021,-0.026919255033135414
1683133651581007400,9.31100732421875,9.91107177734375,0.9643075466156006,0.047258246690034866
1683133651598846000,9.328845947265625,9.57069206237793,1.6923238039016724,-0.15074782073497772
1683133651616679200,9.34667919921875,9.810572624206543,0.8733802437782288,0.05623133108019829
1683133651634522000,9.364522216796875,9.527621269226074,1.581655740737915,-0.17946170270442963
1683133651652360400,9.3823603515625,9.824930191040039,1.0606186389923096,0.21296121180057526
1683133651670199000,9.400198974609374,9.613164901733398,1.3615161180496216,-0.32183465361595154
1683133651688037000,9.418037109375,9.683155059814453,1.3525429964065552,0.12143574655056
1683133651705874700,9.435874755859375,9.887741088867188,1.074377417564392,-0.03409772366285324
1683133651723711000,9.4537109375,9.598808288574219,1.6061822175979614,-0.12681959569454193
1683133651741540600,9.47154052734375,9.877572059631348,0.8590233325958252,0.028115665540099144
1683133651759391000,9.489390869140625,9.494122505187988,1.6917256116867065,-0.12263216078281403
1683133651777222400,9.507222412109375,9.844072341918945,0.9601200819015503,0.17527425289154053
1683133651795072000,9.525072021484375,9.57069206237793,1.466800332069397,-0.29850462079048157
1683133651812887800,9.5428876953125,9.711270332336426,1.170688509941101,0.18364913761615753
1683133651830743000,9.560742919921875,9.750154495239258,1.2179467678070068,-0.20159530639648438
1683133651848569300,9.5785693359375,9.688538551330566,1.4865410327911377,-0.040677983313798904
1683133651866415000,9.5964150390625,9.844072341918945,0.9499505758285522,0.02751746028661728
1683133651884257500,9.614257568359376,9.489336013793945,1.6917256116867065,-0.13220344483852386
1683133651902095600,9.632095703125,9.910472869873047,0.8925228714942932,0.07597211748361588
1683133651919933700,9.64993359375,9.551549911499023,1.6055840253829956,-0.1698904037475586
1683133651937772000,9.66777197265625,9.772287368774414,1.0271191596984863,0.17946170270442963
1683133651955597000,9.68559716796875,9.65085220336914,1.3567304611206055,-0.2883351147174835
1683133651973451500,9.703451416015625,9.720842361450195,1.3668999671936035,0.12622138857841492
1683133651991286800,9.721286865234376,9.744770050048828,1.1174482107162476,-0.03469592705368996
1683133652009125400,9.73912548828125,9.56052303314209,1.5720844268798828,-0.1459621787071228
1683133652026963700,9.756963623046875,9.920044898986816,0.8733802437782288,0.07118647545576096
1683133652044801300,9.77480126953125,9.484550476074219,1.7395820617675781,-0.1136590763926506
1683133652062636800,9.79263671875,9.820143699645996,0.9068797826766968,0.12263216078281403
1683133652080480800,9.810480712890625,9.551549911499023,1.4620146751403809,-0.2745763957500458
1683133652098315300,9.828315185546876,9.729815483093262,1.2281162738800049,0.2267199456691742
1683133652116155000,9.84615478515625,9.740582466125488,1.2275179624557495,-0.19262222945690155
1683133652133988400,9.86398828125,9.569496154785156,1.4715858697891235,-0.04127619042992592
1683133652151830500,9.88183056640625,9.915258407592773,0.9601200819015503,0.06640082597732544
1683133652169669000,9.899669189453125,9.522835731506348,1.7784653902053833,-0.061016976833343506
1683133652187507200,9.917507080078124,9.886545181274414,0.8781659007072449,0.06640082597732544
1683133652205345800,9.935345703125,9.54197883605957,1.581655740737915,-0.21774685382843018
1683133652223183600,9.95318359375,9.767501831054688,1.0462616682052612,0.20338992774486542
1683133652241009400,9.971009521484374,9.622138023376465,1.3423734903335571,-0.26919254660606384
1683133652258860500,9.988860595703125,9.640084266662598,1.3142578601837158,0.12143574655056
1683133652276692700,10.006692626953125,9.849455833435059,1.0839486122131348,-0.06281159073114395
1683133652294536700,10.02453662109375,9.550951957702637,1.6636099815368652,-0.1178465187549591
1683133652312374800,10.042374755859376,9.963115692138672,0.8590233325958252,0.04307080805301666
1683133652330213000,10.060213134765625,9.494122505187988,1.7018951177597046,-0.10887342691421509
1683133652348051500,10.078051513671875,9.805787086486816,0.9308080077171326,0.0849452018737793
1683133652365889800,10.095889892578125,9.55633544921875,1.4572290182113647,-0.2745763957500458
1683133652383723000,10.113722900390625,9.748957633972168,1.2233306169509888,0.25064817070961
1683133652401566200,10.131566162109374,9.717252731323242,1.2275179624557495,-0.22133609652519226
1683133652419404500,10.149404541015626,9.607781410217285,1.4811571836471558,-0.064606212079525
1683133652437242600,10.16724267578125,9.948758125305176,0.9266205430030823,0.07597211748361588
1683133652455073000,10.185072998046875,9.508479118347168,1.7306089401245117,-0.09451649338006973
1683133652472913200,10.2029130859375,9.844072341918945,0.849452018737793,0.03768695518374443
1683133652490753800,10.22075390625,9.518050193786621,1.5625132322311401,-0.2225325107574463
1683133652508596000,10.238595947265624,9.77707290649414,1.103689432144165,0.2225325107574463
1683133652526433300,10.256433349609376,9.594022750854492,1.3465609550476074,-0.3314059376716614
1683133652544275000,10.27427490234375,9.644869804382324,1.319043517112732,0.054436713457107544
1683133652562109700,10.292109619140625,9.887741088867188,1.0701899528503418,-0.010169495828449726
1683133652579948300,10.3099482421875,9.565308570861816,1.6588243246078491,-0.10348957777023315
1683133652597786400,10.327786376953124,9.882357597351074,0.8590233325958252,0.01375873014330864
1683133652615624400,10.34562451171875,9.522835731506348,1.648654818534851,-0.15134602785110474
1683133652633463000,10.363463134765626,9.810572624206543,0.9696913957595825,0.18005990982055664
1683133652651301600,10.381301513671875,9.565308570861816,1.4572290182113647,-0.26979073882102966
1683133652669139700,10.3991396484375,9.69212818145752,1.194616675376892,0.2027917206287384
1683133652686977500,10.4169775390625,9.764511108398438,1.2035897970199585,-0.19680966436862946
1683133652704811000,10.43481103515625,9.617352485656738,1.5487544536590576,-0.05024927482008934
1683133652722654700,10.45265478515625,9.891928672790527,0.9116654396057129,0.04247260093688965
1683133652740487000,10.47048681640625,9.527621269226074,1.7018951177597046,-0.12263216078281403
1683133652758329300,10.488329345703125,9.824930191040039,0.8781659007072449,0.05144568532705307
1683133652776164900,10.506164794921874,9.570094108581543,1.5625132322311401,-0.20817556977272034
1683133652794007300,10.52400732421875,9.772287368774414,1.103689432144165,0.23210379481315613
1683133652811845400,10.541845458984374,9.622735977172852,1.3232308626174927,-0.3074777126312256
1683133652829682200,10.55968212890625,9.740582466125488,1.4195420742034912,0.08374879509210587
1683133652847523000,10.577523193359376,9.8871431350708,1.0408778190612793,-0.0005982056609354913
1683133652865360000,10.59535986328125,9.498908042907715,1.6247265338897705,-0.1704886108636856
1683133652883198500,10.613198486328125,9.948758125305176,0.8590233325958252,0.047258246690034866
1683133652901036000,10.6310361328125,9.518050193786621,1.6773686408996582,-0.13220344483852386
1683133652918875000,10.648875,9.757930755615234,0.97926265001297,0.1746760457754135
1683133652936713000,10.666712890625,9.6795654296875,1.428515076637268,-0.3074777126312256
1683133652954551300,10.68455126953125,9.716055870056152,1.2424731254577637,0.18364913761615753
1683133652972388600,10.702388671875,9.754940032958984,1.2083754539489746,-0.10648060590028763
1683133652990228500,10.720228515625,9.66520881652832,1.5296118259429932,-0.08374879509210587
1683133653008061400,10.7380615234375,9.891928672790527,0.916451096534729,0.03290131315588951
1683133653025903900,10.75590380859375,9.45164966583252,1.7252250909805298,-0.10408778488636017
1683133653043739000,10.77373876953125,9.92961597442627,0.893121063709259,0.12323036789894104
1683133653061583400,10.791583251953124,9.589237213134766,1.557727575302124,-0.2267199456691742
1683133653079418400,10.80941845703125,9.69212818145752,1.098903775215149,0.1788634955883026
1683133653097257000,10.827257080078125,9.722038269042969,1.2897313833236694,-0.2590230405330658
1683133653115094800,10.8450947265625,9.683155059814453,1.409970760345459,0.0687936544418335
1683133653132933400,10.862933349609374,9.754341125488281,1.0360921621322632,0.0029910283628851175
1683133653150770400,10.8807705078125,9.550951957702637,1.6582261323928833,-0.13220344483852386
1683133653168611000,10.898611083984376,9.910472869873047,0.8542376756668091,0.047258246690034866
1683133653186448100,10.9164482421875,9.489336013793945,1.672582983970642,-0.1417747437953949
1683133653204286500,10.934286376953125,9.768099784851074,0.9355936646461487,0.11306086927652359
1683133653222124500,10.95212451171875,9.594022750854492,1.4141582250595093,-0.28893333673477173
1683133653239962400,10.96996240234375,9.69212818145752,1.2903295755386353,0.2267199456691742
1683133653257789000,10.987788818359375,9.77408218383789,1.179661512374878,-0.1256231814622879
1683133653275639000,11.00563916015625,9.579665184020996,1.5098711252212524,-0.12203395366668701
1683133653293474800,11.023474853515625,9.886545181274414,0.9116654396057129,0.0849452018737793
1683133653311316000,11.04131591796875,9.518050193786621,1.7736797332763672,-0.08973085135221481
1683133653329153500,11.059153564453124,9.863214492797852,0.882951557636261,0.07537391036748886
1683133653346992000,11.0769921875,9.537193298339844,1.5433706045150757,-0.2745763957500458
1683133653364830500,11.09483056640625,9.753743171691895,1.1180464029312134,0.21296121180057526
1683133653382664200,11.112664306640625,9.646066665649414,1.2993026971817017,-0.259621262550354
1683133653400507000,11.1305068359375,9.631111145019531,1.3812568187713623,0.04486542567610741
1683133653418344000,11.148343994140625,9.90149974822998,1.007378339767456,0.004187439568340778
1683133653436184000,11.16618408203125,9.494122505187988,1.74496591091156,-0.08015955984592438
1683133653454021400,11.184021484375,9.92961597442627,0.849452018737793,0.047258246690034866
1683133653471857700,11.201857666015625,9.537193298339844,1.648654818534851,-0.15134602785110474
1683133653489699800,11.219699951171876,9.791430473327637,0.9984052777290344,0.15134602785110474
1683133653507533000,11.237532958984374,9.589237213134766,1.404586911201477,-0.2745763957500458
1683133653525375500,11.25537548828125,9.763314247131348,1.2616157531738281,0.20757736265659332
1683133653543214000,11.273214111328125,9.754940032958984,1.1940184831619263,-0.13040883839130402
1683133653561050600,11.291050537109374,9.541379928588867,1.5720844268798828,-0.0891326442360878
1683133653578877000,11.308876953125,9.967901229858398,0.8781659007072449,0.038285162299871445
1683133653596726800,11.326726806640625,9.474979400634766,1.7443677186965942,-0.11844471842050552
1683133653614565000,11.344565185546875,9.820143699645996,0.8733802437782288,0.04666004329919815
1683133653632403200,11.3624033203125,9.570094108581543,1.5050854682922363,-0.23629122972488403
1683133653650242800,11.380242919921875,9.739386558532715,1.165902853012085,0.26500511169433594
1683133653668079600,11.39807958984375,9.698708534240723,1.2658032178878784,-0.2829512655735016
1683133653685918200,11.415918212890626,9.65503978729248,1.4051851034164429,0.007178467698395252
1683133653703756000,11.433756103515625,9.90149974822998,0.9930213689804077,0.028115665540099144
1683133653721594400,11.451594482421875,9.56052303314209,1.6923238039016724,-0.12263216078281403
1683133653739433000,11.469432861328125,9.868000984191895,0.8255237936973572,0.023330021649599075
1683133653757265700,11.487265625,9.522835731506348,1.6342978477478027,-0.18005990982055664
1683133653775109400,11.505109375,9.810572624206543,1.0558329820632935,0.2273181527853012
1683133653792942300,11.5229423828125,9.584450721740723,1.3609179258346558,-0.34576287865638733
1683133653810785500,11.54078564453125,9.696913719177246,1.252044439315796,0.12622138857841492
1683133653828629500,11.55862939453125,9.845269203186035,1.1318050622940063,-0.08195417374372482
1683133653846462200,11.576462158203125,9.617352485656738,1.591825246810913,-0.08374879509210587
1683133653864300300,11.59430029296875,9.848857879638672,0.8925228714942932,0.028115665540099144
1683133653882138400,11.612138427734376,9.494122505187988,1.6965112686157227,-0.13220344483852386
1683133653899977000,11.62997705078125,9.863214492797852,0.9212366938591003,0.1136590763926506
1683133653917815300,11.647815185546875,9.551549911499023,1.495514154434204,-0.24586252868175507
1683133653935652900,11.66565283203125,9.720243453979492,1.1467602252960205,0.24586252868175507
1683133653953491700,11.68349169921875,9.741181373596191,1.2658032178878784,-0.23988047242164612
1683133653971329800,11.701329833984374,9.659825325012207,1.4865410327911377,0.01196411345154047
1683133653989166800,11.719166748046876,9.863214492797852,0.9786644577980042,0.04187439754605293
1683133654007007000,11.737007080078126,9.54197883605957,1.6821542978286743,-0.13698910176753998
1683133654024841200,11.75484130859375,9.89133071899414,0.849452018737793,0.052043892443180084
1683133654042681600,11.772681640625,9.550951957702637,1.5960127115249634,-0.15074782073497772
1683133654060520400,11.7905205078125,9.820143699645996,1.0414760112762451,0.20817556977272034
1683133654078357500,11.808357421875,9.6466646194458,1.3609179258346558,-0.3409772217273712
1683133654096198100,11.8261982421875,9.716055870056152,1.3621143102645874,0.1453639715909958
1683133654114030300,11.8440302734375,9.826126098632812,1.1126625537872314,-0.04905286431312561
1683133654131873800,11.861873779296875,9.570094108581543,1.5720844268798828,-0.14117653667926788
1683133654149711400,11.87971142578125,9.896116256713867,0.8685946464538574,0.0568295381963253
1683133654167550000,11.897550048828125,9.503693580627441,1.710868239402771,-0.10827522724866867
1683133654185388300,11.91538818359375,9.844072341918945,0.9451649188995361,0.13220344483852386
1683133654203226400,11.933226318359376,9.57069206237793,1.495514154434204,-0.3128615617752075
1683133654221064200,11.951064208984375,9.710672378540039,1.1611171960830688,0.20757736265659332
1683133654238901500,11.968901611328125,9.698110580444336,1.2179467678070068,-0.1782652884721756
1683133654256730400,11.98673046875,9.650253295898438,1.472184181213379,-0.035892341285943985
1683133654274579500,12.004579345703124,9.896714210510254,0.9690931439399719,0.028115665540099144
1683133654292417000,12.0224169921875,9.479764938354492,1.7204394340515137,-0.11844471842050552
1683133654310255900,12.040255859375,9.915258407592773,0.882951557636261,0.09511470049619675
1683133654328094000,12.058093994140625,9.565308570861816,1.6103696823120117,-0.1698904037475586
1683133654345932000,12.07593212890625,9.758528709411621,1.0271191596984863,0.1746760457754135
1683133654363767300,12.093767333984376,9.622735977172852,1.332802176475525,-0.2835494875907898
1683133654381611500,12.111611572265625,9.725627899169922,1.3668999671936035,0.13100704550743103
1683133654399444000,12.12944384765625,9.773484230041504,1.1078768968582153,-0.04426721855998039
1683133654417288200,12.1472880859375,9.570094108581543,1.6151553392410278,-0.12741780281066895
1683133654435118000,12.1651181640625,9.94397258758545,0.8590233325958252,0.06640082597732544
1683133654452959700,12.182959716796875,9.537193298339844,1.716252088546753,-0.07956135272979736
1683133654470801400,12.200801513671875,9.853643417358398,0.9212366938591003,0.12801600992679596
1683133654488636700,12.21863671875,9.56052303314209,1.4620146751403809,-0.26979073882102966
1683133654506476800,12.236476806640624,9.753743171691895,1.2329018115997314,0.24586252868175507
1683133654524314000,12.254314208984376,9.726823806762695,1.2275179624557495,-0.2069791555404663
1683133654542152200,12.272152099609375,9.583852767944336,1.4715858697891235,-0.06520441919565201
1683133654559989200,12.2899892578125,9.90568733215332,0.9403793215751648,0.07118647545576096
1683133654577830000,12.307829833984375,9.498908042907715,1.7593228816986084,-0.08973085135221481
1683133654595666400,12.32566650390625,9.882357597351074,0.8638089895248413,0.04247260093688965
1683133654613504800,12.3435048828125,9.537193298339844,1.5672988891601562,-0.23688943684101105
1683133654631343000,12.361343017578125,9.705886840820312,1.074975609779358,0.23629122972488403
1683133654649181700,12.379181640625,9.598808288574219,1.3417752981185913,-0.26500511169433594
1683133654667007700,12.3970078125,9.68794059753418,1.3046865463256836,0.07896314561367035
1683133654684858000,12.414858154296875,9.835099220275879,1.069591760635376,-0.039481572806835175
1683133654702692400,12.4326923828125,9.513264656066895,1.667797327041626,-0.09870393574237823
1683133654720534300,12.4505341796875,9.987043380737305,0.849452018737793,0.04307080805301666
1683133654738371300,12.468371337890625,9.527621269226074,1.6923238039016724,-0.1178465187549591
1683133654756207400,12.486207275390624,9.791430473327637,0.9499505758285522,0.12741780281066895
1683133654774049000,12.504049072265625,9.632308006286621,1.4476577043533325,-0.26919254660606384
1683133654791886800,12.521886962890624,9.758528709411621,1.2376874685287476,0.24586252868175507
1683133654809724000,12.539723876953126,9.722038269042969,1.222732424736023,-0.18783657252788544
1683133654827564800,12.557564697265626,9.612566947937012,1.5487544536590576,-0.05563312768936157
1683133654845402000,12.575402099609375,9.967901229858398,0.9068797826766968,0.047258246690034866
1683133654863240000,12.593239990234375,9.498908042907715,1.7204394340515137,-0.12263216078281403
1683133654881076700,12.61107666015625,9.868000984191895,0.8542376756668091,0.03768695518374443
1683133654898917400,12.62891748046875,9.537193298339844,1.5481562614440918,-0.20338992774486542
1683133654916755000,12.6467548828125,9.768099784851074,1.1276177167892456,0.24646073579788208
1683133654934581200,12.664581298828125,9.65085220336914,1.308275818824768,-0.32183465361595154
1683133654952430600,12.6824306640625,9.697511672973633,1.3764712810516357,0.059820566326379776
1683133654970269200,12.700269287109375,9.896714210510254,1.0265209674835205,0.018544375896453857
1683133654988107800,12.718107666015625,9.527621269226074,1.667797327041626,-0.12741780281066895
1683133655005945600,12.735945556640624,9.910472869873047,0.849452018737793,0.023330021649599075
1683133655023783400,12.753783447265626,9.5324068069458,1.643869161605835,-0.15613168478012085
1683133655041621800,12.771621826171875,9.791430473327637,1.0031908750534058,0.21296121180057526
1683133655059460000,12.789460205078125,9.613164901733398,1.4141582250595093,-0.29312077164649963
1683133655077298400,12.80729833984375,9.730413436889648,1.2329018115997314,0.16031911969184875
1683133655095136300,12.82513623046875,9.793225288391113,1.1700903177261353,-0.14895321428775787
1683133655112974600,12.842974609375,9.598209381103516,1.5583257675170898,-0.050847481936216354
1683133655130799900,12.8607998046875,9.906285285949707,0.8973084688186646,0.03768695518374443
1683133655148641800,12.878641845703125,9.508479118347168,1.710868239402771,-0.13698910176753998
1683133655166489000,12.896489013671875,9.858428955078125,0.882951557636261,0.09451649338006973
1683133655184333600,12.91433349609375,9.570094108581543,1.5625132322311401,-0.21296121180057526
1683133655202164500,12.93216455078125,9.744172096252441,1.0941181182861328,0.23629122972488403
1683133655220005000,12.950005126953124,9.68913745880127,1.2801600694656372,-0.26919254660606384
1683133655237842200,12.96784228515625,9.664610862731934,1.43389892578125,0.06400800496339798
1683133655255680000,12.985679931640625,9.844670295715332,1.007378339767456,0.02751746028661728
1683133655273506600,13.003506591796874,9.57487964630127,1.6295121908187866,-0.16031911969184875
1683133655291354400,13.021354248046874,9.877572059631348,0.8685946464538574,0.06580262631177902
1683133655309197300,13.039197265625,9.503693580627441,1.648654818534851,-0.1178465187549591
1683133655327033000,13.057033203125,9.829715728759766,0.9888339638710022,0.1657029688358307
1683133655344871200,13.07487109375,9.617950439453125,1.4189438819885254,-0.3074777126312256
1683133655362707700,13.092707763671875,9.7064847946167,1.2999008893966675,0.18364913761615753
1683133655380546000,13.110546142578125,9.806983947753906,1.1413763761520386,-0.11066804826259613
1683133655398385000,13.128385009765625,9.598808288574219,1.5720844268798828,-0.11724831163883209
1683133655416225000,13.14622509765625,9.920044898986816,0.8925228714942932,0.052043892443180084
1683133655434062300,13.164062255859376,9.503693580627441,1.734796404838562,-0.10887342691421509
1683133655451899400,13.1818994140625,9.863214492797852,0.9260223507881165,0.12801600992679596
1683133655469738800,13.19973876953125,9.57069206237793,1.5194423198699951,-0.26500511169433594
1683133655487578000,13.217578125,9.734601020812988,1.1324033737182617,0.19381862878799438
1683133655505415000,13.235414794921875,9.617352485656738,1.2604193687438965,-0.22193430364131927
1683133655523248600,13.25324853515625,9.659825325012207,1.4291132688522339,0.02632104977965355
1683133655541091300,13.27109130859375,9.877572059631348,1.0217353105545044,0.004187439568340778
1683133655558929400,13.288929443359375,9.460622787475586,1.6773686408996582,-0.12801600992679596
1683133655576767500,13.306767578125,9.915258407592773,0.8638089895248413,0.06161518394947052
1683133655594605800,13.324605712890625,9.546764373779297,1.643869161605835,-0.15134602785110474
1683133655612444000,13.34244384765625,9.758528709411621,0.9786644577980042,0.13698910176753998
1683133655630282200,13.3602822265625,9.598808288574219,1.3848460912704468,-0.3074777126312256
1683133655648120300,13.378120361328126,9.739984512329102,1.319043517112732,0.16450655460357666
1683133655665958700,13.395958740234375,9.745368003845215,1.1318050622940063,-0.09212367236614227
1683133655683796500,13.41379638671875,9.56052303314209,1.581655740737915,-0.13160525262355804
1683133655701635800,13.4316357421875,9.996016502380371,0.8733802437782288,0.07178468257188797
1683133655719473700,13.4494736328125,9.474979400634766,1.7204394340515137,-0.09451649338006973
1683133655737311700,13.467311767578124,9.810572624206543,0.9020941257476807,0.061016976833343506
1683133655755150000,13.485150146484376,9.594022750854492,1.4763715267181396,-0.26500511169433594
1683133655772983000,13.502983154296874,9.729815483093262,1.2041879892349243,0.2745763957500458
1683133655790826200,13.520826171875,9.693324089050293,1.2801600694656372,-0.22612173855304718
1683133655808664300,13.538664306640625,9.626325607299805,1.428515076637268,-0.035892341285943985
1683133655826502400,13.55650244140625,9.877572059631348,0.973878800868988,0.061016976833343506
1683133655844336000,13.574336181640625,9.489336013793945,1.7545372247695923,-0.0849452018737793
1683133655862179300,13.592179443359376,9.891928672790527,0.849452018737793,0.018544375896453857
1683133655880017400,13.610017333984375,9.527621269226074,1.581655740737915,-0.2273181527853012
1683133655897855200,13.627855224609375,9.720243453979492,1.074975609779358,0.24586252868175507
1683133655915693000,13.645693115234375,9.631709098815918,1.3226326704025269,-0.2787638306617737
1683133655933531100,13.66353125,9.692726135253906,1.319043517112732,0.0975075215101242
1683133655951369700,13.68136962890625,9.787840843200684,1.0791629552841187,-0.06819544732570648
1683133655969206300,13.699206298828125,9.579665184020996,1.6827524900436401,-0.0891326442360878
1683133655987047700,13.717047607421875,9.939187049865723,0.8638089895248413,0.03768695518374443
1683133656004884200,13.73488427734375,9.484550476074219,1.6965112686157227,-0.12801600992679596
1683133656022718700,13.75271875,9.829715728759766,0.9403793215751648,0.10408778488636017
1683133656040561000,13.770560791015624,9.584450721740723,1.4572290182113647,-0.26500511169433594
1683133656058399000,13.78839892578125,9.710672378540039,1.2233306169509888,0.24586252868175507
1683133656076237000,13.806237060546875,9.759725570678711,1.222732424736023,-0.19202402234077454
1683133656094070500,13.824070556640624,9.617352485656738,1.5242279767990112,-0.07417750358581543
1683133656111913500,13.84191357421875,9.915258407592773,0.9068797826766968,0.0568295381963253
1683133656129751600,13.85975146484375,9.546764373779297,1.7060825824737549,-0.12263216078281403
1683133656147584500,13.87758447265625,9.848857879638672,0.8590233325958252,0.04666004329919815
1683133656165423600,13.895423583984375,9.518050193786621,1.552941918373108,-0.20817556977272034
1683133656183264000,13.913263916015625,9.768099784851074,1.1276177167892456,0.24586252868175507
1683133656201106400,13.9311064453125,9.660423278808594,1.3178470134735107,-0.33080771565437317
1683133656218941200,13.948941162109374,9.678369522094727,1.3764712810516357,0.05503492057323456
1683133656236782000,13.966781982421875,9.8871431350708,1.0169496536254883,0.028115665540099144
1683133656254619000,13.984618896484376,9.565308570861816,1.672582983970642,-0.12263216078281403
1683133656272457000,14.00245703125,9.896714210510254,0.8590233325958252,0.028115665540099144
1683133656290293800,14.020293701171875,9.513264656066895,1.6295121908187866,-0.14656038582324982
1683133656308135000,14.038135009765625,9.824930191040039,1.0223335027694702,0.21774685382843018
1683133656325971700,14.0559716796875,9.613164901733398,1.4039887189865112,-0.32662028074264526
1683133656343810000,14.07381005859375,9.672985076904297,1.2041879892349243,0.15972091257572174
1683133656361648000,14.091648193359376,9.783055305480957,1.1748759746551514,-0.10169496387243271
1683133656379486000,14.10948583984375,9.617352485656738,1.5726827383041382,-0.064606212079525
1683133656397324300,14.12732421875,9.906285285949707,0.9020941257476807,0.028115665540099144
1683133656415157800,14.14515771484375,9.489336013793945,1.710868239402771,-0.13220344483852386
1683133656433000400,14.16300048828125,9.872187614440918,0.9116654396057129,0.13280165195465088
1683133656450839000,14.180839111328124,9.57487964630127,1.5337992906570435,-0.24107688665390015
1683133656468677400,14.198677490234376,9.781859397888184,1.1084750890731812,0.2225325107574463
1683133656486510800,14.2165107421875,9.66520881652832,1.2795618772506714,-0.259621262550354
1683133656504341500,14.234341552734374,9.659825325012207,1.4434702396392822,0.02153540402650833
1683133656522192000,14.25219189453125,9.877572059631348,0.9882357716560364,0.02751746028661728
1683133656540028700,14.270028564453124,9.522835731506348,1.672582983970642,-0.1417747437953949
1683133656557869000,14.287869140625,9.877572059631348,0.8733802437782288,0.052043892443180084
1683133656575694000,14.305694091796875,9.546165466308594,1.643869161605835,-0.13220344483852386
1683133656593544200,14.323544189453125,9.80100154876709,1.0031908750534058,0.15134602785110474
1683133656611369500,14.341369384765626,9.617950439453125,1.3800604343414307,-0.3122633695602417
1683133656629221600,14.3592216796875,9.759127616882324,1.323829174041748,0.1788634955883026
1683133656647050200,14.37705029296875,9.744770050048828,1.1222338676452637,-0.07776673883199692
1683133656664897000,14.39489697265625,9.531808853149414,1.5481562614440918,-0.12741780281066895
1683133656682731800,14.412731689453125,9.953543663024902,0.882951557636261,0.09032905846834183
1683133656700573400,14.430573486328125,9.460622787475586,1.7443677186965942,-0.07537391036748886
1683133656718411800,14.448411865234375,9.834501266479492,0.9403793215751648,0.13220344483852386
1683133656736245000,14.466244873046875,9.627521514892578,1.5194423198699951,-0.2841476798057556
1683133656754088000,14.484087890625,9.725028991699219,1.165902853012085,0.21236300468444824
1683133656771926300,14.50192626953125,9.702896118164062,1.25144624710083,-0.2021935135126114
1683133656789761800,14.51976171875,9.650253295898438,1.4428720474243164,-0.01196411345154047
1683133656807605000,14.53760498046875,9.868000984191895,0.9643075466156006,0.023330021649599075
1683133656825440500,14.5554404296875,9.484550476074219,1.7539390325546265,-0.09451649338006973
1683133656843278300,14.5732783203125,9.92961597442627,0.8685946464538574,0.09032905846834183
1683133656861116200,14.5911162109375,9.570094108581543,1.6055840253829956,-0.18424734473228455
1683133656878956000,14.6089560546875,9.772886276245117,1.0121639966964722,0.1417747437953949
1683133656896793000,14.62679296875,9.584450721740723,1.3369896411895752,-0.2793620526790619
1683133656914631400,14.64463134765625,9.720842361450195,1.3286148309707642,0.13100704550743103
1683133656932469500,14.662469482421875,9.80219841003418,1.1030912399291992,-0.058624155819416046
1683133656950307600,14.6803076171875,9.498908042907715,1.648654818534851,-0.13220344483852386
1683133656968134700,14.698134765625,9.953543663024902,0.8638089895248413,0.047258246690034866
1683133656985983700,14.715983642578125,9.503693580627441,1.734796404838562,-0.12263216078281403
1683133657003822600,14.733822509765625,9.80100154876709,0.9116654396057129,0.08015955984592438
1683133657021660400,14.751660400390625,9.579665184020996,1.4428720474243164,-0.26500511169433594
1683133657039488800,14.76948876953125,9.720243453979492,1.252044439315796,0.25064817070961
1683133657057336600,14.787336669921874,9.726823806762695,1.222732424736023,-0.18783657252788544
1683133657075163400,14.805163330078125,9.598209381103516,1.4859428405761719,-0.07417750358581543
1683133657093013200,14.82301318359375,9.915258407592773,0.9355936646461487,0.08554340898990631
1683133657110839300,14.84083935546875,9.513264656066895,1.7539390325546265,-0.1136590763926506
1683133657128689400,14.858689453125,9.858428955078125,0.8590233325958252,0.04666004329919815
1683133657146509800,14.876509765625,9.508479118347168,1.5672988891601562,-0.23210379481315613
1683133657164365800,14.89436572265625,9.78664493560791,1.1228320598602295,0.2512463629245758
1683133657182202600,14.91220263671875,9.646066665649414,1.2987045049667358,-0.29790642857551575
1683133657200043500,14.93004345703125,9.626325607299805,1.3716856241226196,0.0687936544418335
1683133657217880600,14.947880615234375,9.91107177734375,1.0360921621322632,-0.014955141581594944
1683133657235718400,14.965718505859375,9.522835731506348,1.6917256116867065,-0.10348957777023315
1683133657253551600,14.983551513671875,9.924830436706543,0.8542376756668091,0.03290131315588951
1683133657271395000,15.00139501953125,9.508479118347168,1.643869161605835,-0.14656038582324982
1683133657289233200,15.019233154296876,9.762716293334961,0.9834501147270203,0.18424734473228455
1683133657307071000,15.037071044921875,9.603593826293945,1.4039887189865112,-0.29312077164649963
1683133657324907800,15.05490771484375,9.7064847946167,1.2329018115997314,0.2027917206287384
1683133657342742800,15.07274267578125,9.778867721557617,1.1748759746551514,-0.13998012244701385
1683133657360588300,15.09058837890625,9.584450721740723,1.6007983684539795,-0.07477571070194244
1683133657378423800,15.108423828125,9.977472305297852,0.8925228714942932,0.03349951654672623
1683133657396261600,15.12626171875,9.489336013793945,1.7204394340515137,-0.10408778488636017
1683133657414100000,15.144099853515625,9.848857879638672,0.8973084688186646,0.05144568532705307
1683133657431938300,15.161938232421875,9.555737495422363,1.4859428405761719,-0.23210379481315613
1683133657449776400,15.1797763671875,9.739386558532715,1.1515458822250366,0.24586252868175507
1683133657467614700,15.19761474609375,9.731609344482422,1.2849457263946533,-0.27816563844680786
1683133657485451000,15.215450927734375,9.645467758178711,1.4482558965682983,0.030508488416671753
1683133657503286300,15.233286376953124,9.877572059631348,0.9595218896865845,0.04666004329919815
1683133657521129200,15.251129150390625,9.561120986938477,1.6917256116867065,-0.1417747437953949
1683133657538967000,15.268967041015625,9.853643417358398,0.8446664214134216,0.03290131315588951
1683133657556805000,15.28680517578125,9.494122505187988,1.6055840253829956,-0.1704886108636856
1683133657574627600,15.304627685546874,9.810572624206543,1.0701899528503418,0.2273181527853012
1683133657592478500,15.322478515625,9.584450721740723,1.3704891204833984,-0.35054850578308105
1683133657610311400,15.3403115234375,9.697511672973633,1.3094722032546997,0.12143574655056
1683133657628158000,15.358157958984375,9.892526626586914,1.1078768968582153,-0.053240302950143814
1683133657645981400,15.3759814453125,9.579665184020996,1.6247265338897705,-0.12263216078281403
1683133657663835000,15.3938349609375,9.900901794433594,0.8590233325958252,0.03290131315588951
1683133657681675300,15.41167529296875,9.498908042907715,1.6869399547576904,-0.13698910176753998
1683133657699510500,15.429510498046875,9.824930191040039,0.9547362327575684,0.1944168359041214
1683133657717348900,15.447348876953125,9.613164901733398,1.466800332069397,-0.2841476798057556
1683133657735187200,15.465187255859375,9.772886276245117,1.189831018447876,0.19381862878799438
1683133657753025300,15.483025390625,9.745368003845215,1.2323036193847656,-0.18305093050003052
1683133657770863000,15.500863037109376,9.65503978729248,1.5056836605072021,-0.016749758273363113
1683133657788701700,15.51870166015625,9.891928672790527,0.9643075466156006,0.04247260093688965
1683133657806539800,15.536539794921875,9.508479118347168,1.6917256116867065,-0.12263216078281403
1683133657824369400,15.554369384765625,9.839286804199219,0.8638089895248413,0.0849452018737793
1683133657842215700,15.572215576171875,9.589237213134766,1.581655740737915,-0.17946170270442963
1683133657860050000,15.5900498046875,9.763314247131348,1.0558329820632935,0.20817556977272034
1683133657877896400,15.607896484375,9.626923561096191,1.3226326704025269,-0.2883351147174835
1683133657895725600,15.6257255859375,9.731011390686035,1.3908281326293945,0.08374879509210587
1683133657913568300,15.643568359375,9.868598937988281,1.0552347898483276,-0.010169495828449726
1683133657931406600,15.661406494140625,9.550951957702637,1.6103696823120117,-0.15613168478012085
1683133657949243400,15.679243408203124,9.872786521911621,0.8590233325958252,0.07537391036748886
1683133657967072500,15.697072509765626,9.522835731506348,1.667797327041626,-0.10348957777023315
1683133657984921000,15.714921142578126,9.839286804199219,0.9451649188995361,0.14656038582324982
1683133658002755800,15.732755859375,9.57487964630127,1.4279168844223022,-0.2841476798057556
1683133658020597800,15.75059765625,9.730413436889648,1.2759727239608765,0.21236300468444824
1683133658038435800,15.768435791015625,9.811769485473633,1.1892328262329102,-0.11545369029045105
1683133658056273700,15.786273681640624,9.602995872497559,1.5242279767990112,-0.08853443711996078
1683133658074109200,15.804109130859375,9.872786521911621,0.8973084688186646,0.07058826833963394
1683133658091950000,15.8219501953125,9.527621269226074,1.7353945970535278,-0.07058826833963394
1683133658109776400,15.8397763671875,9.853643417358398,0.9116654396057129,0.10887342691421509
1683133658127630800,15.857630859375,9.584450721740723,1.5481562614440918,-0.2554338276386261
1683133658145459700,15.875459716796875,9.744172096252441,1.1324033737182617,0.22193430364131927
1683133658163302700,15.893302734375,9.66520881652832,1.2891331911087036,-0.24526432156562805
1683133658181140700,15.911140625,9.607182502746582,1.3902299404144287,0.01615155301988125
1683133658198978800,15.928978759765625,9.815957069396973,1.0217353105545044,-0.005982056725770235
1683133658216812800,15.946812744140624,9.513264656066895,1.7156537771224976,-0.11306086927652359
1683133658234655200,15.9646552734375,9.915258407592773,0.8590233325958252,0.08554340898990631
1683133658252493600,15.98249365234375,9.503693580627441,1.667797327041626,-0.1417747437953949
1683133658270330600,16.00033056640625,9.868000984191895,0.9840483069419861,0.14656038582324982
1683133658288170200,16.018170166015626,9.589237213134766,1.3752747774124146,-0.29371899366378784
1683133658306008300,16.03600830078125,9.701699256896973,1.3046865463256836,0.1788634955883026
1683133658323832000,16.05383203125,9.830911636352539,1.1413763761520386,-0.09631111472845078
1683133658341686800,16.071686767578125,9.555737495422363,1.6007983684539795,-0.11306086927652359
1683133658359519200,16.089519287109376,9.94397258758545,0.8781659007072449,0.06161518394947052
1683133658377363200,16.10736328125,9.522835731506348,1.7156537771224976,-0.10348957777023315
1683133658395198500,16.125198486328124,9.834501266479492,0.8973084688186646,0.06580262631177902
1683133658413036500,16.14303662109375,9.522835731506348,1.4859428405761719,-0.26081767678260803
1683133658430875000,16.160875,9.753743171691895,1.2041879892349243,0.2554338276386261
1683133658448713000,16.178712890625,9.731609344482422,1.2562319040298462,-0.23988047242164612
1683133658466546400,16.19654638671875,9.617352485656738,1.4476577043533325,-0.022133609279990196
1683133658484388900,16.214388916015626,9.934401512145996,0.9643075466156006,0.08075776696205139
1683133658502228700,16.232228759765626,9.527621269226074,1.7545372247695923,-0.10348957777023315
1683133658520065800,16.250065673828125,9.853643417358398,0.849452018737793,0.028115665540099144
1683133658537903900,16.26790380859375,9.537193298339844,1.581655740737915,-0.21296121180057526
1683133658555742200,16.2857421875,9.78664493560791,1.0845468044281006,0.23688943684101105
1683133658573579800,16.303579833984376,9.617950439453125,1.3369896411895752,-0.29790642857551575
1683133658591422700,16.321422607421876,9.668798446655273,1.319043517112732,0.07836493849754333
1683133658609257500,16.339257568359375,9.887741088867188,1.069591760635376,-0.03888336941599846
1683133658627085800,16.3570859375,9.537193298339844,1.6821542978286743,-0.0891326442360878
1683133658644932600,16.3749326171875,9.910472869873047,0.849452018737793,0.047258246690034866
1683133658662755300,16.39275537109375,9.479764938354492,1.6582261323928833,-0.15134602785110474
1683133658680609000,16.410609130859374,9.810572624206543,0.9595218896865845,0.1417747437953949
1683133658698447400,16.428447265625,9.584450721740723,1.4476577043533325,-0.26500511169433594
1683133658716285000,16.446284912109373,9.753743171691895,1.2233306169509888,0.22193430364131927
1683133658734123000,16.464123046875,9.77408218383789,1.2179467678070068,-0.15912270545959473
1683133658751961300,16.48196142578125,9.598209381103516,1.557727575302124,-0.050847481936216354
1683133658769800000,16.499800048828124,9.924830436706543,0.8973084688186646,0.03768695518374443
1683133658787635000,16.517635009765623,9.518050193786621,1.710868239402771,-0.1178465187549591
1683133658805478700,16.535478759765624,9.853643417358398,0.8733802437782288,0.04187439754605293
1683133658823311400,16.553311279296874,9.57487964630127,1.5385849475860596,-0.20817556977272034
1683133658841155300,16.5711552734375,9.753743171691895,1.1180464029312134,0.2315055876970291
1683133658858987500,16.588987548828126,9.68913745880127,1.2987045049667358,-0.3164508044719696
1683133658876831200,16.606831298828126,9.683155059814453,1.4003994464874268,0.06400800496339798
1683133658894666200,16.624666259765625,9.891928672790527,1.00259268283844,0.018544375896453857
1683133658912503300,16.64250341796875,9.5324068069458,1.648654818534851,-0.14656038582324982
1683133658930344000,16.660343994140625,9.896714210510254,0.8638089895248413,0.03290131315588951
1683133658948181000,16.678180908203124,9.527621269226074,1.6342978477478027,-0.1417747437953949
1683133658966019000,16.69601904296875,9.77707290649414,1.0217353105545044,0.1986042857170105
1683133658983857700,16.713857666015624,9.66102123260498,1.389631748199463,-0.3409772217273712
1683133659001695700,16.73169580078125,9.744770050048828,1.2424731254577637,0.1459621787071228
1683133659019533300,16.749533203125,9.80219841003418,1.1509476900100708,-0.09212367236614227
1683133659037371400,16.767371337890626,9.631709098815918,1.557727575302124,-0.08374879509210587
1683133659055210000,16.7852099609375,9.91107177734375,0.8973084688186646,0.028115665540099144
1683133659073046500,16.803046630859374,9.442078590393066,1.7060825824737549,-0.12323036789894104
1683133659090875100,16.820875244140623,9.89133071899414,0.9260223507881165,0.137587308883667
1683133659108724000,16.838723876953125,9.561120986938477,1.5194423198699951,-0.2554338276386261
1683133659126550500,16.856550537109374,9.763314247131348,1.1180464029312134,0.20817556977272034
1683133659144397300,16.874397216796876,9.68375301361084,1.2652050256729126,-0.24047867953777313
1683133659162241300,16.8922412109375,9.645467758178711,1.4380863904953003,0.020937198773026466
1683133659180076500,16.91007666015625,9.868000984191895,1.007378339767456,-0.0005982056609354913
1683133659197915100,16.9279150390625,9.498908042907715,1.672582983970642,-0.1417747437953949
1683133659215753200,16.945753173828123,9.915258407592773,0.8685946464538574,0.06161518394947052
1683133659233586400,16.96358642578125,9.555737495422363,1.648654818534851,-0.13220344483852386
1683133659251429000,16.98142919921875,9.777671813964844,1.0169496536254883,0.16031911969184875
1683133659269267700,16.999267822265626,9.637093544006348,1.389631748199463,-0.2883351147174835
1683133659287103500,17.017103515625,9.701699256896973,1.342971682548523,0.16450655460357666
1683133659304946000,17.03494580078125,9.806983947753906,1.1365907192230225,-0.08255238085985184
1683133659322778000,17.052778076171876,9.56052303314209,1.5625132322311401,-0.14117653667926788
1683133659340620000,17.0706201171875,9.89133071899414,0.8685946464538574,0.0849452018737793
1683133659358456800,17.088456787109376,9.508479118347168,1.734796404838562,-0.10408778488636017
1683133659376297200,17.106297119140624,9.848857879638672,0.9355936646461487,0.08973085135221481
1683133659394134000,17.124134033203124,9.561120986938477,1.495514154434204,-0.2793620526790619
1683133659411972000,17.14197216796875,9.744172096252441,1.194616675376892,0.2267199456691742
1683133659429810200,17.15981005859375,9.731609344482422,1.2370892763137817,-0.2021935135126114
1683133659447647000,17.17764697265625,9.617352485656738,1.4524433612823486,-0.035892341285943985
1683133659465488100,17.195488037109374,9.91107177734375,0.9643075466156006,0.03768695518374443
1683133659483324700,17.21332470703125,9.474979400634766,1.7730815410614014,-0.07058826833963394
1683133659501163300,17.231163330078125,9.89133071899414,0.8733802437782288,0.08015955984592438
1683133659519001300,17.24900146484375,9.603593826293945,1.6055840253829956,-0.1986042857170105
1683133659536839400,17.26683935546875,9.758528709411621,1.074377417564392,0.17946170270442963
1683133659554672600,17.284672607421875,9.608379364013672,1.3178470134735107,-0.2835494875907898
1683133659572515600,17.302515625,9.744770050048828,1.342971682548523,0.12203395366668701
1683133659590353700,17.320353759765624,9.811769485473633,1.0791629552841187,-0.05383851006627083
1683133659608193800,17.33819384765625,9.474979400634766,1.667797327041626,-0.12323036789894104
1683133659626029600,17.356029541015626,9.967901229858398,0.8590233325958252,0.03349951654672623
1683133659643866400,17.373866455078126,9.479764938354492,1.7012969255447388,-0.12323036789894104
1683133659661708300,17.391708251953126,9.772886276245117,0.9116654396057129,0.08434699475765228
1683133659679543300,17.409543212890625,9.632308006286621,1.4428720474243164,-0.27397820353507996
1683133659697383200,17.427383056640625,9.7064847946167,1.2616157531738281,0.24107688665390015
1683133659715220700,17.445220703125,9.698110580444336,1.2029916048049927,-0.19740787148475647
1683133659733058800,17.463058837890625,9.593423843383789,1.495514154434204,-0.0933200865983963
1683133659750897200,17.480897216796876,9.939187049865723,0.9212366938591003,0.07118647545576096
1683133659768734700,17.498734619140624,9.484550476074219,1.7395820617675781,-0.09451649338006973
1683133659786563300,17.516563232421873,9.844072341918945,0.849452018737793,0.061016976833343506
1683133659804411100,17.5344111328125,9.565308570861816,1.5337992906570435,-0.2273181527853012
1683133659822249500,17.55224951171875,9.781859397888184,1.1419745683670044,0.26500511169433594
1683133659840087000,17.570087158203126,9.669994354248047,1.3226326704025269,-0.29790642857551575
1683133659857925400,17.58792529296875,9.664610862731934,1.3567304611206055,0.02153540402650833
1683133659875758800,17.6057587890625,9.920642852783203,1.0217353105545044,0.023330021649599075
1683133659893601500,17.6236015625,9.522835731506348,1.7156537771224976,-0.10827522724866867
1683133659911439600,17.641439697265625,9.891928672790527,0.849452018737793,0.01375873014330864
1683133659929269000,17.65926904296875,9.546764373779297,1.6342978477478027,-0.1704886108636856
1683133659947117000,17.677116943359376,9.829715728759766,1.0223335027694702,0.20398813486099243
1683133659964952800,17.694952880859375,9.55633544921875,1.4039887189865112,-0.3080759048461914
1683133659982789400,17.712789306640627,9.716055870056152,1.2233306169509888,0.1501496136188507
1683133660000629000,17.73062890625,9.811769485473633,1.155733346939087,-0.13938191533088684
1683133660018470000,17.748469970703123,9.517452239990234,1.5864413976669312,-0.07477571070194244
1683133660036307000,17.766306884765626,9.934401512145996,0.8733802437782288,0.03290131315588951
1683133660054144500,17.78414453125,9.527621269226074,1.730010747909546,-0.09451649338006973
1683133660071982600,17.801982666015626,9.772886276245117,0.8781659007072449,0.08434699475765228
1683133660089821200,17.8198212890625,9.627521514892578,1.5050854682922363,-0.21236300468444824
1683133660107656000,17.837656005859376,9.758528709411621,1.1419745683670044,0.24586252868175507
1683133660125500400,17.85550048828125,9.68913745880127,1.2604193687438965,-0.26919254660606384
1683133660143335200,17.873335205078124,9.650253295898438,1.4626128673553467,0.04007977992296219
1683133660161173500,17.891173583984376,9.90149974822998,0.9690931439399719,0.03768695518374443
1683133660179011600,17.909011474609375,9.5324068069458,1.672582983970642,-0.1704886108636856
1683133660196845000,17.926844970703126,9.863214492797852,0.8781659007072449,0.06580262631177902
1683133660214687700,17.944687744140627,9.546165466308594,1.6055840253829956,-0.15134602785110474
1683133660232525600,17.962525634765626,9.848857879638672,1.036690354347229,0.18484555184841156
1683133660250363000,17.98036279296875,9.6466646194458,1.3800604343414307,-0.3361915946006775
1683133660268204800,17.998204833984374,9.735198974609375,1.3046865463256836,0.1453639715909958
1683133660286035700,18.01603564453125,9.826126098632812,1.1270195245742798,-0.05383851006627083
1683133660303881500,18.033881591796874,9.555737495422363,1.581655740737915,-0.11306086927652359
1683133660321715700,18.0517158203125,9.896714210510254,0.8638089895248413,0.04247260093688965
1683133660339555800,18.069555908203125,9.494122505187988,1.7156537771224976,-0.13698910176753998
1683133660357392400,18.087392333984376,9.824930191040039,0.9547362327575684,0.15134602785110474
1683133660375230700,18.105230712890624,9.613164901733398,1.4859428405761719,-0.2793620526790619
1683133660393068800,18.12306884765625,9.758528709411621,1.1563315391540527,0.20338992774486542
1683133660410896000,18.140895751953124,9.726823806762695,1.2370892763137817,-0.2021935135126114
1683133660428741600,18.15874169921875,9.631111145019531,1.4524433612823486,-0.0077766734175384045
1683133660446583800,18.176583740234374,9.835099220275879,0.9882357716560364,0.02751746028661728
1683133660464421400,18.19442138671875,9.546764373779297,1.710868239402771,-0.1417747437953949
1683133660482259700,18.212259765625,9.900901794433594,0.882951557636261,0.07118647545576096
1683133660500097000,18.230096923828125,9.537193298339844,1.6295121908187866,-0.15134602785110474
1683133660517935600,18.247935546875,9.810572624206543,1.017547845840454,0.18484555184841156
1683133660535774000,18.26577392578125,9.627521514892578,1.332203984260559,-0.3026920557022095
1683133660553612000,18.283612060546876,9.744770050048828,1.3525429964065552,0.1453639715909958
1683133660571448600,18.301448486328123,9.859027862548828,1.1078768968582153,-0.053240302950143814
1683133660589289500,18.31928955078125,9.508479118347168,1.5720844268798828,-0.15134602785110474
1683133660607126500,18.33712646484375,9.868000984191895,0.882951557636261,0.08015955984592438
1683133660624964400,18.35496435546875,9.550951957702637,1.730010747909546,-0.07956135272979736
1683133660642798800,18.372798828125,9.81535816192627,0.916451096534729,0.11306086927652359
1683133660660638000,18.390637939453125,9.565906524658203,1.4709876775741577,-0.28893333673477173
1683133660678481400,18.4084814453125,9.787242889404297,1.2185449600219727,0.2273181527853012
1683133660696316700,18.426316650390625,9.717252731323242,1.2418749332427979,-0.2021935135126114
1683133660714154500,18.444154541015624,9.631709098815918,1.4572290182113647,-0.035892341285943985
1683133660731992800,18.461992919921876,9.91107177734375,0.9595218896865845,0.052043892443180084
1683133660749831000,18.479830810546876,9.446864128112793,1.7682958841323853,-0.09451649338006973
1683133660767669500,18.49766943359375,9.920044898986816,0.849452018737793,0.07118647545576096
1683133660785507000,18.515507080078127,9.55633544921875,1.6007983684539795,-0.19381862878799438
1683133660803345400,18.533345458984375,9.725028991699219,1.0552347898483276,0.20757736265659332
1683133660821183500,18.55118359375,9.603593826293945,1.3609179258346558,-0.29312077164649963
1683133660839022000,18.56902197265625,9.725627899169922,1.3286148309707642,0.13100704550743103
1683133660856859600,18.586859619140625,9.79262638092041,1.0887342691421509,-0.06819544732570648
1683133660874697500,18.604697509765625,9.527621269226074,1.672582983970642,-0.12741780281066895
1683133660892536000,18.6225361328125,9.963115692138672,0.8542376756668091,0.047258246690034866
1683133660910374000,18.640373779296876,9.498908042907715,1.730010747909546,-0.08973085135221481
1683133660928199200,18.65819921875,9.834501266479492,0.9308080077171326,0.08015955984592438
1683133660946051000,18.676051025390624,9.55633544921875,1.4662020206451416,-0.26500511169433594
1683133660963882500,18.693882568359374,9.792028427124023,1.2376874685287476,0.25064817070961
1683133660981728500,18.711728515625,9.741181373596191,1.246660590171814,-0.22552353143692017
1683133660999564300,18.729564208984375,9.546165466308594,1.466800332069397,-0.05563312768936157
1683133661017402600,18.747402587890626,9.958329200744629,0.9355936646461487,0.08075776696205139
1683133661035240700,18.76524072265625,9.54197883605957,1.710868239402771,-0.11306086927652359
1683133661053077200,18.7830771484375,9.824930191040039,0.8398807644844055,0.04187439754605293
1683133661070918700,18.800918701171874,9.537193298339844,1.5625132322311401,-0.20338992774486542
1683133661088754000,18.81875390625,9.81535816192627,1.1228320598602295,0.23688943684101105
1683133661106594300,18.83659423828125,9.617950439453125,1.327418327331543,-0.3361915946006775
1683133661124431400,18.854431396484376,9.659226417541504,1.3280165195465088,0.09272187948226929
1683133661142269000,18.87226904296875,9.882955551147461,1.0648061037063599,-0.04366901144385338
1683133661160104700,18.890104736328126,9.546764373779297,1.648654818534851,-0.13220344483852386
1683133661177948700,18.90794873046875,9.882357597351074,0.8542376756668091,0.008973085321485996
1683133661195783400,18.925783447265626,9.527621269226074,1.667797327041626,-0.14656038582324982
1683133661213617000,18.943616943359373,9.80100154876709,0.9595218896865845,0.1657029688358307
1683133661231459300,18.961459228515626,9.589237213134766,1.456630825996399,-0.2554338276386261
1683133661249298000,18.9792978515625,9.725028991699219,1.1994023323059082,0.2267199456691742
1683133661267124200,18.997124267578126,9.759725570678711,1.222732424736023,-0.20159530639648438
1683133661284969200,19.01496923828125,9.631709098815918,1.5290136337280273,-0.022133609279990196
1683133661302808000,19.03280810546875,9.920044898986816,0.9403793215751648,0.052043892443180084
1683133661320650500,19.050650390625,9.54197883605957,1.7060825824737549,-0.12263216078281403
1683133661338487300,19.0684873046875,9.844072341918945,0.8590233325958252,0.04666004329919815
1683133661356327700,19.08632763671875,9.594022750854492,1.557727575302124,-0.19381862878799438
1683133661374164200,19.104164306640627,9.791430473327637,1.0701899528503418,0.20817556977272034
1683133661391998000,19.121998046875,9.674779891967773,1.3369896411895752,-0.3170489966869354
1683133661409839600,19.139839599609374,9.668798446655273,1.3860424757003784,0.12622138857841492
1683133661427674400,19.15767431640625,9.873384475708008,1.0552347898483276,-0.010169495828449726
1683133661445517300,19.175517333984374,9.570094108581543,1.6007983684539795,-0.15074782073497772
1683133661463354600,19.193354736328125,9.868000984191895,0.849452018737793,0.061016976833343506
1683133661481193500,19.211193359375,9.54197883605957,1.6917256116867065,-0.09391828626394272
1683133661499017500,19.229017578125,9.848857879638672,0.9595218896865845,0.1657029688358307
1683133661516871700,19.24687158203125,9.617950439453125,1.4763715267181396,-0.2841476798057556
1683133661534702800,19.264702880859375,9.753743171691895,1.194616675376892,0.19381862878799438
1683133661552545800,19.2825458984375,9.759725570678711,1.2275179624557495,-0.17347964644432068
1683133661570383000,19.300383056640626,9.646066665649414,1.490728497505188,-0.05503492057323456
1683133661588221200,19.31822119140625,9.853643417358398,0.9547362327575684,0.02751746028661728
1683133661606055700,19.3360556640625,9.479764938354492,1.710868239402771,-0.12323036789894104
1683133661623895300,19.353895263671873,9.934401512145996,0.8781659007072449,0.08554340898990631
1683133661641739300,19.3717392578125,9.537193298339844,1.5912270545959473,-0.18903298676013947
1683133661659571700,19.38957177734375,9.78664493560791,1.0265209674835205,0.17946170270442963
1683133661677414000,19.407413818359377,9.669994354248047,1.3417752981185913,-0.29790642857551575
1683133661695250400,19.42525048828125,9.711869239807129,1.3668999671936035,0.11665010452270508
1683133661713088300,19.443088134765624,9.773484230041504,1.1030912399291992,-0.020338991656899452
1683133661730925300,19.46092529296875,9.541379928588867,1.6103696823120117,-0.1417747437953949
1683133661748765400,19.478765380859375,9.939187049865723,0.8733802437782288,0.07118647545576096
1683133661766602500,19.4966025390625,9.503693580627441,1.7204394340515137,-0.10408778488636017
1683133661784440600,19.514440673828126,9.805787086486816,0.9308080077171326,0.09870393574237823
1683133661802278700,19.532278564453126,9.608379364013672,1.4518451690673828,-0.2793620526790619
1683133661820117200,19.5501171875,9.715457916259766,1.2424731254577637,0.25064817070961
1683133661837955000,19.567955078125,9.736394882202148,1.222732424736023,-0.21176479756832123
1683133661855788300,19.585788330078124,9.626923561096191,1.4620146751403809,-0.064606212079525
1683133661873631200,19.60363134765625,9.90149974822998,0.9690931439399719,0.061016976833343506
1683133661891453200,19.621453125,9.474979400634766,1.7778671979904175,-0.09930214285850525
1683133661909301000,19.639301025390626,9.872786521911621,0.8590233325958252,0.05144568532705307
1683133661927145000,19.65714501953125,9.598808288574219,1.576870083808899,-0.21774685382843018
1683133661944983300,19.6749833984375,9.757930755615234,1.0701899528503418,0.24586252868175507
1683133661962817000,19.692817138671874,9.622735977172852,1.3417752981185913,-0.2787638306617737
1683133661980658700,19.71065869140625,9.668798446655273,1.3232308626174927,0.09272187948226929
1683133661998498800,19.728498779296874,9.854242324829102,1.074377417564392,-0.04366901144385338
1683133662016336000,19.7463359375,9.503693580627441,1.6773686408996582,-0.09930214285850525
1683133662034173700,19.764173583984373,9.910472869873047,0.8590233325958252,0.052043892443180084
1683133662052011000,19.782010986328125,9.518050193786621,1.6869399547576904,-0.12263216078281403
1683133662069848000,19.79984814453125,9.80100154876709,0.9116654396057129,0.08434699475765228
1683133662087691300,19.817691162109377,9.57487964630127,1.4374881982803345,-0.26979073882102966
1683133662105526000,19.835526123046876,9.763314247131348,1.2137593030929565,0.2602194547653198
1683133662123361300,19.853361328125,9.717252731323242,1.222732424736023,-0.18783657252788544
1683133662141205500,19.87120556640625,9.602995872497559,1.5098711252212524,-0.046061836183071136
1683133662159040800,19.889040771484375,9.982257843017578,0.9260223507881165,0.052043892443180084
1683133662176878800,19.90687890625,9.518050193786621,1.7395820617675781,-0.13220344483852386
1683133662194716700,19.924716552734374,9.844072341918945,0.8446664214134216,0.05623133108019829
1683133662212554500,19.942554443359374,9.56052303314209,1.5625132322311401,-0.18903298676013947
1683133662230392600,19.960392578125,9.81535816192627,1.103689432144165,0.24167509377002716
1683133662248218000,19.978218017578126,9.622735977172852,1.3226326704025269,-0.3314059376716614
1683133662266069800,19.99606982421875,9.716654777526855,1.3280165195465088,0.064606212079525
1683133662283905300,20.0139052734375,9.891928672790527,1.069591760635376,-0.0005982056609354913
1683133662301746000,20.031745849609376,9.56052303314209,1.667797327041626,-0.10348957777023315
1683133662319584500,20.04958447265625,9.939187049865723,0.849452018737793,0.028115665540099144
1683133662337421000,20.067421142578127,9.527621269226074,1.6821542978286743,-0.1417747437953949
1683133662355259100,20.085259033203126,9.839286804199219,0.9690931439399719,0.18963119387626648
1683133662373092600,20.103092529296877,9.613164901733398,1.4422738552093506,-0.3074777126312256
1683133662390935300,20.120935302734374,9.748957633972168,1.1994023323059082,0.19322042167186737
1683133662408771000,20.13877099609375,9.764511108398438,1.2083754539489746,-0.19680966436862946
1683133662426614000,20.156614013671874,9.617352485656738,1.5433706045150757,-0.04127619042992592
1683133662444450000,20.174449951171876,9.90149974822998,0.9451649188995361,0.04247260093688965
1683133662462284500,20.192284423828124,9.498908042907715,1.6917256116867065,-0.12323036789894104
1683133662480129500,20.210129638671877,9.877572059631348,0.8781659007072449,0.04666004329919815
1683133662497963800,20.2279638671875,9.570094108581543,1.576870083808899,-0.19381862878799438
1683133662515801900,20.2458017578125,9.791430473327637,1.0893324613571167,0.2273181527853012
1683133662533640200,20.26364013671875,9.65085220336914,1.3226326704025269,-0.3122633695602417
1683133662551478500,20.281478515625,9.692726135253906,1.4051851034164429,0.11665010452270508
1683133662569316000,20.299316162109374,9.873384475708008,1.0504491329193115,-0.014955141581594944
1683133662587151400,20.3171513671875,9.5324068069458,1.6199408769607544,-0.18005990982055664
1683133662604995300,20.334995361328126,9.882357597351074,0.8733802437782288,0.07058826833963394
1683133662622823000,20.352822998046875,9.474979400634766,1.6869399547576904,-0.1136590763926506
1683133662640671500,20.37067138671875,9.853643417358398,0.9834501147270203,0.1704886108636856
1683133662658505500,20.38850537109375,9.613164901733398,1.4374881982803345,-0.3026920557022095
1683133662676345600,20.406345703125,9.69212818145752,1.2329018115997314,0.19322042167186737
1683133662694178000,20.424177978515626,9.77408218383789,1.2035897970199585,-0.13519448041915894
1683133662712020700,20.442020751953127,9.636494636535645,1.5146567821502686,-0.08374879509210587
1683133662729858800,20.45985888671875,9.872786521911621,0.9020941257476807,0.04187439754605293
1683133662747697000,20.47769677734375,9.465408325195312,1.7395820617675781,-0.06580262631177902
1683133662765523200,20.495523193359375,9.915258407592773,0.9068797826766968,0.12323036789894104
1683133662783373000,20.513373046875,9.565906524658203,1.5625132322311401,-0.23210379481315613
1683133662801211400,20.53121142578125,9.748957633972168,1.1030912399291992,0.1746760457754135
1683133662819049500,20.549049560546877,9.68913745880127,1.2987045049667358,-0.2787638306617737
1683133662836887600,20.566887451171876,9.692726135253906,1.3758729696273804,0.0687936544418335
1683133662854725000,20.58472509765625,9.801599502563477,1.0648061037063599,0.003589233849197626
1683133662872563700,20.602563720703124,9.527621269226074,1.667797327041626,-0.14656038582324982
1683133662890401500,20.620401611328123,9.939187049865723,0.8303094506263733,0.047258246690034866
1683133662908222700,20.63822265625,9.55633544921875,1.6917256116867065,-0.12263216078281403
1683133662926078500,20.656078369140626,9.81535816192627,0.9547362327575684,0.12263216078281403
1683133662943911000,20.673910888671877,9.589237213134766,1.4087743759155273,-0.28893333673477173
1683133662961754000,20.691754150390626,9.739984512329102,1.3046865463256836,0.21236300468444824
1683133662979592200,20.70959228515625,9.726225852966309,1.184447169303894,-0.15912270545959473
1683133662997429800,20.7274296875,9.555737495422363,1.5194423198699951,-0.1178465187549591
1683133663015263200,20.74526318359375,9.896116256713867,0.9020941257476807,0.09930214285850525
1683133663033106400,20.7631064453125,9.551549911499023,1.7587246894836426,-0.08434699475765228
1683133663050944000,20.780944091796876,9.848857879638672,0.8638089895248413,0.06580262631177902
1683133663068781300,20.79878125,9.546764373779297,1.5236297845840454,-0.2512463629245758
1683133663086618600,20.81661865234375,9.772886276245117,1.1611171960830688,0.25064817070961
1683133663104461600,20.834461669921875,9.646066665649414,1.303490161895752,-0.26919254660606384
1683133663122296600,20.852296630859374,9.607182502746582,1.3854442834854126,0.025722842663526535
1683133663140134100,20.870134033203126,9.930213928222656,1.0169496536254883,0.028115665540099144
1683133663157972700,20.88797265625,9.508479118347168,1.7443677186965942,-0.09930214285850525
1683133663175810600,20.905810546875,9.896714210510254,0.849452018737793,0.03290131315588951
1683133663193649200,20.923649169921877,9.57487964630127,1.6342978477478027,-0.15074782073497772
1683133663211486700,20.94148681640625,9.78664493560791,0.9978070259094238,0.1746760457754135
1683133663229324800,20.95932470703125,9.579665184020996,1.389631748199463,-0.28893333673477173
1683133663247162600,20.97716259765625,9.735198974609375,1.2711870670318604,0.18843477964401245
1683133663264996400,20.994996337890626,9.811769485473633,1.1748759746551514,-0.13938191533088684
1683133663282834400,21.01283447265625,9.570094108581543,1.6055840253829956,-0.10348957777023315
1683133663300676900,21.0306767578125,9.982257843017578,0.882951557636261,0.06161518394947052
1683133663318515500,21.048515380859374,9.503693580627441,1.730010747909546,-0.10408778488636017
1683133663336349200,21.06634912109375,9.820143699645996,0.8685946464538574,0.05144568532705307
1683133663354190600,21.084190673828125,9.537193298339844,1.4997016191482544,-0.23210379481315613
1683133663372029200,21.102029296875,9.748957633972168,1.1754741668701172,0.26979073882102966
1683133663389866200,21.1198662109375,9.722038269042969,1.2843475341796875,-0.2925225794315338
1683133663407706400,21.137706298828125,9.650253295898438,1.4476577043533325,0.01615155301988125
1683133663425543400,21.15554345703125,9.920642852783203,0.9930213689804077,0.04247260093688965
1683133663443381200,21.17338134765625,9.513264656066895,1.6965112686157227,-0.13220344483852386
1683133663461219800,21.1912197265625,9.868000984191895,0.8398807644844055,0.03290131315588951
1683133663479058000,21.209057861328127,9.56052303314209,1.5960127115249634,-0.17946170270442963
1683133663496895700,21.226895751953126,9.781859397888184,1.0408778190612793,0.2225325107574463
1683133663514733600,21.244733642578126,9.627521514892578,1.3800604343414307,-0.32662028074264526
1683133663532572000,21.262572021484374,9.687342643737793,1.2705888748168945,0.1501496136188507
1683133663550410000,21.280409912109373,9.863813400268555,1.155733346939087,-0.05802594870328903
1683133663568246000,21.29824609375,9.617352485656738,1.5864413976669312,-0.07956135272979736
1683133663586082000,21.31608203125,9.896714210510254,0.8925228714942932,0.04247260093688965
1683133663603925200,21.33392529296875,9.537193298339844,1.7012969255447388,-0.12263216078281403
1683133663621761300,21.35176123046875,9.834501266479492,0.9116654396057129,0.13698910176753998
1683133663639597300,21.369597412109375,9.579665184020996,1.5194423198699951,-0.23210379481315613
1683133663657441300,21.387441162109376,9.78664493560791,1.1324033737182617,0.23688943684101105
1683133663675263000,21.405262939453124,9.731609344482422,1.236491084098816,-0.24466611444950104
1683133663693115600,21.42311572265625,9.631111145019531,1.4715858697891235,0.006580262444913387
1683133663710951000,21.440950927734374,9.877572059631348,1.007378339767456,0.04187439754605293
1683133663728792000,21.4587919921875,9.5324068069458,1.667797327041626,-0.15613168478012085
1683133663746628400,21.47662841796875,9.834501266479492,0.849452018737793,0.05144568532705307
1683133663764466400,21.494466552734377,9.550951957702637,1.6390835046768188,-0.13698910176753998
1683133663782304500,21.512304443359376,9.81535816192627,1.0217353105545044,0.1704886108636856
1683133663800142800,21.530142822265624,9.594022750854492,1.3657035827636719,-0.3314059376716614
1683133663817980700,21.547980712890624,9.768698692321777,1.3334003686904907,0.16929219663143158
1683133663835819000,21.565819091796875,9.821340560913086,1.1126625537872314,-0.06819544732570648
1683133663853657300,21.5836572265625,9.513264656066895,1.5481562614440918,-0.15134602785110474
1683133663871495200,21.6014951171875,9.924830436706543,0.8781659007072449,0.09032905846834183
1683133663889333000,21.6193330078125,9.498908042907715,1.7443677186965942,-0.08973085135221481
1683133663907171000,21.637171142578126,9.834501266479492,0.9260223507881165,0.11306086927652359
1683133663925009200,21.655009033203125,9.594022750854492,1.5044872760772705,-0.29850462079048157
1683133663942850600,21.6728505859375,9.734601020812988,1.1509476900100708,0.21236300468444824
1683133663960684800,21.690684814453125,9.726823806762695,1.2508480548858643,-0.19262222945690155
1683133663978523400,21.7085234375,9.659825325012207,1.4333007335662842,-0.01196411345154047
1683133663996361500,21.726361572265624,9.872786521911621,0.9786644577980042,0.02751746028661728
1683133664014199600,21.744199462890624,9.489336013793945,1.730010747909546,-0.11844471842050552
1683133664032036000,21.7620361328125,9.910472869873047,0.849452018737793,0.07118647545576096
1683133664049876500,21.77987646484375,9.57487964630127,1.6199408769607544,-0.1459621787071228
1683133664067713800,21.7977138671875,9.791430473327637,1.007378339767456,0.1698904037475586
1683133664085551400,21.81555126953125,9.584450721740723,1.3657035827636719,-0.2793620526790619
1683133664103386400,21.833386474609377,9.668798446655273,1.3094722032546997,0.1740778535604477
1683133664121230800,21.85123095703125,9.797411918640137,1.1365907192230225,-0.08733802288770676
1683133664139065900,21.86906591796875,9.541379928588867,1.5912270545959473,-0.13220344483852386
1683133664156904200,21.886904296875,9.934401512145996,0.8733802437782288,0.08075776696205139
1683133664174741500,21.904741455078124,9.503693580627441,1.7252250909805298,-0.09930214285850525
1683133664192579600,21.92257958984375,9.820143699645996,0.8877372145652771,0.05144568532705307
1683133664210418000,21.94041796875,9.546764373779297,1.485344648361206,-0.26081767678260803
1683133664228254700,21.958254638671875,9.772886276245117,1.2089736461639404,0.26979073882102966
1683133664246094600,21.976094482421875,9.698110580444336,1.2604193687438965,-0.2548356056213379
1683133664263932000,21.993931884765626,9.598209381103516,1.4189438819885254,-0.0077766734175384045
1683133664281770000,22.01177001953125,9.91107177734375,0.9690931439399719,0.07058826833963394
1683133664299608300,22.0296083984375,9.518050193786621,1.734796404838562,-0.09930214285850525
1683133664317446400,22.0474462890625,9.8871431350708,0.8350951075553894,0.03768695518374443
1683133664335284000,22.065283935546876,9.54197883605957,1.6103696823120117,-0.18005990982055664
1683133664353117400,22.083117431640623,9.772287368774414,1.0408778190612793,0.23688943684101105
1683133664370960400,22.10096044921875,9.603593826293945,1.3800604343414307,-0.29371899366378784
1683133664388798500,22.118798583984375,9.7064847946167,1.2705888748168945,0.1453639715909958
1683133664406636300,22.13663623046875,9.811769485473633,1.1318050622940063,-0.10648060590028763
1683133664424474400,22.154474365234375,9.522835731506348,1.6247265338897705,-0.10348957777023315
1683133664442312700,22.172312744140626,9.958329200744629,0.882951557636261,0.028115665540099144
1683133664460150800,22.19015087890625,9.513264656066895,1.7204394340515137,-0.1136590763926506
1683133664477988400,22.20798828125,9.787242889404297,0.8877372145652771,0.05623133108019829
1683133664495827000,22.225826904296873,9.579665184020996,1.4757733345031738,-0.24586252868175507
1683133664513664500,22.24366455078125,9.744172096252441,1.170688509941101,0.2745763957500458
1683133664531502600,22.261502685546876,9.707681655883789,1.2460623979568481,-0.27337998151779175
1683133664549340700,22.279340576171876,9.650253295898438,1.4428720474243164,0.020937198773026466
1683133664567179800,22.2971796875,9.915857315063477,0.9786644577980042,0.052043892443180084
1683133664585016800,22.315016845703123,9.565308570861816,1.6821542978286743,-0.13698910176753998
1683133664602855200,22.332855224609375,9.8871431350708,0.8542376756668091,0.047258246690034866
1683133664620692700,22.350692626953126,9.584450721740723,1.6247265338897705,-0.18424734473228455
1683133664638531000,22.368531005859374,9.81535816192627,1.0360921621322632,0.1986042857170105
1683133664656369400,22.386369384765626,9.613164901733398,1.394417405128479,-0.34576287865638733
1683133664674202600,22.40420263671875,9.720842361450195,1.2658032178878784,0.13579268753528595
1683133664692031700,22.42203173828125,9.81655502319336,1.1413763761520386,-0.0729810893535614
1683133664709885400,22.439885498046873,9.570094108581543,1.5625132322311401,-0.12263216078281403
1683133664727721200,22.45772119140625,9.924830436706543,0.8590233325958252,-0.0005982056609354913
1683133664745559300,22.475559326171876,9.446864128112793,1.7012969255447388,-0.11844471842050552
1683133664763383600,22.493383544921876,9.839286804199219,0.9212366938591003,0.15134602785110474
1683133664781237000,22.511237060546875,9.608379364013672,1.5337992906570435,-0.21714866161346436
1683133664799072000,22.529072021484374,9.739386558532715,1.1222338676452637,0.2315055876970291
1683133664816912400,22.546912353515626,9.726823806762695,1.2891331911087036,-0.268594354391098
1683133664834749200,22.564749267578126,9.674181938171387,1.4333007335662842,0.02153540402650833
1683133664852587500,22.58258740234375,9.79681396484375,1.007378339767456,0.017946170642971992
1683133664870425300,22.60042529296875,9.561120986938477,1.6630117893218994,-0.14656038582324982
1683133664888263400,22.618263427734377,9.910472869873047,0.8685946464538574,0.0568295381963253
1683133664906102000,22.63610205078125,9.489336013793945,1.667797327041626,-0.13698910176753998
1683133664923938300,22.653938232421876,9.829715728759766,0.9930213689804077,0.15134602785110474
1683133664941779000,22.671779052734376,9.603593826293945,1.4039887189865112,-0.3074777126312256
1683133664959615500,22.689615478515623,9.725627899169922,1.3094722032546997,0.21236300468444824
1683133664977454800,22.707454833984375,9.797411918640137,1.155733346939087,-0.10169496387243271
1683133664995287000,22.725287109375,9.589237213134766,1.5194423198699951,-0.09870393574237823
