time,seconds_elapsed,z,y,x
1683133642403262200,0.13326220703125,1.6450681686401367,-4.323417663574219,1.2100645303726196
1683133642421099000,0.15109912109375,1.5798654556274414,-4.011204242706299,1.0127159357070923
1683133642438942000,0.16894189453125,1.5949039459228516,-4.119741439819336,1.255715250968933
1683133642456778000,0.186778076171875,1.6283063888549805,-4.193049430847168,1.0021172761917114
1683133642474615300,0.204615234375,1.5658531188964844,-3.93178129196167,1.1221626996994019
1683133642492443100,0.222443115234375,1.7136192321777344,-4.332282543182373,1.186321496963501
1683133642510291500,0.24029150390625,1.479288101196289,-3.8699710369110107,1.002954125404358
1683133642528130800,0.258130859375,1.7321491241455078,-4.346366882324219,1.2086410522460938
1683133642545964800,0.27596484375,1.5156135559082031,-3.945417881011963,1.0202374458312988
1683133642563810600,0.293810546875,1.6246814727783203,-4.187737464904785,1.257293701171875
1683133642581644000,0.31164404296875,1.6288127899169922,-4.140563011169434,0.9680321216583252
1683133642599484000,0.32948388671875,1.5582866668701172,-3.982041835784912,1.1753736734390259
1683133642617320400,0.347320556640625,1.7114953994750977,-4.286012172698975,1.1372363567352295
1683133642635160600,0.36516064453125,1.5162858963012695,-3.868983030319214,1.0200213193893433
1683133642652992300,0.3829921875,1.7025260925292969,-4.360918045043945,1.1920257806777954
1683133642670836500,0.40083642578125,1.4880094528198242,-3.901144504547119,1.0113818645477295
1683133642688673800,0.418673828125,1.6538581848144531,-4.2385687828063965,1.2550573348999023
1683133642706512600,0.4365126953125,1.5671520233154297,-4.08845853805542,0.985683262348175
1683133642724344600,0.454344482421875,1.5530481338500977,-4.057489395141602,1.2085102796554565
1683133642742189000,0.47218896484375,1.6828670501708984,-4.235312461853027,1.070170521736145
1683133642760025900,0.49002587890625,1.5184621810913086,-3.9029815196990967,1.071900725364685
1683133642777865700,0.50786572265625,1.7168397903442383,-4.343281269073486,1.2013522386550903
1683133642795699500,0.525699462890625,1.4729795455932617,-3.8638148307800293,1.0150668621063232
1683133642813544400,0.54354443359375,1.6775732040405273,-4.299281120300293,1.2349402904510498
1683133642831378700,0.561378662109375,1.577164649963379,-3.9958934783935547,1.001857042312622
1683133642849217000,0.579217041015625,1.588094711303711,-4.122283935546875,1.232788324356079
1683133642867044000,0.597044189453125,1.635970115661621,-4.198359489440918,1.010352611541748
1683133642884894500,0.61489453125,1.541769027709961,-3.9072341918945312,1.1242167949676514
1683133642902724900,0.632724853515625,1.7083063125610352,-4.316447734832764,1.166904091835022
1683133642920569600,0.650569580078125,1.468297004699707,-3.863616943359375,1.0102529525756836
1683133642938407400,0.668407470703125,1.6940679550170898,-4.320636749267578,1.2068179845809937
1683133642956246800,0.686246826171875,1.5587539672851562,-3.9352569580078125,1.020107626914978
1683133642974079200,0.704079345703125,1.6046266555786133,-4.168818950653076,1.2368232011795044
1683133642991916500,0.72191650390625,1.6087112426757812,-4.126559734344482,0.9985587000846863
1683133643009760300,0.73976025390625,1.5718145370483398,-3.969007968902588,1.183968186378479
1683133643027600000,0.757599853515625,1.6690845489501953,-4.27796745300293,1.1249730587005615
1683133643045432300,0.775432373046875,1.4607772827148438,-3.881096839904785,0.9851173758506775
1683133643063276300,0.7932763671875,1.7326650619506836,-4.343016624450684,1.2202537059783936
1683133643081112600,0.811112548828125,1.4833288192749023,-3.8648343086242676,1.029865026473999
1683133643098950100,0.8289501953125,1.6037664413452148,-4.211986541748047,1.2182986736297607
1683133643116790800,0.846790771484375,1.5923261642456055,-4.07991886138916,0.9700433015823364
1683133643134629000,0.864629150390625,1.5704517364501953,-4.0117998123168945,1.2137442827224731
1683133643152465400,0.88246533203125,1.6246414184570312,-4.227022171020508,1.0554817914962769
1683133643170304000,0.900303955078125,1.514784812927246,-3.8999314308166504,1.0418988466262817
1683133643188143400,0.918143310546875,1.7186517715454102,-4.3270792961120605,1.222451090812683
1683133643205981400,0.9359814453125,1.4237594604492188,-3.801849603652954,1.027380347251892
1683133643223806200,0.95380615234375,1.6750602722167969,-4.267154216766357,1.2135059833526611
1683133643241658000,0.971658203125,1.563645362854004,-3.9945688247680664,0.9765854477882385
1683133643259495000,0.989494873046875,1.5525836944580078,-4.068064212799072,1.2275168895721436
1683133643277329400,1.007329345703125,1.6032695770263672,-4.1842780113220215,1.0166277885437012
1683133643295166200,1.025166259765625,1.507643699645996,-3.928150177001953,1.1019327640533447
1683133643313010400,1.043010498046875,1.6957073211669922,-4.279391288757324,1.1800543069839478
1683133643330847700,1.06084765625,1.4442815780639648,-3.8157126903533936,1.0167564153671265
1683133643348687000,1.07868701171875,1.6965360641479492,-4.3036651611328125,1.2071064710617065
1683133643366519000,1.09651904296875,1.5124835968017578,-3.8994312286376953,1.0082734823226929
1683133643384352300,1.114352294921875,1.589914321899414,-4.143647193908691,1.2161495685577393
1683133643402200000,1.132199951171875,1.5758905410766602,-4.108694553375244,0.985728919506073
1683133643420035000,1.15003515625,1.5372142791748047,-3.9446938037872314,1.1706676483154297
1683133643437877800,1.167877685546875,1.6611099243164062,-4.244211196899414,1.1275891065597534
1683133643455715600,1.185715576171875,1.4473180770874023,-3.814145565032959,1.013029932975769
1683133643473552600,1.203552734375,1.714402198791504,-4.317986488342285,1.1916463375091553
1683133643491391500,1.2213916015625,1.481572151184082,-3.8452224731445312,1.02256441116333
1683133643509229600,1.2392294921875,1.602407455444336,-4.198176383972168,1.190964937210083
1683133643527068700,1.257068603515625,1.5362844467163086,-4.04524040222168,0.9761974215507507
1683133643544905500,1.274905517578125,1.5353326797485352,-3.986323118209839,1.2255548238754272
1683133643562741500,1.292741455078125,1.607121467590332,-4.178952217102051,1.0537409782409668
1683133643580581400,1.310581298828125,1.4573698043823242,-3.8427681922912598,1.0237457752227783
1683133643598421000,1.3284208984375,1.6989974975585938,-4.306966781616211,1.2037140130996704
1683133643616253400,1.34625341796875,1.4514884948730469,-3.78279447555542,1.0116596221923828
1683133643634097400,1.364097412109375,1.6025390625,-4.245571136474609,1.1806434392929077
1683133643651934200,1.381934326171875,1.5323753356933594,-3.9863686561584473,0.9686952829360962
1683133643669774300,1.3997744140625,1.5257978439331055,-4.0120344161987305,1.2415227890014648
1683133643687610400,1.4176103515625,1.5664243698120117,-4.139198303222656,0.9886311292648315
1683133643705450200,1.4354501953125,1.4972724914550781,-3.8789501190185547,1.0680981874465942
1683133643723286500,1.45328662109375,1.6743221282958984,-4.2749342918396,1.1912643909454346
1683133643741125000,1.471125,1.4324979782104492,-3.7502899169921875,1.0164695978164673
1683133643758952700,1.48895263671875,1.648024559020996,-4.271146297454834,1.1762614250183105
1683133643776803000,1.506802978515625,1.475815773010254,-3.894815444946289,0.9712449312210083
1683133643794639600,1.5246396484375,1.5409135818481445,-4.080511093139648,1.229806661605835
1683133643812478700,1.542478759765625,1.5525636672973633,-4.089621543884277,0.964627206325531
1683133643830315800,1.560315673828125,1.4701642990112305,-3.9120564460754395,1.1357128620147705
1683133643848155600,1.57815576171875,1.6468658447265625,-4.202637672424316,1.1162813901901245
1683133643865997600,1.59599755859375,1.4341115951538086,-3.762063503265381,1.0136222839355469
1683133643883831300,1.613831298828125,1.6724767684936523,-4.290761947631836,1.1692776679992676
1683133643901669000,1.631669189453125,1.4348058700561523,-3.816006660461426,0.9877715706825256
1683133643919508500,1.649508544921875,1.5690479278564453,-4.144659042358398,1.2044141292572021
1683133643937345000,1.667344970703125,1.5093774795532227,-4.019181728363037,0.9643641114234924
1683133643955184000,1.68518408203125,1.4913110733032227,-3.9455089569091797,1.2008817195892334
1683133643973021000,1.70302099609375,1.604569435119629,-4.145514488220215,1.0476981401443481
1683133643990858500,1.7208583984375,1.441075325012207,-3.772569417953491,1.0288335084915161
1683133644008697300,1.738697265625,1.666762351989746,-4.271061897277832,1.162658452987671
1683133644026537000,1.756536865234375,1.4121818542480469,-3.7496674060821533,1.0133278369903564
1683133644044373800,1.774373779296875,1.5958080291748047,-4.1921257972717285,1.1745667457580566
1683133644062211800,1.7922119140625,1.478104591369629,-3.9214906692504883,0.9732465744018555
1683133644080048600,1.810048583984375,1.5046405792236328,-3.9874143600463867,1.2258656024932861
1683133644097892000,1.82789208984375,1.5884418487548828,-4.087320327758789,0.9732087850570679
1683133644115726300,1.845726318359375,1.4670000076293945,-3.8151750564575195,1.0687131881713867
1683133644133561300,1.863561279296875,1.6270532608032227,-4.229085922241211,1.1604042053222656
1683133644151399200,1.881399169921875,1.407008171081543,-3.756340980529785,0.9694796800613403
1683133644169240300,1.899240234375,1.6099786758422852,-4.2126641273498535,1.168623685836792
1683133644187080700,1.917080810546875,1.4348630905151367,-3.825573444366455,0.9732040762901306
1683133644204916000,1.934916015625,1.5345220565795898,-4.044785022735596,1.2222236394882202
1683133644222753800,1.95275390625,1.5208959579467773,-4.021035671234131,0.9392377138137817
1683133644240594400,1.970594482421875,1.485647201538086,-3.8332157135009766,1.11923348903656
1683133644258431500,1.988431396484375,1.610489845275879,-4.17437744140625,1.127912163734436
1683133644276267300,2.006267333984375,1.3828754425048828,-3.730869770050049,0.9817917346954346
1683133644294108200,2.024108154296875,1.6400184631347656,-4.219865322113037,1.1650208234786987
1683133644311947300,2.041947265625,1.3901853561401367,-3.769871234893799,0.9752278327941895
1683133644329784600,2.05978466796875,1.511861801147461,-4.0953145027160645,1.203310489654541
1683133644347624000,2.0776240234375,1.5227851867675781,-3.950028896331787,0.9285431504249573
1683133644365460200,2.095460205078125,1.4631719589233398,-3.891834020614624,1.1602870225906372
1683133644383291100,2.113291015625,1.5787229537963867,-4.1108078956604,1.048296570777893
1683133644401136600,2.13113671875,1.4335746765136719,-3.7366538047790527,1.0155601501464844
1683133644418976500,2.1489765625,1.5957260131835938,-4.204336643218994,1.1564399003982544
1683133644436801300,2.16680126953125,1.3603105545043945,-3.716066598892212,0.973146915435791
1683133644454647600,2.1846474609375,1.5739631652832031,-4.127460479736328,1.1926380395889282
1683133644472490000,2.202489990234375,1.4498510360717773,-3.851377010345459,0.9490618109703064
1683133644490329000,2.2203291015625,1.4615535736083984,-3.9482929706573486,1.1897138357162476
1683133644508148200,2.238148193359375,1.528116226196289,-4.029996871948242,0.970308780670166
1683133644526005200,2.256005126953125,1.4174766540527344,-3.750746965408325,1.0745551586151123
1683133644543842300,2.27384228515625,1.5694265365600586,-4.171955585479736,1.1296278238296509
1683133644561681700,2.291681640625,1.3323545455932617,-3.6829681396484375,0.9553523063659668
1683133644579506400,2.30950634765625,1.5812864303588867,-4.163482189178467,1.1651606559753418
1683133644597357300,2.327357421875,1.4239654541015625,-3.763394832611084,0.9851056337356567
1683133644615194600,2.345194580078125,1.4643383026123047,-3.9889426231384277,1.1862595081329346
1683133644633022500,2.3630224609375,1.467742919921875,-3.9678006172180176,0.9329286813735962
1683133644650870800,2.380870849609375,1.4331893920898438,-3.7782082557678223,1.1373515129089355
1683133644668710400,2.39871044921875,1.5313482284545898,-4.085611343383789,1.0825225114822388
1683133644686547500,2.41654736328125,1.3371467590332031,-3.700343132019043,0.9379503726959229
1683133644704382200,2.43438232421875,1.5763235092163086,-4.158353805541992,1.174478530883789
1683133644722223000,2.45222314453125,1.3355417251586914,-3.6644909381866455,0.9818292260169983
1683133644740062700,2.470062744140625,1.4993600845336914,-4.057406425476074,1.1670564413070679
1683133644757900000,2.487900146484375,1.4424638748168945,-3.881227731704712,0.9247698187828064
1683133644775735000,2.505735107421875,1.4024028778076172,-3.8150343894958496,1.167280912399292
1683133644793576000,2.523575927734375,1.494680404663086,-4.0342254638671875,1.0206378698349
1683133644811415600,2.54141552734375,1.3544511795043945,-3.7024760246276855,0.9915937185287476
1683133644829251300,2.559251220703125,1.546544075012207,-4.123325347900391,1.1605087518692017
1683133644847093500,2.577093505859375,1.2958707809448242,-3.607804775238037,0.9742844104766846
1683133644864928500,2.594928466796875,1.5237884521484375,-4.076876640319824,1.1410785913467407
1683133644882764500,2.6127646484375,1.4188718795776367,-3.7873330116271973,0.9146737456321716
1683133644900605400,2.63060546875,1.4091463088989258,-3.873170852661133,1.1696789264678955
1683133644918444500,2.648444580078125,1.4434242248535156,-3.969176769256592,0.9543847441673279
1683133644936281300,2.66628125,1.3610124588012695,-3.7103474140167236,1.0491752624511719
1683133644954120700,2.68412060546875,1.5356874465942383,-4.073784828186035,1.105794906616211
1683133644971959300,2.701959228515625,1.2634363174438477,-3.5826103687286377,0.9589737057685852
1683133644989796000,2.719796142578125,1.5678768157958984,-4.083535671234131,1.1437437534332275
1683133645007634000,2.737634033203125,1.3718395233154297,-3.672978639602661,0.9502544403076172
1683133645025468400,2.755468505859375,1.4267578125,-3.922922134399414,1.1516705751419067
1683133645043310300,2.773310302734375,1.3968496322631836,-3.886775255203247,0.9091429710388184
1683133645061147100,2.791147216796875,1.3840179443359375,-3.7347493171691895,1.1106897592544556
1683133645078990600,2.808990478515625,1.4775476455688477,-4.011402130126953,1.0505542755126953
1683133645096820200,2.8268203125,1.2752628326416016,-3.5946309566497803,0.9476641416549683
1683133645114663000,2.844662841796875,1.5679807662963867,-4.091832160949707,1.1296368837356567
1683133645132502800,2.862502685546875,1.2791023254394531,-3.5970678329467773,0.9547761678695679
1683133645150337800,2.880337890625,1.4512062072753906,-3.983135461807251,1.1127595901489258
1683133645168182800,2.898182861328125,1.3574905395507812,-3.799832344055176,0.9104220271110535
1683133645186015500,2.916015380859375,1.380929946899414,-3.7440409660339355,1.1630569696426392
1683133645203851800,2.933851806640625,1.4412908554077148,-3.9265012741088867,0.9797548651695251
1683133645221695500,2.951695556640625,1.288344383239746,-3.621278762817383,0.9708483219146729
1683133645239531000,2.969531005859375,1.5370893478393555,-4.063014030456543,1.134102702140808
1683133645257368000,2.9873681640625,1.2724790573120117,-3.5331830978393555,0.9352961778640747
1683133645275196400,3.005196533203125,1.4482707977294922,-4.010655879974365,1.1091305017471313
1683133645293044200,3.023044189453125,1.3371658325195312,-3.707702398300171,0.9136613607406616
1683133645310883800,3.0408837890625,1.3771724700927734,-3.80192232131958,1.1745226383209229
1683133645328721200,3.05872119140625,1.3800992965698242,-3.879086494445801,0.9030581712722778
1683133645346556000,3.076555908203125,1.2772512435913086,-3.6519405841827393,1.0325291156768799
1683133645364397000,3.09439697265625,1.506744384765625,-3.9873313903808594,1.1132711172103882
1683133645382236400,3.112236328125,1.254471778869629,-3.483712673187256,0.9461793899536133
1683133645400061700,3.130061767578125,1.4759511947631836,-4.022515773773193,1.1092405319213867
1683133645417913300,3.147913330078125,1.290654182434082,-3.597196578979492,0.9127368330955505
1683133645435750000,3.16575,1.3893156051635742,-3.845526695251465,1.1540052890777588
1683133645453589000,3.183589111328125,1.3262939453125,-3.7780680656433105,0.8799729943275452
1683133645471421200,3.201421142578125,1.321995735168457,-3.6837377548217773,1.100936770439148
1683133645489267000,3.219266845703125,1.4392738342285156,-3.9070959091186523,1.0148135423660278
1683133645507102200,3.237102294921875,1.2523975372314453,-3.501976490020752,0.9464062452316284
1683133645524941600,3.254941650390625,1.512624740600586,-4.025710582733154,1.091954231262207
1683133645542775000,3.272775146484375,1.2224922180175781,-3.5039048194885254,0.9274341464042664
1683133645560618500,3.290618408203125,1.4034156799316406,-3.910618782043457,1.107391357421875
1683133645578440400,3.3084404296875,1.311941146850586,-3.684282064437866,0.9001253843307495
1683133645596297500,3.32629736328125,1.2980632781982422,-3.7115120887756348,1.1535831689834595
1683133645614131500,3.34413134765625,1.4035558700561523,-3.829047918319702,0.9270424842834473
1683133645631970600,3.361970458984375,1.2831945419311523,-3.529890537261963,0.9722891449928284
1683133645649807400,3.379807373046875,1.4389705657958984,-3.97283935546875,1.0881258249282837
1683133645667647200,3.397647216796875,1.2069597244262695,-3.465113639831543,0.900958776473999
1683133645685473800,3.415473876953125,1.4289493560791016,-3.9370646476745605,1.1069318056106567
1683133645703323600,3.43332373046875,1.2618913650512695,-3.5664751529693604,0.9052671790122986
1683133645721160200,3.45116015625,1.3320789337158203,-3.752902030944824,1.1334930658340454
1683133645738996700,3.468996826171875,1.3345298767089844,-3.750460147857666,0.862394392490387
1683133645756839400,3.48683935546875,1.281423568725586,-3.5452160835266113,1.0394469499588013
1683133645774676000,3.504676025390625,1.4029369354248047,-3.8967554569244385,1.058032751083374
1683133645792511700,3.52251171875,1.1996746063232422,-3.446627378463745,0.8914177417755127
1683133645810353400,3.540353515625,1.417795181274414,-3.944934368133545,1.0836361646652222
1683133645828189200,3.558189208984375,1.203841209411621,-3.4826536178588867,0.8956176042556763
1683133645846021600,3.576021728515625,1.334050178527832,-3.7948899269104004,1.1243362426757812
1683133645863865300,3.593865234375,1.308095932006836,-3.6813390254974365,0.843561053276062
1683133645881705000,3.611705078125,1.2670927047729492,-3.5937931537628174,1.0894553661346436
1683133645899541800,3.629541748046875,1.3749370574951172,-3.7917165756225586,0.9634760618209839
1683133645917381400,3.64738134765625,1.2111701965332031,-3.4595656394958496,0.9213863611221313
1683133645935208700,3.665208740234375,1.4258489608764648,-3.8955485820770264,1.0764998197555542
1683133645953057800,3.683057861328125,1.1540899276733398,-3.41182804107666,0.893804669380188
1683133645970894800,3.700894775390625,1.3581466674804688,-3.837275981903076,1.109796166419983
1683133645988730000,3.718730224609375,1.258636474609375,-3.536674737930298,0.8778879642486572
1683133646006570500,3.736570556640625,1.2795753479003906,-3.6462130546569824,1.1137114763259888
1683133646024410400,3.754410400390625,1.318739891052246,-3.7327334880828857,0.8865715265274048
1683133646042235400,3.7722353515625,1.224905014038086,-3.447922468185425,0.9950669407844543
1683133646060087000,3.790087158203125,1.3667984008789062,-3.847125768661499,1.045830488204956
1683133646077923300,3.80792333984375,1.1374940872192383,-3.3762288093566895,0.8726078867912292
1683133646095763000,3.825762939453125,1.378946304321289,-3.8398494720458984,1.0816993713378906
1683133646113595100,3.84359521484375,1.2091798782348633,-3.4258928298950195,0.8974698781967163
1683133646131436300,3.861436279296875,1.2591009140014648,-3.6919522285461426,1.0854560136795044
1683133646149279000,3.879279052734375,1.2629985809326172,-3.6284897327423096,0.8446712493896484
1683133646167103700,3.897103759765625,1.259547233581543,-3.483628034591675,1.0541168451309204
1683133646184952300,3.914952392578125,1.310999870300293,-3.7623038291931152,0.9764036536216736
1683133646202788400,3.932788330078125,1.1247663497924805,-3.384709119796753,0.8710857033729553
1683133646220628700,3.950628662109375,1.3777637481689453,-3.8443989753723145,1.097841501235962
1683133646238466800,3.968466796875,1.145376205444336,-3.3199470043182373,0.8882919549942017
1683133646256303600,3.9863037109375,1.2843904495239258,-3.7422146797180176,1.0604466199874878
1683133646274147000,4.00414697265625,1.2181854248046875,-3.529176712036133,0.8338685631752014
1683133646291980800,4.021980712890625,1.2350940704345703,-3.507741928100586,1.0911145210266113
1683133646309821200,4.0398212890625,1.2933340072631836,-3.682577133178711,0.9060237407684326
1683133646327657700,4.05765771484375,1.1264257431030273,-3.395037889480591,0.9260932207107544
1683133646345497300,4.075497314453125,1.3712711334228516,-3.7673163414001465,1.0622072219848633
1683133646363330800,4.093330810546875,1.088118553161621,-3.2750444412231445,0.875117301940918
1683133646381173500,4.111173583984375,1.3239212036132812,-3.771333694458008,1.055665135383606
1683133646399013600,4.129013671875,1.1604042053222656,-3.4079604148864746,0.8472681045532227
1683133646416850000,4.146849853515625,1.2443304061889648,-3.5774214267730713,1.068505883216858
1683133646434681900,4.164681884765625,1.190922737121582,-3.6050891876220703,0.8309820890426636
1683133646452514000,4.18251416015625,1.1456937789916992,-3.4017200469970703,0.9855180978775024
1683133646470363100,4.200363037109375,1.321375846862793,-3.7052440643310547,0.9846861958503723
1683133646488198000,4.218197998046875,1.0652656555175781,-3.275648832321167,0.8578472137451172
1683133646506037000,4.236037109375,1.3540096282958984,-3.761751651763916,1.048361897468567
1683133646523876000,4.2538759765625,1.1330585479736328,-3.2823104858398438,0.8696790933609009
1683133646541719300,4.27171923828125,1.226923942565918,-3.6495909690856934,1.0330150127410889
1683133646559542500,4.28954248046875,1.1565055847167969,-3.5113525390625,0.8262150883674622
1683133646577380900,4.307380859375,1.183065414428711,-3.4194726943969727,1.0643420219421387
1683133646595231700,4.325231689453125,1.2584114074707031,-3.6214325428009033,0.912879467010498
1683133646613067800,4.34306787109375,1.0812606811523438,-3.272840976715088,0.8769123554229736
1683133646630908400,4.360908447265625,1.3527536392211914,-3.734703779220581,1.039003610610962
1683133646648744700,4.37874462890625,1.0652570724487305,-3.2128822803497314,0.8448034524917603
1683133646666580700,4.396580810546875,1.248744010925293,-3.676107883453369,1.0198501348495483
1683133646684412400,4.414412353515625,1.1406679153442383,-3.3920254707336426,0.826259434223175
1683133646702260500,4.432260498046875,1.1605186462402344,-3.4522647857666016,1.077605962753296
1683133646720097300,4.45009716796875,1.1943368911743164,-3.5433907508850098,0.8191866874694824
1683133646737937000,4.46793701171875,1.1030988693237305,-3.307173252105713,0.9269835948944092
1683133646755769000,4.48576904296875,1.2904472351074219,-3.6635868549346924,1.015472412109375
1683133646773613000,4.503613037109375,1.0412912368774414,-3.1729977130889893,0.836678683757782
1683133646791449600,4.52144970703125,1.2757291793823242,-3.6842384338378906,1.0035114288330078
1683133646809276400,4.5392763671875,1.078338623046875,-3.2698216438293457,0.8157631754875183
1683133646827127800,4.5571279296875,1.1574363708496094,-3.5127151012420654,1.0638654232025146
1683133646844966000,4.5749658203125,1.1712112426757812,-3.469674587249756,0.7875034809112549
1683133646862799000,4.592799072265625,1.1011075973510742,-3.317582845687866,0.9909745454788208
1683133646880640500,4.610640625,1.2560949325561523,-3.5913021564483643,0.9334845542907715
1683133646898480000,4.628480224609375,1.0534534454345703,-3.147402763366699,0.8476979732513428
1683133646916318700,4.646318603515625,1.2651557922363281,-3.6657919883728027,1.0067920684814453
1683133646934157800,4.66415771484375,1.038771629333496,-3.1756136417388916,0.8220566511154175
1683133646951995000,4.681994873046875,1.1881084442138672,-3.5580530166625977,1.008681297302246
1683133646969832200,4.699832275390625,1.0880632400512695,-3.3457345962524414,0.7885900735855103
1683133646987672000,4.717672119140625,1.0926074981689453,-3.351162910461426,1.0514811277389526
1683133647005507600,4.735507568359375,1.2159557342529297,-3.4938414096832275,0.829579770565033
1683133647023342800,4.7533427734375,1.0322484970092773,-3.1754150390625,0.8692837357521057
1683133647041186000,4.77118603515625,1.243612289428711,-3.6158196926116943,0.980222225189209
1683133647059027000,4.78902685546875,1.011138916015625,-3.12719464302063,0.8103057146072388
1683133647076855600,4.80685546875,1.1812067031860352,-3.574941396713257,1.0081959962844849
1683133647094683400,4.824683349609375,1.038778305053711,-3.220768690109253,0.8112179040908813
1683133647112537300,4.842537353515625,1.1408071517944336,-3.388378143310547,1.0414021015167236
1683133647130376000,4.8603759765625,1.1385250091552734,-3.3987877368927,0.7738169431686401
1683133647148213200,4.878213134765625,1.0542106628417969,-3.1764895915985107,0.946564793586731
1683133647166053600,4.8960537109375,1.2322797775268555,-3.543537139892578,0.9524979591369629
1683133647183890000,4.913889892578125,0.9921054840087891,-3.0892789363861084,0.7930773496627808
1683133647201728500,4.931728515625,1.2001113891601562,-3.576292037963867,0.9872579574584961
1683133647219564800,4.949564697265625,1.000535011291504,-3.128551721572876,0.797603964805603
1683133647237405400,4.967405517578125,1.1266193389892578,-3.431527614593506,1.0176324844360352
1683133647255242800,4.98524267578125,1.0743465423583984,-3.3201143741607666,0.7516775131225586
1683133647273082400,5.003082275390625,1.0652685165405273,-3.229567050933838,0.9905514121055603
1683133647290918700,5.020918701171875,1.1703977584838867,-3.4434285163879395,0.8685739040374756
1683133647308758000,5.038758056640625,0.9853296279907227,-3.1102285385131836,0.8126344680786133
1683133647326583300,5.056583251953125,1.2050657272338867,-3.543491840362549,0.9701224565505981
1683133647344435000,5.07443505859375,0.9319601058959961,-3.029723882675171,0.7878780364990234
1683133647362271200,5.092271240234375,1.1345224380493164,-3.473384380340576,1.0143930912017822
1683133647380109300,5.110109375,1.0529975891113281,-3.1837148666381836,0.7737312912940979
1683133647397937200,5.127937255859375,1.0524349212646484,-3.2808780670166016,0.9950888752937317
1683133647415789300,5.145789306640625,1.073206901550293,-3.3659982681274414,0.7682758569717407
1683133647433623800,5.163623779296875,1.0253849029541016,-3.102783679962158,0.879294753074646
1683133647451453000,5.181452880859375,1.1342239379882812,-3.4697725772857666,0.937781810760498
1683133647469290000,5.1992900390625,0.935185432434082,-3.015123128890991,0.7774023413658142
1683133647487140400,5.217140380859375,1.1864252090454102,-3.4872639179229736,0.9818688631057739
1683133647504976400,5.234976318359375,0.9704437255859375,-3.0475897789001465,0.7869903445243835
1683133647522811000,5.252810791015625,1.0527114868164062,-3.3382511138916016,0.9672062993049622
1683133647540651800,5.27065185546875,1.0532798767089844,-3.256955146789551,0.7383995056152344
1683133647558494700,5.28849462890625,1.0078487396240234,-3.1089329719543457,0.9628458619117737
1683133647576329200,5.3063291015625,1.1024866104125977,-3.3837502002716064,0.8646131753921509
1683133647594168800,5.3241689453125,0.9203805923461914,-3.016730308532715,0.76377934217453
1683133647611994000,5.341994140625,1.1515474319458008,-3.4576501846313477,0.977964460849762
1683133647629846800,5.3598466796875,0.9132509231567383,-2.9463162422180176,0.7813037037849426
1683133647647681300,5.377681396484375,1.0704936981201172,-3.3667662143707275,0.9628334641456604
1683133647665522000,5.39552197265625,1.0074176788330078,-3.1402158737182617,0.7377719879150391
1683133647683358700,5.413358642578125,1.0008115768432617,-3.1537065505981445,0.9856589436531067
1683133647701197800,5.43119775390625,1.0473546981811523,-3.2960128784179688,0.7779076099395752
1683133647719035400,5.449035400390625,0.9179496765136719,-3.012714385986328,0.8103205561637878
1683133647736874200,5.466874267578125,1.1420927047729492,-3.4075522422790527,0.9617762565612793
1683133647754711600,5.484711669921875,0.866765022277832,-2.879507541656494,0.7708815932273865
1683133647772551400,5.502551513671875,1.107743263244629,-3.3784494400024414,0.9394728541374207
1683133647790387500,5.520387451171875,0.9588222503662109,-3.036221981048584,0.7388032078742981
1683133647808214800,5.53821484375,0.9976644515991211,-3.20035982131958,0.9618430137634277
1683133647826065000,5.55606494140625,0.9851703643798828,-3.2160985469818115,0.7199811339378357
1683133647843898400,5.5738984375,0.9418449401855469,-3.031320810317993,0.9016058444976807
1683133647861740800,5.59174072265625,1.1054496765136719,-3.3126614093780518,0.875786304473877
1683133647879580200,5.609580078125,0.8652591705322266,-2.882917881011963,0.746225893497467
1683133647897417200,5.627417236328125,1.1336479187011719,-3.379791259765625,0.928923487663269
1683133647915254000,5.64525390625,0.8980007171630859,-2.8884055614471436,0.7653902173042297
1683133647933095400,5.663095458984375,1.0159521102905273,-3.2626917362213135,0.9354768395423889
1683133647950930200,5.68093017578125,0.9260044097900391,-3.104238510131836,0.7219326496124268
1683133647968768500,5.6987685546875,0.9188232421875,-3.036376476287842,0.9511618614196777
1683133647986610200,5.716610107421875,1.0465431213378906,-3.244082450866699,0.7754413485527039
1683133648004446000,5.734446044921875,0.8596420288085938,-2.8910908699035645,0.7675305008888245
1683133648022282800,5.75228271484375,1.1028566360473633,-3.3459835052490234,0.9469751119613647
1683133648040125400,5.77012548828125,0.8618936538696289,-2.826463222503662,0.7448914647102356
1683133648057962000,5.7879619140625,1.0158271789550781,-3.2890772819519043,0.9154220819473267
1683133648075798500,5.805798583984375,0.9030141830444336,-3.0023281574249268,0.7141019105911255
1683133648093634000,5.823634033203125,0.9807748794555664,-3.065619945526123,0.9581959843635559
1683133648111465500,5.841465576171875,0.9525232315063477,-3.150355100631714,0.7048346996307373
1683133648129315000,5.859315185546875,0.8830642700195312,-2.8960227966308594,0.833441972732544
1683133648147151400,5.8771513671875,1.0953702926635742,-3.2746236324310303,0.9094319343566895
1683133648164986000,5.894986083984375,0.8041973114013672,-2.7692618370056152,0.7206785678863525
1683133648182823400,5.912823486328125,1.0443534851074219,-3.282945156097412,0.881963312625885
1683133648200669000,5.9306689453125,0.8631715774536133,-2.878452777862549,0.6999017596244812
1683133648218489600,5.948489501953125,0.9355792999267578,-3.1113250255584717,0.9492238759994507
1683133648236344800,5.9663447265625,0.9333581924438477,-3.0683722496032715,0.6796361207962036
1683133648254180900,5.984180908203125,0.8725681304931641,-2.9298276901245117,0.8853874802589417
1683133648272020200,6.002020263671875,1.030482292175293,-3.184687614440918,0.8253000974655151
1683133648289855700,6.019855712890625,0.8182363510131836,-2.769312858581543,0.7353504300117493
1683133648307697200,6.037697265625,1.0622615814208984,-3.262071132659912,0.8921975493431091
1683133648325533400,6.055533447265625,0.8002901077270508,-2.7836766242980957,0.7163034677505493
1683133648343373000,6.073373046875,0.9434986114501953,-3.161909341812134,0.9116703271865845
1683133648361209900,6.0912099609375,0.8876857757568359,-2.95062518119812,0.6927933692932129
1683133648379049000,6.109049072265625,0.8900814056396484,-2.954956531524658,0.9294090867042542
1683133648396886300,6.12688623046875,0.9721536636352539,-3.0978994369506836,0.7175924777984619
1683133648414721300,6.14472119140625,0.837101936340332,-2.7684969902038574,0.7694303393363953
1683133648432559900,6.162559814453125,1.0350942611694336,-3.219524383544922,0.8802477121353149
1683133648450404900,6.18040478515625,0.7779960632324219,-2.7117481231689453,0.6964932680130005
1683133648468226300,6.198226318359375,1.0081157684326172,-3.171234369277954,0.8954257369041443
1683133648486074600,6.21607470703125,0.820988655090332,-2.826138973236084,0.6898307800292969
1683133648503906600,6.233906494140625,0.8893032073974609,-2.9956741333007812,0.9078405499458313
1683133648521757700,6.2517578125,0.941594123840332,-3.0107979774475098,0.6595624089241028
1683133648539590700,6.269590576171875,0.8303594589233398,-2.782932758331299,0.8391685485839844
1683133648557428500,6.287428466796875,0.9954767227172852,-3.1280083656311035,0.8458485007286072
1683133648575271700,6.305271728515625,0.7835178375244141,-2.7009310722351074,0.6618297100067139
1683133648593107500,6.323107421875,0.9909219741821289,-3.163872480392456,0.8858989477157593
1683133648610943200,6.340943115234375,0.7756786346435547,-2.7164909839630127,0.7049155235290527
1683133648628776400,6.3587763671875,0.9145307540893555,-3.028326988220215,0.9144378900527954
1683133648646621000,6.376620849609375,0.8554811477661133,-2.910478353500366,0.6382010579109192
1683133648664457200,6.394457275390625,0.8379621505737305,-2.824063301086426,0.8731223940849304
1683133648682300400,6.412300537109375,0.9563045501708984,-3.049299955368042,0.7513291835784912
1683133648700137000,6.430136962890625,0.7885942459106445,-2.684542179107666,0.6988825798034668
1683133648717973200,6.44797314453125,0.9684724807739258,-3.134939670562744,0.8683226704597473
1683133648735808300,6.465808349609375,0.7383279800415039,-2.629580020904541,0.6889640092849731
1683133648753650000,6.48364990234375,0.9489583969116211,-3.0406203269958496,0.9051210880279541
1683133648771476000,6.50147607421875,0.8142757415771484,-2.7824196815490723,0.6591395735740662
1683133648789326300,6.519326416015625,0.8470010757446289,-2.8784408569335938,0.8742362260818481
1683133648807168800,6.537168701171875,0.8789539337158203,-2.957951545715332,0.6638505458831787
1683133648825003000,6.5550029296875,0.7798528671264648,-2.6925008296966553,0.786687970161438
1683133648842838300,6.57283837890625,0.9696378707885742,-3.059093475341797,0.8274036645889282
1683133648860669700,6.590669677734375,0.725921630859375,-2.5825095176696777,0.6522969007492065
1683133648878519800,6.608519775390625,0.9251976013183594,-3.0733275413513184,0.8581252694129944
1683133648896355300,6.626355224609375,0.7753982543945312,-2.648038387298584,0.6697577834129333
1683133648914195700,6.64419580078125,0.8427963256835938,-2.914625644683838,0.8525316119194031
1683133648932030700,6.66203076171875,0.8117132186889648,-2.868847370147705,0.6271601319313049
1683133648949872400,6.679872314453125,0.8302793502807617,-2.6979010105133057,0.8460928201675415
1683133648967708700,6.697708740234375,0.8751449584960938,-2.968212127685547,0.7520158886909485
1683133648985536300,6.715536376953125,0.6955366134643555,-2.6094861030578613,0.6447632312774658
1683133649003385000,6.733385009765625,0.9704713821411133,-3.035937786102295,0.8702538013458252
1683133649021224400,6.751224365234375,0.7040538787841797,-2.549748420715332,0.6659709215164185
1683133649039061000,6.76906103515625,0.8456640243530273,-2.9629135131835938,0.8420536518096924
1683133649056901000,6.786901123046875,0.8019733428955078,-2.7503769397735596,0.6223910450935364
1683133649074737400,6.8047373046875,0.7876186370849609,-2.7267379760742188,0.8641888499259949
1683133649092577000,6.822576904296875,0.8524608612060547,-2.8967936038970947,0.6605234742164612
1683133649110414000,6.8404140625,0.7117128372192383,-2.5924201011657715,0.708119809627533
1683133649128253000,6.8582529296875,0.9147491455078125,-2.9940216541290283,0.8517605066299438
1683133649146083800,6.876083740234375,0.6766805648803711,-2.4790079593658447,0.6548691987991333
1683133649163927000,6.893927001953125,0.9120454788208008,-2.9691975116729736,0.8240633606910706
1683133649181769500,6.91176953125,0.703862190246582,-2.630000114440918,0.6260042190551758
1683133649199594800,6.9295947265625,0.8109779357910156,-2.786233425140381,0.8532907962799072
1683133649217442800,6.94744287109375,0.8067226409912109,-2.799631118774414,0.6155397295951843
1683133649235282400,6.965282470703125,0.6960430145263672,-2.6074531078338623,0.7933334708213806
1683133649253115000,6.983114990234375,0.9020538330078125,-2.923150062561035,0.7740591764450073
1683133649270959000,7.000958984375,0.6573429107666016,-2.468352794647217,0.6449764966964722
1683133649288796000,7.0187958984375,0.9142971038818359,-2.9590392112731934,0.8218768835067749
1683133649306633700,7.0366337890625,0.696746826171875,-2.4984195232391357,0.6363003253936768
1683133649324474000,7.05447412109375,0.7982110977172852,-2.843021869659424,0.8159441947937012
1683133649342312200,7.072312255859375,0.7320175170898438,-2.715639352798462,0.6111205816268921
1683133649360148700,7.090148681640625,0.7426519393920898,-2.6148386001586914,0.8501125574111938
1683133649377988600,7.107988525390625,0.8454189300537109,-2.835373878479004,0.6733735799789429
1683133649395822300,7.125822265625,0.6560249328613281,-2.462218761444092,0.6564511656761169
1683133649413667600,7.14366748046875,0.9126310348510742,-2.9394803047180176,0.8181997537612915
1683133649431501600,7.16150146484375,0.6438541412353516,-2.427259922027588,0.6241947412490845
1683133649449341200,7.179341064453125,0.8280677795410156,-2.857393980026245,0.7942011952400208
1683133649467179000,7.197178955078125,0.6769485473632812,-2.589226245880127,0.6038122773170471
1683133649485017600,7.215017578125,0.7500333786010742,-2.6696760654449463,0.8470363616943359
1683133649502847000,7.232846923828125,0.8005895614624023,-2.7422406673431396,0.5933825969696045
1683133649520681700,7.250681640625,0.6562967300415039,-2.4972004890441895,0.7127554416656494
1683133649538531300,7.26853125,0.89459228515625,-2.8806731700897217,0.7968076467514038
1683133649556369400,7.286369384765625,0.641697883605957,-2.366854190826416,0.6082161068916321
1683133649574203400,7.304203369140625,0.8406953811645508,-2.8776144981384277,0.7878528833389282
1683133649592046600,7.322046630859375,0.6565923690795898,-2.472243309020996,0.5897122621536255
1683133649609884000,7.3398837890625,0.7518634796142578,-2.694279432296753,0.8299235105514526
1683133649627723300,7.35772314453125,0.721339225769043,-2.6638073921203613,0.5688337087631226
1683133649645550300,7.37555029296875,0.6712560653686523,-2.522580146789551,0.7662749290466309
1683133649663397400,7.3933974609375,0.8450775146484375,-2.7786927223205566,0.7089359164237976
1683133649681236500,7.411236572265625,0.6504640579223633,-2.364861249923706,0.6166365146636963
1683133649699079200,7.4290791015625,0.8256855010986328,-2.84739351272583,0.776566743850708
1683133649716901000,7.446901123046875,0.5945453643798828,-2.3785529136657715,0.5935097336769104
1683133649734752300,7.464752197265625,0.7722053527832031,-2.7581090927124023,0.7989766001701355
1683133649752588800,7.4825888671875,0.673884391784668,-2.5204999446868896,0.5860763788223267
1683133649770429400,7.500429443359375,0.6897621154785156,-2.5535614490509033,0.8185772895812988
1683133649788264700,7.5182646484375,0.7869672775268555,-2.6935484409332275,0.6021908521652222
1683133649806106400,7.5361064453125,0.6334781646728516,-2.3663389682769775,0.6635876297950745
1683133649823938000,7.55393798828125,0.8108692169189453,-2.808210849761963,0.7586625218391418
1683133649841781500,7.571781494140625,0.6005001068115234,-2.3183679580688477,0.5720902681350708
1683133649859618300,7.589618408203125,0.7741832733154297,-2.7799901962280273,0.775258481502533
1683133649877446100,7.607446044921875,0.6478891372680664,-2.411740303039551,0.5873405933380127
1683133649895291000,7.625290771484375,0.6918811798095703,-2.5868418216705322,0.7994092702865601
1683133649913135000,7.643135009765625,0.7235097885131836,-2.5940744876861572,0.5468413233757019
1683133649930971100,7.66097119140625,0.6660079956054688,-2.3720691204071045,0.7454339861869812
1683133649948809700,7.678809814453125,0.7924728393554688,-2.718064785003662,0.7207531332969666
1683133649966647300,7.696647216796875,0.5869817733764648,-2.298558235168457,0.562057614326477
1683133649984489700,7.71448974609375,0.7956476211547852,-2.74946928024292,0.7818246483802795
1683133650002324200,7.73232421875,0.5684738159179688,-2.2955594062805176,0.5812592506408691
1683133650020163600,7.75016357421875,0.7504959106445312,-2.6351962089538574,0.7930857539176941
1683133650037992000,7.767991943359375,0.6730461120605469,-2.4727649688720703,0.5415209531784058
1683133650055840800,7.7858408203125,0.6508617401123047,-2.42930006980896,0.7692211866378784
1683133650073677000,7.803677001953125,0.7548084259033203,-2.637990713119507,0.6280415058135986
1683133650091516000,7.821515869140625,0.5972156524658203,-2.2897000312805176,0.6020194292068481
1683133650109354500,7.8393544921875,0.7901830673217773,-2.7207822799682617,0.7573771476745605
1683133650127192800,7.85719287109375,0.5317783355712891,-2.22513747215271,0.5730077028274536
1683133650145025800,7.87502587890625,0.7576322555541992,-2.6588549613952637,0.7831953763961792
1683133650162869800,7.892869873046875,0.6350278854370117,-2.360851287841797,0.551038384437561
1683133650180707000,7.91070703125,0.6630353927612305,-2.4792425632476807,0.7689316272735596
1683133650198546700,7.928546630859375,0.6921262741088867,-2.5364489555358887,0.5466400980949402
1683133650216378000,7.946378173828125,0.5867719650268555,-2.290087938308716,0.6805523037910461
1683133650234222600,7.96422265625,0.7441930770874023,-2.6577401161193848,0.7089583873748779
1683133650252059400,7.982059326171875,0.5245485305786133,-2.1885056495666504,0.5399779081344604
1683133650269896700,7.999896728515625,0.7810554504394531,-2.6802926063537598,0.7611075639724731
1683133650287738600,8.017738525390625,0.5697546005249023,-2.235719919204712,0.5767531991004944
1683133650305575200,8.0355751953125,0.6618194580078125,-2.52751088142395,0.7482580542564392
1683133650323412500,8.05341259765625,0.6384754180908203,-2.4381887912750244,0.5322003960609436
1683133650341249800,8.071249755859375,0.6524667739868164,-2.3015995025634766,0.7615320086479187
1683133650359091200,8.08909130859375,0.691706657409668,-2.5563406944274902,0.6281528472900391
1683133650376928300,8.10692822265625,0.49993419647216797,-2.1990435123443604,0.5456080436706543
1683133650394764000,8.124763916015626,0.7837429046630859,-2.6467158794403076,0.7637437582015991
1683133650412608300,8.142608154296875,0.5200405120849609,-2.140401601791382,0.5641031861305237
1683133650430441700,8.160441650390625,0.6601114273071289,-2.56866717338562,0.7240819931030273
1683133650448280000,8.178280029296875,0.5852184295654297,-2.3209848403930664,0.5116400718688965
1683133650466105600,8.196105712890626,0.6432952880859375,-2.355699300765991,0.7704036831855774
1683133650483962000,8.213962158203126,0.6456422805786133,-2.476135730743408,0.5401204824447632
1683133650501793000,8.23179296875,0.5193653106689453,-2.204106330871582,0.6095671653747559
1683133650519634000,8.249634033203124,0.7706899642944336,-2.590815544128418,0.7363578677177429
1683133650537471000,8.267470947265625,0.49518871307373047,-2.0582456588745117,0.5459900498390198
1683133650555310800,8.285310791015625,0.7195329666137695,-2.5824785232543945,0.7179942727088928
1683133650573147400,8.3031474609375,0.5605583190917969,-2.2050585746765137,0.5230629444122314
1683133650590985700,8.32098583984375,0.5893621444702148,-2.415924549102783,0.7369217276573181
1683133650608825600,8.33882568359375,0.5864772796630859,-2.3809289932250977,0.4966847896575928
1683133650626663400,8.356663330078124,0.5606670379638672,-2.234029769897461,0.7017643451690674
1683133650644500700,8.374500732421875,0.6821022033691406,-2.4886536598205566,0.6327650547027588
1683133650662328300,8.392328369140625,0.480316162109375,-2.0774402618408203,0.5294409990310669
1683133650680179500,8.410179443359375,0.7519454956054688,-2.5702860355377197,0.7076888084411621
1683133650698013700,8.428013671875,0.49129486083984375,-2.0859203338623047,0.5304722189903259
1683133650715856400,8.4458564453125,0.6413211822509766,-2.471254348754883,0.6990364193916321
1683133650733693000,8.46369287109375,0.5609569549560547,-2.27754282951355,0.4999704957008362
1683133650751529700,8.48152978515625,0.5693550109863281,-2.2531518936157227,0.7467079162597656
1683133650769355000,8.49935498046875,0.6482601165771484,-2.4025683403015137,0.5367720127105713
1683133650787206400,8.517206298828125,0.48935890197753906,-2.0955028533935547,0.5796462893486023
1683133650805046000,8.5350458984375,0.7359161376953125,-2.530139923095703,0.7132136225700378
1683133650822879700,8.552879638671875,0.4836263656616211,-2.0271620750427246,0.5064346790313721
1683133650840725500,8.5707255859375,0.6635017395019531,-2.489130735397339,0.702781081199646
1683133650858559000,8.58855908203125,0.5139255523681641,-2.1442527770996094,0.49184125661849976
1683133650876398600,8.606398681640625,0.5855207443237305,-2.2978997230529785,0.7347263097763062
1683133650894235600,8.624235595703125,0.5909032821655273,-2.31925630569458,0.4725518226623535
1683133650912074000,8.642073974609374,0.5303049087524414,-2.123927354812622,0.6521070599555969
1683133650929913000,8.6599130859375,0.6950998306274414,-2.456404209136963,0.6645436882972717
1683133650947748600,8.67774853515625,0.4864368438720703,-1.9920743703842163,0.5093250274658203
1683133650965591600,8.695591552734374,0.7153291702270508,-2.4867756366729736,0.6818983554840088
1683133650983428000,8.713427978515625,0.4366645812988281,-2.039278984069824,0.49191755056381226
1683133651001264600,8.7312646484375,0.5936098098754883,-2.3525211811065674,0.736707329750061
1683133651019090200,8.749090087890625,0.5721025466918945,-2.2043464183807373,0.4622507095336914
1683133651036943600,8.766943603515625,0.5191335678100586,-2.1550073623657227,0.6819298267364502
1683133651054780700,8.78478076171875,0.6401071548461914,-2.3497636318206787,0.5403581261634827
1683133651072618000,8.802617919921875,0.48819637298583984,-1.986804485321045,0.5544255971908569
1683133651090457300,8.820457275390625,0.6764774322509766,-2.444620132446289,0.6768007278442383
1683133651108293400,8.83829345703125,0.41355228424072266,-1.9694737195968628,0.4927169382572174
1683133651126134800,8.856134765625,0.6463861465454102,-2.385629415512085,0.6804767847061157
1683133651143961900,8.8739619140625,0.5015439987182617,-2.0740103721618652,0.49172163009643555
1683133651161807600,8.8918076171875,0.528717041015625,-2.218773365020752,0.7047847509384155
1683133651179650000,8.909650146484376,0.597722053527832,-2.2419559955596924,0.46299880743026733
1683133651197486600,8.927486572265625,0.4938325881958008,-2.009068250656128,0.6185979247093201
1683133651215323400,8.945323486328125,0.6556882858276367,-2.387651205062866,0.6335530877113342
1683133651233155000,8.963155029296875,0.41757774353027344,-1.935694694519043,0.45444026589393616
1683133651251003600,8.981003662109375,0.6359367370605469,-2.4047200679779053,0.6817580461502075
1683133651268840200,8.998840087890626,0.4266958236694336,-1.962200403213501,0.48692259192466736
1683133651286676500,9.016676513671875,0.5563783645629883,-2.261965274810791,0.6902714371681213
1683133651304515800,9.034515869140625,0.5493030548095703,-2.166654109954834,0.44297683238983154
1683133651322353200,9.052353271484375,0.5016317367553711,-2.0434844493865967,0.6776613593101501
1683133651340192800,9.07019287109375,0.6029596328735352,-2.2918524742126465,0.5478622913360596
1683133651358029600,9.088029541015626,0.4400472640991211,-1.9467862844467163,0.5041593313217163
1683133651375855900,9.10585595703125,0.6508455276489258,-2.3741164207458496,0.6725828647613525
1683133651393707000,9.12370703125,0.39496803283691406,-1.8588255643844604,0.48640498518943787
1683133651411545600,9.141545654296875,0.6142196655273438,-2.3137741088867188,0.6845844984054565
1683133651429382700,9.159382568359375,0.48223018646240234,-2.007002830505371,0.46125954389572144
1683133651447221800,9.1772216796875,0.5163373947143555,-2.1168935298919678,0.6612064838409424
1683133651465059300,9.195059326171876,0.5444507598876953,-2.2062716484069824,0.45316556096076965
1683133651482898400,9.2128984375,0.4423503875732422,-1.9437252283096313,0.5798571705818176
1683133651500735500,9.230735595703125,0.6063661575317383,-2.299243688583374,0.6166035532951355
1683133651518572000,9.248572021484375,0.39792633056640625,-1.84187650680542,0.4562831223011017
1683133651536412000,9.266411865234375,0.6373214721679688,-2.3277430534362793,0.6634076833724976
1683133651554249700,9.284249755859374,0.4418830871582031,-1.8857121467590332,0.4761226773262024
1683133651572087800,9.302087890625,0.5334367752075195,-2.2080109119415283,0.633338987827301
1683133651589928400,9.319928466796876,0.4628791809082031,-2.092008113861084,0.4351062476634979
1683133651607764200,9.33776416015625,0.4901552200317383,-1.9712450504302979,0.6653134226799011
1683133651625605400,9.35560546875,0.588526725769043,-2.206303834915161,0.5253034234046936
1683133651643440600,9.373440673828124,0.3631916046142578,-1.8619239330291748,0.46580740809440613
1683133651661280500,9.391280517578124,0.6438493728637695,-2.3113832473754883,0.6699929237365723
1683133651679103700,9.409103759765625,0.39827919006347656,-1.770524501800537,0.4576972723007202
1683133651696958500,9.42695849609375,0.5482292175292969,-2.2404589653015137,0.629492998123169
1683133651714782500,9.444782470703124,0.4286661148071289,-1.9641528129577637,0.4247843623161316
1683133651732633900,9.4626337890625,0.4922323226928711,-2.0230979919433594,0.6763735413551331
1683133651750471000,9.480470947265625,0.5132007598876953,-2.1200525760650635,0.4304273724555969
1683133651768294700,9.498294677734375,0.39957427978515625,-1.8759446144104004,0.5532230138778687
1683133651786147600,9.516147705078126,0.6204767227172852,-2.2256019115448,0.6255424618721008
1683133651803983600,9.533983642578125,0.38243865966796875,-1.73677396774292,0.4600237011909485
1683133651821827000,9.5518271484375,0.6177902221679688,-2.2511658668518066,0.6166821122169495
1683133651839663000,9.5696630859375,0.37558650970458984,-1.8309773206710815,0.4363134503364563
1683133651857499600,9.587499755859374,0.5093660354614258,-2.1002871990203857,0.6359700560569763
1683133651875334700,9.605334716796875,0.46875762939453125,-2.0275068283081055,0.4020228981971741
1683133651893176600,9.623176513671876,0.41858863830566406,-1.9073247909545898,0.6416114568710327
1683133651911016400,9.641016357421876,0.5571832656860352,-2.1379947662353516,0.5085189342498779
1683133651928851700,9.658851806640625,0.39014625549316406,-1.74481201171875,0.46587154269218445
1683133651946680600,9.6766806640625,0.6178226470947266,-2.233933448791504,0.6186622977256775
1683133651964531200,9.69453125,0.3565988540649414,-1.741891860961914,0.44058334827423096
1683133651982369000,9.712369140625,0.5481863021850586,-2.1622321605682373,0.6083739995956421
1683133652000204300,9.730204345703125,0.40617847442626953,-1.8860149383544922,0.4280887842178345
1683133652018046500,9.74804638671875,0.45667266845703125,-1.9723320007324219,0.6617097854614258
1683133652035879000,9.76587890625,0.518366813659668,-2.038801431655884,0.40181344747543335
1683133652053725400,9.783725341796876,0.3868265151977539,-1.7643852233886719,0.5317202806472778
1683133652071555300,9.801555419921876,0.6221523284912109,-2.1858127117156982,0.6053944230079651
1683133652089401600,9.819401611328125,0.3699808120727539,-1.6822453737258911,0.4115339517593384
1683133652107235300,9.8372353515625,0.5425043106079102,-2.177044153213501,0.6004661321640015
1683133652125071400,9.8550712890625,0.3627777099609375,-1.7830173969268799,0.3992531895637512
1683133652142914800,9.872914794921876,0.4858827590942383,-2.01235294342041,0.6519579291343689
1683133652160750800,9.890750732421875,0.43929576873779297,-1.9633660316467285,0.37978583574295044
1683133652178588000,9.908587890625,0.40859317779541016,-1.8429222106933594,0.5953835844993591
1683133652196423000,9.9264228515625,0.5682106018066406,-2.0739240646362305,0.5066277980804443
1683133652214264600,9.9442646484375,0.36736297607421875,-1.6804864406585693,0.4321536123752594
1683133652232104200,9.962104248046876,0.5650043487548828,-2.161917209625244,0.5850468277931213
1683133652249940000,9.97993994140625,0.3283061981201172,-1.6650128364562988,0.40917474031448364
1683133652267782000,9.997781982421875,0.5166940689086914,-2.081472635269165,0.6294280886650085
1683133652285617700,10.01561767578125,0.39870357513427734,-1.8184736967086792,0.4017693102359772
1683133652303456800,10.033456787109374,0.42815399169921875,-1.8912756443023682,0.6186696290969849
1683133652321294800,10.051294921875,0.5018463134765625,-1.98697030544281,0.3981891870498657
1683133652339135000,10.069135009765626,0.3764982223510742,-1.696837306022644,0.5186824798583984
1683133652356970500,10.086970458984375,0.5402202606201172,-2.104532241821289,0.5716772079467773
1683133652374809600,10.1048095703125,0.3139181137084961,-1.6406567096710205,0.401801198720932
1683133652392647200,10.122647216796874,0.5402822494506836,-2.097363233566284,0.6088027954101562
1683133652410486500,10.140486572265624,0.3497772216796875,-1.6787009239196777,0.40359699726104736
1683133652428322300,10.158322265625,0.45086669921875,-1.9487593173980713,0.6046909689903259
1683133652446163700,10.176163818359376,0.4378786087036133,-1.8750072717666626,0.36461275815963745
1683133652463999700,10.193999755859375,0.38924503326416016,-1.7312942743301392,0.5945035219192505
1683133652481839400,10.21183935546875,0.507380485534668,-2.0127546787261963,0.4949936866760254
1683133652499676200,10.22967626953125,0.3247833251953125,-1.6512913703918457,0.41630563139915466
1683133652517515800,10.247515869140624,0.5449228286743164,-2.092801570892334,0.612122118473053
1683133652535349500,10.265349609375,0.3205986022949219,-1.5703399181365967,0.405882328748703
1683133652553195300,10.2831953125,0.4840545654296875,-2.0154190063476562,0.5883987545967102
1683133652571028000,10.301028076171875,0.38751888275146484,-1.7551432847976685,0.36940836906433105
1683133652588870000,10.318869873046875,0.4059457778930664,-1.8208332061767578,0.6099288463592529
1683133652606705700,10.33670556640625,0.4640951156616211,-1.9141020774841309,0.4030283987522125
1683133652624545300,10.354545166015624,0.33027172088623047,-1.6595618724822998,0.46448856592178345
1683133652642380500,10.372380615234375,0.5364294052124023,-2.0362398624420166,0.5530979633331299
1683133652660222500,10.390222412109376,0.2858867645263672,-1.527199387550354,0.38428813219070435
1683133652678058500,10.40805859375,0.5362968444824219,-2.039231777191162,0.5907102227210999
1683133652695898000,10.425898193359375,0.33084869384765625,-1.625376582145691,0.3908974230289459
1683133652713731000,10.44373095703125,0.4296302795410156,-1.8805086612701416,0.5698522329330444
1683133652731574500,10.461574462890624,0.3946523666381836,-1.8328206539154053,0.3501741886138916
1683133652749411300,10.479411376953125,0.36963844299316406,-1.6642693281173706,0.5645139813423157
1683133652767251200,10.497251220703125,0.46767139434814453,-1.9372260570526123,0.47506165504455566
1683133652785087500,10.51508740234375,0.27902984619140625,-1.5466493368148804,0.3948320746421814
1683133652802927400,10.53292724609375,0.5746622085571289,-2.0182971954345703,0.5928579568862915
1683133652820764200,10.55076416015625,0.2912769317626953,-1.5183806419372559,0.3899986743927002
1683133652838604300,10.568604248046874,0.4154214859008789,-1.9376367330551147,0.5480031967163086
1683133652856441000,10.586441162109375,0.39156341552734375,-1.7215502262115479,0.3618743121623993
1683133652874280200,10.6042802734375,0.3677549362182617,-1.7160918712615967,0.606467068195343
1683133652892116000,10.622115966796875,0.40174007415771484,-1.8635852336883545,0.3775480091571808
1683133652909958100,10.639958251953125,0.33771324157714844,-1.5638272762298584,0.43243151903152466
1683133652927793700,10.657793701171874,0.5196495056152344,-1.9756807088851929,0.5725245475769043
1683133652945633000,10.675633056640624,0.2614316940307617,-1.455626130104065,0.382879376411438
1683133652963462400,10.69346240234375,0.5097970962524414,-1.9567489624023438,0.538402259349823
1683133652981312500,10.7113125,0.30197715759277344,-1.598367691040039,0.3457636535167694
1683133652999146200,10.729146240234375,0.3794689178466797,-1.791877269744873,0.5943905711174011
1683133653016985600,10.746985595703125,0.3963642120361328,-1.7582160234451294,0.3391028046607971
1683133653034823200,10.7648232421875,0.3064403533935547,-1.6051661968231201,0.5196182727813721
1683133653052651000,10.782651123046875,0.47237300872802734,-1.9030404090881348,0.47568848729133606
1683133653070499300,10.800499267578125,0.3147268295288086,-1.4418745040893555,0.3813372552394867
1683133653088325000,10.8183251953125,0.5011529922485352,-1.9619054794311523,0.545086681842804
1683133653106176800,10.8361767578125,0.24371623992919922,-1.4971153736114502,0.3672025799751282
1683133653124013300,10.854013427734374,0.4395112991333008,-1.842602252960205,0.5376436710357666
1683133653141855500,10.87185546875,0.3329906463623047,-1.6612160205841064,0.3368673324584961
1683133653159691300,10.889691162109376,0.3350048065185547,-1.6466174125671387,0.5936069488525391
1683133653177526000,10.907526123046875,0.4533681869506836,-1.7899714708328247,0.3782254755496979
1683133653195368400,10.925368408203125,0.2967081069946289,-1.4636281728744507,0.42375659942626953
1683133653213200100,10.9432001953125,0.5203857421875,-1.9423035383224487,0.5354577302932739
1683133653231044900,10.961044921875,0.26669788360595703,-1.4110596179962158,0.3349856436252594
1683133653248882000,10.9788818359375,0.4577369689941406,-1.8783024549484253,0.5350691676139832
1683133653266721300,10.99672119140625,0.2745170593261719,-1.5447052717208862,0.3402077555656433
1683133653284553500,11.014553466796874,0.39484119415283203,-1.7046241760253906,0.5816947221755981
1683133653302397700,11.032397705078125,0.37928104400634766,-1.7094916105270386,0.3170974850654602
1683133653320235000,11.050235107421875,0.28401660919189453,-1.5234017372131348,0.4927278459072113
1683133653338074000,11.06807421875,0.49314022064208984,-1.8590097427368164,0.49540993571281433
1683133653355911200,11.0859111328125,0.26402950286865234,-1.4018791913986206,0.3487401008605957
1683133653373750500,11.10375048828125,0.4699983596801758,-1.9029101133346558,0.515600323677063
1683133653391587600,11.121587646484375,0.24083805084228516,-1.416678547859192,0.33051297068595886
1683133653409426200,11.13942626953125,0.3881254196166992,-1.7733925580978394,0.575390100479126
1683133653427264500,11.157264404296875,0.3421440124511719,-1.6030243635177612,0.30449968576431274
1683133653445103400,11.175103271484375,0.3282146453857422,-1.5800431966781616,0.5277813076972961
1683133653462940200,11.192940185546876,0.423980712890625,-1.755911111831665,0.37355363368988037
1683133653480780000,11.210780029296876,0.254150390625,-1.4279701709747314,0.39987531304359436
1683133653498616300,11.2286162109375,0.4612455368041992,-1.8481369018554688,0.5171453356742859
1683133653516456000,11.2464560546875,0.20671844482421875,-1.3747026920318604,0.3237602710723877
1683133653534288400,11.264288330078125,0.42755889892578125,-1.8142914772033691,0.5286784172058105
1683133653552130300,11.28213037109375,0.30303287506103516,-1.4574733972549438,0.3324008584022522
1683133653569972200,11.29997216796875,0.3432931900024414,-1.6638543605804443,0.5506210327148438
1683133653587808800,11.317808837890626,0.3704853057861328,-1.6578761339187622,0.30469876527786255
1683133653605641500,11.335641357421874,0.30745983123779297,-1.4372963905334473,0.47929659485816956
1683133653623486000,11.35348583984375,0.4254121780395508,-1.7865947484970093,0.46043694019317627
1683133653641322200,11.371322265625,0.221435546875,-1.3592358827590942,0.2951030135154724
1683133653659160300,11.389160400390624,0.46021556854248047,-1.8117666244506836,0.540885329246521
1683133653677000000,11.407,0.21447086334228516,-1.3526949882507324,0.3348492980003357
1683133653694826500,11.424826416015625,0.3759784698486328,-1.6972682476043701,0.518224835395813
1683133653712671500,11.44267138671875,0.3119087219238281,-1.5373094081878662,0.2876651883125305
1683133653730509800,11.460509765625,0.31407928466796875,-1.4989609718322754,0.527241051197052
1683133653748352000,11.47835205078125,0.39348888397216797,-1.7006070613861084,0.3651149868965149
1683133653766192600,11.496192626953125,0.22070884704589844,-1.371553659439087,0.3543863892555237
1683133653784028000,11.51402783203125,0.4612283706665039,-1.8002281188964844,0.5229324102401733
1683133653801867800,11.53186767578125,0.21234512329101562,-1.2759140729904175,0.32800599932670593
1683133653819703600,11.54970361328125,0.41060733795166016,-1.7408647537231445,0.5157337188720703
1683133653837545500,11.56754541015625,0.2618827819824219,-1.426956057548523,0.3097885847091675
1683133653855376100,11.585376220703125,0.3333320617675781,-1.5683441162109375,0.525313138961792
1683133653873219000,11.603218994140626,0.33014678955078125,-1.6061358451843262,0.29601991176605225
1683133653891057700,11.6210576171875,0.24320220947265625,-1.4071691036224365,0.4486282169818878
1683133653908897300,11.638897216796876,0.41260623931884766,-1.716651439666748,0.4513578712940216
1683133653926729000,11.65672900390625,0.21306800842285156,-1.2583165168762207,0.3090561330318451
1683133653944561700,11.674561767578124,0.44410228729248047,-1.7675361633300781,0.5099844336509705
1683133653962410200,11.69241015625,0.21773433685302734,-1.3068175315856934,0.3239596486091614
1683133653980248600,11.71024853515625,0.35279369354248047,-1.6379932165145874,0.47812676429748535
1683133653998087700,11.728087646484376,0.28032875061035156,-1.5246280431747437,0.2744556963443756
1683133654015925800,11.74592578125,0.27472877502441406,-1.4107496738433838,0.5262840986251831
1683133654033762800,11.7637626953125,0.36251163482666016,-1.630699634552002,0.36459439992904663
1683133654051602000,11.781601806640625,0.1838521957397461,-1.2844430208206177,0.3306542932987213
1683133654069440500,11.7994404296875,0.4538154602050781,-1.745661973953247,0.5195857882499695
1683133654087267000,11.81726708984375,0.20449066162109375,-1.2407828569412231,0.3048192858695984
1683133654105116000,11.835115966796875,0.3632831573486328,-1.676781177520752,0.46920493245124817
1683133654122956000,11.8529560546875,0.26340770721435547,-1.400739312171936,0.28090915083885193
1683133654140792000,11.8707919921875,0.30383872985839844,-1.469190001487732,0.5439459085464478
1683133654158632000,11.8886318359375,0.32418060302734375,-1.5555047988891602,0.2780083417892456
1683133654176464400,11.90646435546875,0.22644329071044922,-1.331176996231079,0.3981764316558838
1683133654194296600,11.924296630859375,0.43925952911376953,-1.681099534034729,0.47108006477355957
1683133654212145200,11.942145263671875,0.19210147857666016,-1.1712415218353271,0.30395108461380005
1683133654229973000,11.959972900390625,0.44077014923095703,-1.7038154602050781,0.4700230658054352
1683133654247822300,11.977822265625,0.20922374725341797,-1.2793166637420654,0.2788039445877075
1683133654265660700,11.99566064453125,0.31052684783935547,-1.546134352684021,0.5076292753219604
1683133654283498500,12.01349853515625,0.2666206359863281,-1.4695236682891846,0.2655714154243469
1683133654301336300,12.03133642578125,0.2485036849975586,-1.370056390762329,0.47521835565567017
1683133654319176000,12.049176025390626,0.3841571807861328,-1.5992918014526367,0.3601231276988983
1683133654337014500,12.0670146484375,0.2047290802001953,-1.1828749179840088,0.3182085156440735
1683133654354850800,12.084850830078125,0.43896961212158203,-1.690242886543274,0.4705018997192383
1683133654372687000,12.10268701171875,0.16112613677978516,-1.1900554895401,0.3007086515426636
1683133654390527500,12.120527587890624,0.3469381332397461,-1.6128761768341064,0.46699395775794983
1683133654408360400,12.1383603515625,0.2277507781982422,-1.3552125692367554,0.2742954194545746
1683133654426203400,12.156203369140625,0.2661008834838867,-1.4120711088180542,0.5130521059036255
1683133654444041500,12.17404150390625,0.3443317413330078,-1.503042221069336,0.2720952033996582
1683133654461883100,12.191883056640625,0.2082681655883789,-1.230008602142334,0.3821880519390106
1683133654479720000,12.209719970703125,0.41547107696533203,-1.6467649936676025,0.44922736287117004
1683133654497556700,12.227556640625,0.18872833251953125,-1.1700940132141113,0.2548661231994629
1683133654515399000,12.24539892578125,0.3692054748535156,-1.6387945413589478,0.4700034260749817
1683133654533233000,12.26323291015625,0.1908245086669922,-1.2398627996444702,0.2684018015861511
1683133654551072800,12.28107275390625,0.31273651123046875,-1.4838354587554932,0.501871645450592
1683133654568909300,12.298909423828125,0.2927999496459961,-1.4160228967666626,0.24819979071617126
1683133654586748700,12.316748779296875,0.2340860366821289,-1.2762136459350586,0.4554610550403595
1683133654604586000,12.3345859375,0.38005924224853516,-1.5538361072540283,0.37317702174186707
1683133654622425000,12.352425048828126,0.21810531616210938,-1.1655054092407227,0.27808356285095215
1683133654640250600,12.370250732421875,0.41446685791015625,-1.6234296560287476,0.4579159915447235
1683133654658087000,12.3880869140625,0.12897109985351562,-1.1312962770462036,0.27906182408332825
1683133654675929900,12.405929931640625,0.3421916961669922,-1.551049828529358,0.49996519088745117
1683133654693774300,12.4237744140625,0.2569894790649414,-1.2818059921264648,0.24800485372543335
1683133654711614700,12.44161474609375,0.240234375,-1.359328031539917,0.46267837285995483
1683133654729454300,12.459454345703126,0.3017873764038086,-1.4772087335586548,0.2666674852371216
1683133654747291600,12.477291748046875,0.21803569793701172,-1.1767780780792236,0.3604642152786255
1683133654765131300,12.49513134765625,0.3625669479370117,-1.582842469215393,0.43293318152427673
1683133654782968000,12.512968017578125,0.12617206573486328,-1.1152195930480957,0.24588629603385925
1683133654800807200,12.53080712890625,0.37082386016845703,-1.5749348402023315,0.45992329716682434
1683133654818644500,12.54864453125,0.2053546905517578,-1.1798564195632935,0.27410176396369934
1683133654836484000,12.566484130859376,0.2561016082763672,-1.4317235946655273,0.46593064069747925
1683133654854318000,12.584318115234375,0.2856483459472656,-1.3706132173538208,0.23362715542316437
1683133654872162600,12.60216259765625,0.21092796325683594,-1.2040033340454102,0.45640817284584045
1683133654889995000,12.6199951171875,0.3394021987915039,-1.5057908296585083,0.35956716537475586
1683133654907839200,12.637839111328125,0.15517520904541016,-1.1265537738800049,0.24819761514663696
1683133654925670700,12.655670654296875,0.4035682678222656,-1.568126916885376,0.4784069061279297
1683133654943511000,12.673510986328125,0.14693450927734375,-1.073507308959961,0.27106842398643494
1683133654961350000,12.691349853515625,0.2963438034057617,-1.4919618368148804,0.4441009759902954
1683133654979189500,12.709189453125,0.2573986053466797,-1.267122745513916,0.23278912901878357
1683133654997025800,12.72702587890625,0.22774314880371094,-1.2595160007476807,0.47932711243629456
1683133655014860800,12.74486083984375,0.2770214080810547,-1.4228224754333496,0.27305155992507935
1683133655032699100,12.76269921875,0.1761026382446289,-1.135514497756958,0.31691989302635193
1683133655050542600,12.78054248046875,0.3837423324584961,-1.5363659858703613,0.437741219997406
1683133655068376300,12.798376220703124,0.11188697814941406,-1.0158859491348267,0.25730445981025696
1683133655086221600,12.8162216796875,0.36032676696777344,-1.5306875705718994,0.44630569219589233
1683133655104055600,12.8340556640625,0.19355106353759766,-1.1556490659713745,0.24271221458911896
1683133655121895200,12.851895263671874,0.25560951232910156,-1.3515655994415283,0.4470667839050293
1683133655139718700,12.86971875,0.2376728057861328,-1.345892071723938,0.2251935601234436
1683133655157574100,12.88757421875,0.18746376037597656,-1.1702145338058472,0.41920509934425354
1683133655175408400,12.905408447265625,0.32968807220458984,-1.4614531993865967,0.3607994616031647
1683133655193247700,12.923247802734375,0.12595748901367188,-1.0288769006729126,0.2418210208415985
1683133655211085300,12.941085205078124,0.4043769836425781,-1.5327084064483643,0.4365861117839813
1683133655228922600,12.958922607421876,0.1438884735107422,-1.0378198623657227,0.25901973247528076
1683133655246749200,12.976749267578125,0.28464508056640625,-1.412677526473999,0.4136642515659332
1683133655264596000,12.994595947265625,0.19335269927978516,-1.245995283126831,0.22067493200302124
1683133655282437400,13.012437255859375,0.21713829040527344,-1.211019515991211,0.454763799905777
1683133655300277000,13.030277099609375,0.2904319763183594,-1.3620216846466064,0.2640991508960724
1683133655318114000,13.048114013671874,0.13603591918945312,-1.0762088298797607,0.2944422662258148
1683133655335949000,13.065948974609375,0.38590526580810547,-1.5052533149719238,0.4403564929962158
1683133655353790200,13.083790283203125,0.14209938049316406,-0.9782878160476685,0.2369389533996582
1683133655371629600,13.101629638671875,0.31528663635253906,-1.471954107284546,0.4164802134037018
1683133655389465300,13.11946533203125,0.1603689193725586,-1.1458690166473389,0.2235003560781479
1683133655407307300,13.137307373046875,0.23544597625732422,-1.2720962762832642,0.47424250841140747
1683133655425142800,13.155142822265624,0.24041175842285156,-1.3184056282043457,0.19395314157009125
1683133655442982400,13.172982421875,0.16043758392333984,-1.1028926372528076,0.3651091754436493
1683133655460819700,13.19081982421875,0.37275028228759766,-1.4300285577774048,0.3812747895717621
1683133655478659000,13.2086591796875,0.1262044906616211,-0.959363579750061,0.24436073005199432
1683133655496495600,13.22649560546875,0.38429832458496094,-1.4614028930664062,0.4093177616596222
1683133655514335000,13.2443349609375,0.1351337432861328,-1.0327949523925781,0.21990877389907837
1683133655532172500,13.262172607421874,0.26141357421875,-1.3495235443115234,0.44522303342819214
1683133655550012000,13.280011962890624,0.21169471740722656,-1.1932493448257446,0.2049570381641388
1683133655567832600,13.29783251953125,0.20424652099609375,-1.1547865867614746,0.4359678328037262
1683133655585683200,13.31568310546875,0.3057565689086914,-1.3386406898498535,0.2743286192417145
1683133655603525400,13.333525390625,0.1516132354736328,-0.9732153415679932,0.28192365169525146
1683133655621364500,13.351364501953125,0.36554908752441406,-1.458908200263977,0.41070449352264404
1683133655639201300,13.369201171875,0.10532665252685547,-0.95249342918396,0.2236534059047699
1683133655657028900,13.38702880859375,0.31200122833251953,-1.410064697265625,0.40411317348480225
1683133655674877700,13.404877685546875,0.174285888671875,-1.0883204936981201,0.2203415334224701
1683133655692712200,13.422712158203124,0.18815326690673828,-1.2108385562896729,0.4473845958709717
1683133655710548500,13.440548583984375,0.26878929138183594,-1.2751750946044922,0.20095054805278778
1683133655728379400,13.45837939453125,0.1874837875366211,-1.002814531326294,0.35006922483444214
1683133655746230500,13.47623046875,0.33539867401123047,-1.3936078548431396,0.36939916014671326
1683133655764067300,13.4940673828125,0.1209564208984375,-0.9463236331939697,0.18839243054389954
1683133655781899800,13.511899658203125,0.32173824310302734,-1.4068775177001953,0.408916175365448
1683133655799746600,13.52974658203125,0.1091156005859375,-0.99345862865448,0.21931014955043793
1683133655817583600,13.54758349609375,0.2529411315917969,-1.2759754657745361,0.4337632358074188
1683133655835423000,13.565423095703125,0.23723316192626953,-1.1728708744049072,0.17402730882167816
1683133655853259300,13.58325927734375,0.1808624267578125,-1.0751806497573853,0.3959003984928131
1683133655871097900,13.601097900390625,0.3056192398071289,-1.3152422904968262,0.3084779977798462
1683133655888937500,13.6189375,0.1419229507446289,-0.9443848133087158,0.2293967604637146
1683133655906767400,13.636767333984375,0.3409757614135742,-1.405362844467163,0.3999221920967102
1683133655924615700,13.65461572265625,0.0637655258178711,-0.9100222587585449,0.214495450258255
1683133655942448600,13.67244873046875,0.30069923400878906,-1.3133862018585205,0.42191624641418457
1683133655960291800,13.690291748046874,0.1921863555908203,-1.0690579414367676,0.1858510971069336
1683133655978128600,13.708128662109376,0.1904430389404297,-1.1379425525665283,0.4147348701953888
1683133655995965000,13.72596484375,0.26775646209716797,-1.2489653825759888,0.20660534501075745
1683133656013804300,13.74380419921875,0.15006637573242188,-0.961949348449707,0.3117712736129761
1683133656031640600,13.761640625,0.30024147033691406,-1.3562484979629517,0.37142378091812134
1683133656049482500,13.779482421875,0.09400749206542969,-0.891188383102417,0.19780804216861725
1683133656067317800,13.79731787109375,0.3255729675292969,-1.3545384407043457,0.40135565400123596
1683133656085157400,13.815157470703125,0.11801433563232422,-0.9487123489379883,0.21261939406394958
1683133656102994700,13.83299462890625,0.23307228088378906,-1.2078285217285156,0.3926849067211151
1683133656120834000,13.850833984375,0.20942974090576172,-1.1604955196380615,0.1738853007555008
1683133656138670300,13.86867041015625,0.1538076400756836,-0.9910241365432739,0.38800838589668274
1683133656156510200,13.88651025390625,0.2869253158569336,-1.2823035717010498,0.3037019968032837
1683133656174335200,13.904335205078125,0.08898735046386719,-0.9107873439788818,0.1938774585723877
1683133656192187000,13.922186767578125,0.34005260467529297,-1.3553489446640015,0.41676396131515503
1683133656210022000,13.94002197265625,0.08635997772216797,-0.853987455368042,0.20641176402568817
1683133656227862800,13.95786279296875,0.2529945373535156,-1.2706903219223022,0.38024747371673584
1683133656245699800,13.975699951171874,0.16974353790283203,-1.0514464378356934,0.1660863310098648
1683133656263536400,13.993536376953125,0.17956829071044922,-1.062106966972351,0.4140627980232239
1683133656281378600,14.011378662109376,0.24900245666503906,-1.2126710414886475,0.21394678950309753
1683133656299216000,14.0292158203125,0.0948019027709961,-0.9351271390914917,0.2510650157928467
1683133656317052700,14.047052734375,0.3183889389038086,-1.321058750152588,0.39308205246925354
1683133656334892300,14.064892333984375,0.08786678314208984,-0.7934678792953491,0.2132032960653305
1683133656352724700,14.082724853515625,0.3203239440917969,-1.3150901794433594,0.38676226139068604
1683133656370560300,14.100560302734374,0.1449909210205078,-0.9542843103408813,0.16890591382980347
1683133656388405200,14.1184052734375,0.20675945281982422,-1.1358745098114014,0.4034698009490967
1683133656406230800,14.136230712890624,0.18751049041748047,-1.1360965967178345,0.16390842199325562
1683133656424084000,14.154083984375,0.12140178680419922,-0.9539079666137695,0.34151673316955566
1683133656441921800,14.171921875,0.28923511505126953,-1.2549974918365479,0.318008691072464
1683133656459755000,14.189755126953125,0.06990242004394531,-0.8117760419845581,0.19473797082901
1683133656477600500,14.2076005859375,0.3422689437866211,-1.3274691104888916,0.37439969182014465
1683133656495434000,14.22543408203125,0.10142993927001953,-0.8387693166732788,0.19789090752601624
1683133656513273300,14.2432734375,0.22067642211914062,-1.203273057937622,0.3573797941207886
1683133656531110700,14.261110595703125,0.14954185485839844,-1.0542993545532227,0.16712747514247894
1683133656548947200,14.278947265625,0.16556644439697266,-0.9931291341781616,0.4085683226585388
1683133656566777900,14.29677783203125,0.24141502380371094,-1.1817967891693115,0.2232116311788559
1683133656584626200,14.314626220703126,0.07441043853759766,-0.8521360158920288,0.23420457541942596
1683133656602463500,14.33246337890625,0.3407154083251953,-1.290501356124878,0.3771098554134369
1683133656620303400,14.350303466796875,0.06837940216064453,-0.784716010093689,0.17590472102165222
1683133656638139600,14.3681396484375,0.2558307647705078,-1.249169111251831,0.3552318215370178
1683133656655979000,14.38597900390625,0.15144824981689453,-0.9493758678436279,0.175339937210083
1683133656673808400,14.403808349609376,0.16677474975585938,-1.0490458011627197,0.4090297222137451
1683133656691655700,14.42165576171875,0.1980571746826172,-1.1089146137237549,0.13766656816005707
1683133656709493500,14.439493408203125,0.12452030181884766,-0.8883261680603027,0.28606098890304565
1683133656727331800,14.457331787109375,0.2916450500488281,-1.2431135177612305,0.3320360481739044
1683133656745168600,14.475168701171874,0.0737161636352539,-0.7661923170089722,0.17982175946235657
1683133656763008800,14.4930087890625,0.2938575744628906,-1.2738783359527588,0.34809988737106323
1683133656780844800,14.5108447265625,0.06467819213867188,-0.8482016324996948,0.16002166271209717
1683133656798683400,14.528683349609375,0.2037496566772461,-1.12484610080719,0.4006531834602356
1683133656816522800,14.546522705078125,0.16186237335205078,-1.0209071636199951,0.1451643407344818
1683133656834361300,14.564361328125,0.1349649429321289,-0.9416210651397705,0.35400527715682983
1683133656852197600,14.58219775390625,0.26311492919921875,-1.1686030626296997,0.2405250519514084
1683133656870034200,14.6000341796875,0.08911323547363281,-0.7653090953826904,0.22038811445236206
1683133656887877400,14.61787744140625,0.3097238540649414,-1.2546312808990479,0.34834611415863037
1683133656905709300,14.635709228515625,0.06724929809570312,-0.7687077522277832,0.16682396829128265
1683133656923552000,14.653552001953125,0.2289285659790039,-1.1928465366363525,0.3537259101867676
1683133656941389600,14.6713896484375,0.1434793472290039,-0.9193224906921387,0.1616138368844986
1683133656959229400,14.6892294921875,0.15738677978515625,-0.9973585605621338,0.3995758891105652
1683133656977066200,14.707066162109374,0.22549057006835938,-1.0965710878372192,0.16087128221988678
1683133656994898200,14.724898193359374,0.11312007904052734,-0.7900418043136597,0.2775871157646179
1683133657012738800,14.74273876953125,0.29335689544677734,-1.2294976711273193,0.3356471061706543
1683133657030579700,14.760579833984375,0.06280708312988281,-0.7538721561431885,0.13816680014133453
1683133657048412400,14.778412353515625,0.2652750015258789,-1.2023611068725586,0.3565627634525299
1683133657066257000,14.7962568359375,0.08375072479248047,-0.818453311920166,0.17041392624378204
1683133657084092400,14.814092529296875,0.18862628936767578,-1.0551774501800537,0.3698757290840149
1683133657101935000,14.83193505859375,0.1768054962158203,-1.0062477588653564,0.12900429964065552
1683133657119770600,14.8497705078125,0.11509227752685547,-0.8437895774841309,0.34062355756759644
1683133657137609500,14.867609375,0.28357696533203125,-1.1565313339233398,0.2632945775985718
1683133657155448000,14.885447998046875,0.06348037719726562,-0.7498786449432373,0.1572871059179306
1683133657173284600,14.90328466796875,0.2829551696777344,-1.2233538627624512,0.36127203702926636
1683133657191124500,14.92112451171875,0.05475807189941406,-0.7301245927810669,0.16089299321174622
1683133657208961000,14.9389609375,0.21354007720947266,-1.1011052131652832,0.37497395277023315
1683133657226800400,14.95680029296875,0.14973163604736328,-0.9131947755813599,0.1335357278585434
1683133657244637400,14.974637451171875,0.15593814849853516,-0.9109961986541748,0.3608952760696411
1683133657262480600,14.992480712890625,0.2095317840576172,-1.08023202419281,0.18042896687984467
1683133657280315000,15.01031494140625,0.11513710021972656,-0.7690691947937012,0.2287202924489975
1683133657298153500,15.028153564453126,0.27031898498535156,-1.1721138954162598,0.33814743161201477
1683133657315985400,15.0459853515625,0.030328750610351562,-0.688138484954834,0.14651888608932495
1683133657333829600,15.06382958984375,0.2747306823730469,-1.1629490852355957,0.3640967011451721
1683133657351666200,15.081666259765624,0.10395431518554688,-0.7961395978927612,0.14517466723918915
1683133657369503000,15.0995029296875,0.14255046844482422,-0.9911634922027588,0.34567272663116455
1683133657387345700,15.117345703125,0.1848621368408203,-1.0083942413330078,0.1219852864742279
1683133657405179100,15.13517919921875,0.1117105484008789,-0.7926194667816162,0.3074513077735901
1683133657423022000,15.15302197265625,0.2203969955444336,-1.1237847805023193,0.2740926742553711
1683133657440857900,15.17085791015625,0.04255390167236328,-0.699199914932251,0.14171871542930603
1683133657458696700,15.18869677734375,0.27521705627441406,-1.1701149940490723,0.3613797426223755
1683133657476535000,15.20653515625,0.04842948913574219,-0.695449948310852,0.16302242875099182
1683133657494371600,15.22437158203125,0.2062692642211914,-1.0593838691711426,0.3322690427303314
1683133657512210700,15.242210693359375,0.13562488555908203,-0.9129140377044678,0.1161753386259079
1683133657530048300,15.26004833984375,0.11750125885009766,-0.8320271968841553,0.363982617855072
1683133657547887900,15.277887939453125,0.2312450408935547,-1.0556788444519043,0.1905699223279953
1683133657565724700,15.295724609375,0.049185752868652344,-0.7281816005706787,0.17553755640983582
1683133657583564000,15.31356396484375,0.2986917495727539,-1.1482125520706177,0.3732007145881653
1683133657601400800,15.33140087890625,0.04285717010498047,-0.6339161396026611,0.16120293736457825
1683133657619240000,15.349239990234375,0.21453571319580078,-1.113316297531128,0.3379466235637665
1683133657637077000,15.367076904296875,0.09664344787597656,-0.807727575302124,0.12690088152885437
1683133657654916600,15.38491650390625,0.15025711059570312,-0.89674973487854,0.36897873878479004
1683133657672749800,15.402749755859375,0.16306114196777344,-0.9875619411468506,0.1427210420370102
1683133657690591700,15.420591796875,0.050881385803222656,-0.7429039478302002,0.22990158200263977
1683133657708430600,15.4384306640625,0.2819032669067383,-1.1115174293518066,0.2992408275604248
1683133657726269400,15.45626953125,0.011591911315917969,-0.6179699897766113,0.15277442336082458
1683133657744106200,15.474106201171875,0.26796722412109375,-1.1256853342056274,0.3296726942062378
1683133657761944000,15.491944091796874,0.0664987564086914,-0.7166241407394409,0.13143427670001984
1683133657779773000,15.50977294921875,0.16621112823486328,-0.9856202602386475,0.3275255858898163
1683133657797620500,15.527620361328125,0.12555599212646484,-0.9162507057189941,0.10896782577037811
1683133657815458800,15.545458740234375,0.11357784271240234,-0.7836829423904419,0.3324725925922394
1683133657833298200,15.563298095703125,0.21936798095703125,-1.0356791019439697,0.2233797013759613
1683133657851134500,15.581134521484374,0.022054672241210938,-0.6355195045471191,0.1569933146238327
1683133657868974600,15.598974609375,0.31976795196533203,-1.1383447647094727,0.3191598355770111
1683133657886807600,15.6168076171875,0.031258583068847656,-0.6335768699645996,0.14212754368782043
1683133657904654800,15.63465478515625,0.17576026916503906,-1.0423223972320557,0.2975073456764221
1683133657922475300,15.652475341796874,0.07769489288330078,-0.8219852447509766,0.12869814038276672
1683133657940327000,15.670326904296875,0.1303882598876953,-0.824677586555481,0.36497312784194946
1683133657958164000,15.6881640625,0.18957996368408203,-0.9482293128967285,0.13849952816963196
1683133657976003600,15.706003662109374,0.04491996765136719,-0.6784770488739014,0.19653773307800293
1683133657993828000,15.723828125,0.28588008880615234,-1.102104902267456,0.3127198815345764
1683133658011678000,15.741677978515625,0.045561790466308594,-0.5919291973114014,0.12092989683151245
1683133658029517600,15.759517578125,0.21225929260253906,-1.0818705558776855,0.312308669090271
1683133658047356000,15.77735595703125,0.05486583709716797,-0.7387586832046509,0.11669646203517914
1683133658065192400,15.7951923828125,0.16492080688476562,-0.8945684432983398,0.3522871732711792
1683133658083027200,15.813027099609375,0.1367940902709961,-0.8954302072525024,0.09322868287563324
1683133658100869000,15.830869140625,0.07787799835205078,-0.7333114147186279,0.2724300026893616
1683133658118708700,15.848708740234375,0.26812076568603516,-1.0376089811325073,0.2675427496433258
1683133658136544800,15.866544677734375,0.04147529602050781,-0.5919473171234131,0.1285468339920044
1683133658154385000,15.884385009765625,0.261077880859375,-1.0905959606170654,0.3061063289642334
1683133658172222000,15.902221923828124,0.04427909851074219,-0.6409389972686768,0.13588416576385498
1683133658190061300,15.920061279296876,0.19581317901611328,-0.9590916633605957,0.35850346088409424
1683133658207896600,15.937896484375,0.10445213317871094,-0.8006992340087891,0.08921632170677185
1683133658225738000,15.955738037109375,0.09778308868408203,-0.7798761129379272,0.3130820095539093
1683133658243574500,15.973574462890625,0.23393535614013672,-0.9657998085021973,0.16492950916290283
1683133658261414000,15.991413818359375,0.042906761169433594,-0.6007080078125,0.1796949803829193
1683133658279250400,16.00925048828125,0.24144840240478516,-1.0796105861663818,0.2922188937664032
1683133658297090000,16.027090087890624,0.026506423950195312,-0.5649386644363403,0.10709454119205475
1683133658314912500,16.04491259765625,0.1839132308959961,-1.0232387781143188,0.31130918860435486
1683133658332765700,16.062765625,0.06284427642822266,-0.7141916751861572,0.13308319449424744
1683133658350602800,16.080602783203126,0.1275787353515625,-0.8281651735305786,0.34071141481399536
1683133658368434000,16.098433837890624,0.18187713623046875,-0.8838765621185303,0.09616342186927795
1683133658386279200,16.116279052734374,0.07398319244384766,-0.6399259567260742,0.25415995717048645
1683133658404111400,16.134111328125,0.2589282989501953,-1.0184756517410278,0.2638876438140869
1683133658421958100,16.151958251953126,0.018973350524902344,-0.5755348205566406,0.09013909101486206
1683133658439783400,16.169783447265626,0.21872520446777344,-1.039608120918274,0.3206549882888794
1683133658457632300,16.18763232421875,0.027123451232910156,-0.6069905757904053,0.1260358691215515
1683133658475471600,16.2054716796875,0.1661977767944336,-0.9032721519470215,0.33204856514930725
1683133658493308200,16.22330810546875,0.1334362030029297,-0.8074325323104858,0.08121585845947266
1683133658511147500,16.2411474609375,0.09385204315185547,-0.6885337829589844,0.3011798858642578
1683133658528971500,16.258971435546876,0.22070026397705078,-0.9610261917114258,0.19819658994674683
1683133658546824200,16.27682421875,0.028367996215820312,-0.5811269283294678,0.12635165452957153
1683133658564666400,16.294666259765624,0.24576950073242188,-1.0424140691757202,0.31015855073928833
1683133658582499800,16.312499755859374,-0.001499176025390625,-0.5408233404159546,0.12725579738616943
1683133658600337400,16.33033740234375,0.17725753784179688,-0.9502928256988525,0.3262322247028351
1683133658618177300,16.34817724609375,0.09792232513427734,-0.709881067276001,0.08617168664932251
1683133658636012800,16.3660126953125,0.11969661712646484,-0.7601199150085449,0.31090784072875977
1683133658653847800,16.383847900390624,0.17488384246826172,-0.8815433979034424,0.1359788179397583
1683133658671689700,16.401689697265624,0.05983543395996094,-0.5995938777923584,0.21216830611228943
1683133658689529300,16.419529296875,0.210174560546875,-0.9962865114212036,0.2677778899669647
1683133658707366000,16.437365966796875,-0.020501136779785156,-0.5187022686004639,0.09370830655097961
1683133658725200400,16.455200439453126,0.2296466827392578,-1.0049357414245605,0.3061341643333435
1683133658743042600,16.47304248046875,0.05324268341064453,-0.5982956886291504,0.12083418667316437
1683133658760882000,16.4908818359375,0.13611412048339844,-0.8518404960632324,0.302328497171402
1683133658778717200,16.50871728515625,0.12044429779052734,-0.8084380626678467,0.07982420921325684
1683133658796558800,16.526558837890626,0.08648300170898438,-0.6368106603622437,0.2818101644515991
1683133658814395000,16.544394775390625,0.18718433380126953,-0.9290506839752197,0.21381604671478271
1683133658832234000,16.56223388671875,-0.00011730194091796875,-0.5447673797607422,0.10433617234230042
1683133658850070000,16.580070068359376,0.25931453704833984,-0.9985041618347168,0.32725071907043457
1683133658867900000,16.59789990234375,0.0055942535400390625,-0.5103461742401123,0.11798635870218277
1683133658885747200,16.615747314453124,0.15815353393554688,-0.9049615859985352,0.2763192653656006
1683133658903587000,16.633587158203124,0.09585952758789062,-0.7152647972106934,0.0847511738538742
1683133658921420800,16.6514208984375,0.10938262939453125,-0.7040847539901733,0.327214777469635
1683133658939265500,16.669265625,0.1465129852294922,-0.8634941577911377,0.12414943426847458
1683133658957099800,16.687099853515626,0.034653663635253906,-0.5760707855224609,0.16146644949913025
1683133658974934500,16.7049345703125,0.2475576400756836,-0.9682176113128662,0.30982235074043274
1683133658992772400,16.7227724609375,-0.031411170959472656,-0.4578183889389038,0.10858972370624542
1683133659010615300,16.740615234375,0.21439361572265625,-0.9640858173370361,0.27051880955696106
1683133659028440300,16.7584404296875,0.06044292449951172,-0.6103720664978027,0.07995046675205231
1683133659046280200,16.7762802734375,0.09003734588623047,-0.7774050235748291,0.3262321352958679
1683133659064116700,16.79411669921875,0.1362009048461914,-0.7910583019256592,0.08142517507076263
1683133659081968000,16.811968017578124,0.04491901397705078,-0.6061475276947021,0.22905778884887695
1683133659099803600,16.8298037109375,0.22464942932128906,-0.9120030403137207,0.22374045848846436
1683133659117645800,16.847645751953124,-0.006328582763671875,-0.4536619186401367,0.10994580388069153
1683133659135481300,16.8654814453125,0.2462472915649414,-0.9941506385803223,0.2856450080871582
1683133659153320700,16.88332080078125,0.031836509704589844,-0.5067933797836304,0.10515755414962769
1683133659171156200,16.90115625,0.13589000701904297,-0.8611832857131958,0.2708917260169983
1683133659188998700,16.91899853515625,0.07829761505126953,-0.7053623199462891,0.06639356911182404
1683133659206833700,16.936833740234373,0.07862472534179688,-0.654008150100708,0.32178932428359985
1683133659224673000,16.954673095703125,0.1666269302368164,-0.8491717576980591,0.14699256420135498
1683133659242510000,16.972510009765625,0.012948989868164062,-0.49262189865112305,0.12830783426761627
1683133659260349700,16.990349609375,0.2590045928955078,-0.9721896648406982,0.2779808044433594
1683133659278186000,17.00818603515625,0.005644798278808594,-0.4597276449203491,0.09040342271327972
1683133659296020700,17.026020751953126,0.18387317657470703,-0.9153804779052734,0.2745853662490845
1683133659313862400,17.0438623046875,0.03690624237060547,-0.6280598640441895,0.08553431928157806
1683133659331702000,17.061701904296875,0.11640453338623047,-0.7098994255065918,0.3255710303783417
1683133659349538600,17.07953857421875,0.15051746368408203,-0.7831878662109375,0.06903831660747528
1683133659367378200,17.097378173828126,0.03445911407470703,-0.5501114130020142,0.19311325252056122
1683133659385215200,17.11521533203125,0.26263427734375,-0.9164422750473022,0.25068989396095276
1683133659403054600,17.1330546875,0.005696296691894531,-0.4376964569091797,0.08794587850570679
1683133659420890000,17.15089013671875,0.20041656494140625,-0.9364265203475952,0.27471762895584106
1683133659438731800,17.168731689453125,0.0045299530029296875,-0.5203636884689331,0.06867662072181702
1683133659456568000,17.186568115234376,0.13138675689697266,-0.7874833345413208,0.3070920705795288
1683133659474407200,17.2044072265625,0.10877227783203125,-0.7234494686126709,0.04039411246776581
1683133659492242200,17.2222421875,0.06969356536865234,-0.5964010953903198,0.2587948441505432
1683133659510072800,17.24007275390625,0.1976776123046875,-0.8578853607177734,0.17949464917182922
1683133659527911000,17.257910888671876,0.009515762329101562,-0.4678992033004761,0.11719408631324768
1683133659545759500,17.275759521484375,0.2573871612548828,-0.9298526048660278,0.2657657563686371
1683133659563589600,17.293589599609376,-0.05028533935546875,-0.4423024654388428,0.07442821562290192
1683133659581435600,17.311435546875,0.1423206329345703,-0.8497377634048462,0.29075926542282104
1683133659599272700,17.329272705078125,0.0962533950805664,-0.6038826704025269,0.08016613125801086
1683133659617112000,17.347112060546873,0.07961368560791016,-0.6590276956558228,0.31647515296936035
1683133659634937600,17.3649375,0.16325759887695312,-0.7784173488616943,0.07835441827774048
1683133659652785000,17.382784912109376,0.05608081817626953,-0.47358238697052,0.1843201071023941
1683133659670625500,17.40062548828125,0.19582080841064453,-0.909217119216919,0.25303417444229126
1683133659688454700,17.41845458984375,-0.015656471252441406,-0.43658018112182617,0.06879852712154388
1683133659706301000,17.436301025390627,0.22063350677490234,-0.889697790145874,0.28046831488609314
1683133659724139800,17.454139892578127,0.029114723205566406,-0.5025633573532104,0.09595321118831635
1683133659741977300,17.471977294921874,0.10377979278564453,-0.750476598739624,0.2849310338497162
1683133659759818200,17.489818359375,0.12362957000732422,-0.6977156400680542,0.04107242822647095
1683133659777653500,17.507653564453125,0.06322669982910156,-0.5205861330032349,0.2546367943286896
1683133659795492900,17.525492919921874,0.19493484497070312,-0.8394290208816528,0.19059421122074127
1683133659813325300,17.5433251953125,-0.016783714294433594,-0.43762028217315674,0.06112581491470337
1683133659831169500,17.56116943359375,0.2132863998413086,-0.9114080667495728,0.27018600702285767
1683133659849006300,17.57900634765625,-0.027233123779296875,-0.4117237329483032,0.08449722826480865
1683133659866845400,17.596845458984376,0.14214229583740234,-0.8060488700866699,0.28705981373786926
1683133659884682800,17.614682861328124,0.06775283813476562,-0.6168296337127686,0.052349239587783813
1683133659902522000,17.632522216796875,0.08470726013183594,-0.6088690757751465,0.28211691975593567
1683133659920358400,17.6503583984375,0.15270233154296875,-0.7670862674713135,0.11600826680660248
1683133659938199000,17.668198974609375,-0.012679100036621094,-0.4737890958786011,0.13305222988128662
1683133659956034300,17.686034423828126,0.22027111053466797,-0.8710058927536011,0.2634255588054657
1683133659973874400,17.70387451171875,-0.03790855407714844,-0.3696044683456421,0.09221205115318298
1683133659991707600,17.721707763671876,0.1912097930908203,-0.8504626750946045,0.28385040163993835
1683133660009550600,17.739550537109373,0.07021331787109375,-0.49930548667907715,0.062434300780296326
1683133660027378200,17.757378173828126,0.12503337860107422,-0.6810756921768188,0.27126580476760864
1683133660045227300,17.775227294921876,0.07694435119628906,-0.7043960094451904,0.04551608860492706
1683133660063058700,17.79305859375,0.07034111022949219,-0.489016056060791,0.2251601219177246
1683133660080903200,17.810903076171876,0.16248512268066406,-0.8218086957931519,0.19613996148109436
1683133660098740200,17.828740234375,-0.043562889099121094,-0.38630223274230957,0.06420771777629852
1683133660116579800,17.846579833984375,0.24225902557373047,-0.8769814968109131,0.2621660530567169
1683133660134411000,17.864410888671873,0.0061168670654296875,-0.4009765386581421,0.08089685440063477
1683133660152255500,17.88225537109375,0.12731361389160156,-0.7591375112533569,0.2552260160446167
1683133660170092000,17.900092041015625,0.07042217254638672,-0.6250312328338623,0.05627451837062836
1683133660187932000,17.917931884765625,0.06225299835205078,-0.548012375831604,0.2792127728462219
1683133660205763800,17.935763916015624,0.13779544830322266,-0.7458993196487427,0.11007136106491089
1683133660223609300,17.953609375,-0.022607803344726562,-0.43752551078796387,0.10126283019781113
1683133660241448000,17.971447998046877,0.2241802215576172,-0.8513597249984741,0.28849250078201294
1683133660259283000,17.989282958984376,-0.04081916809082031,-0.33582353591918945,0.0717620998620987
1683133660277122600,18.00712255859375,0.15606975555419922,-0.8273547887802124,0.2386789172887802
1683133660294960400,18.02496044921875,0.05209827423095703,-0.5157442092895508,0.04969637095928192
1683133660312793600,18.042793701171874,0.08892822265625,-0.6220519542694092,0.30335673689842224
1683133660330636800,18.06063671875,0.10734844207763672,-0.6903115510940552,0.05007275938987732
1683133660348473300,18.078473388671874,0.007350921630859375,-0.4806555509567261,0.16886229813098907
1683133660366312400,18.0963125,0.21021747589111328,-0.8127250671386719,0.21585965156555176
1683133660384145000,18.114144775390624,-0.041214942932128906,-0.32998013496398926,0.074611134827137
1683133660401989600,18.13198974609375,0.22654438018798828,-0.8494373559951782,0.24801500141620636
1683133660419826000,18.149825927734376,-0.009203910827636719,-0.4102102518081665,0.07483094930648804
1683133660437654300,18.167654296875,0.13655853271484375,-0.7151882648468018,0.2581077814102173
1683133660455497700,18.185497802734375,0.05459785461425781,-0.6014919281005859,0.03150925040245056
1683133660473342200,18.20334228515625,0.03879833221435547,-0.5255354642868042,0.2679753303527832
1683133660491166200,18.221166259765624,0.1764516830444336,-0.7430814504623413,0.12491283565759659
1683133660509004800,18.2390048828125,-0.031642913818359375,-0.3544348478317261,0.09505154192447662
1683133660526855700,18.256855712890626,0.23569488525390625,-0.8599115610122681,0.24469304084777832
1683133660544694000,18.274694091796874,-0.027449607849121094,-0.33310508728027344,0.053888678550720215
1683133660562530000,18.292530029296874,0.11554813385009766,-0.7681930065155029,0.23385906219482422
1683133660580359000,18.31035888671875,0.02064800262451172,-0.5194491147994995,0.050132423639297485
1683133660598206500,18.32820654296875,0.10671710968017578,-0.5833182334899902,0.2933168411254883
1683133660616047900,18.3460478515625,0.10186576843261719,-0.6644960641860962,0.0381864458322525
1683133660633883100,18.363883056640624,-0.0013275146484375,-0.41750776767730713,0.1667732298374176
1683133660651722800,18.38172265625,0.23132610321044922,-0.797335147857666,0.2335347682237625
1683133660669558000,18.39955810546875,-0.04460716247558594,-0.3282278776168823,0.04412171244621277
1683133660687398000,18.41739794921875,0.17062854766845703,-0.8197669982910156,0.23507291078567505
1683133660705233700,18.435233642578126,-0.01825428009033203,-0.4160473346710205,0.04700532555580139
1683133660723073000,18.453072998046874,0.08444786071777344,-0.6740212440490723,0.2855224013328552
1683133660740914200,18.4709140625,0.09568309783935547,-0.5959135293960571,0.01299719512462616
1683133660758747400,18.488747314453125,0.03760719299316406,-0.48168838024139404,0.23001965880393982
1683133660776587500,18.50658740234375,0.18214130401611328,-0.7294703722000122,0.1368190497159958
1683133660794427100,18.52442724609375,0.01611614227294922,-0.3446991443634033,0.07304549962282181
1683133660812264200,18.54226416015625,0.2185077667236328,-0.8203004598617554,0.23242218792438507
1683133660830102800,18.560102783203124,-0.06904029846191406,-0.3262917995452881,0.048542365431785583
1683133660847941400,18.57794140625,0.14707660675048828,-0.749640703201294,0.26220986247062683
1683133660865780000,18.595780029296876,0.05494976043701172,-0.48057234287261963,0.033879801630973816
1683133660883616800,18.61361669921875,0.060211181640625,-0.5511738061904907,0.2669456899166107
1683133660901456600,18.63145654296875,0.1336231231689453,-0.6731564998626709,0.04455292224884033
1683133660919292700,18.649292724609374,0.004734039306640625,-0.3812222480773926,0.16582182049751282
1683133660937132500,18.667132568359374,0.1831531524658203,-0.7862273454666138,0.2168545424938202
1683133660954969300,18.68496923828125,-0.061020851135253906,-0.32549476623535156,0.02143169939517975
1683133660972805000,18.70280517578125,0.1566448211669922,-0.7924264669418335,0.2488422989845276
1683133660990645000,18.72064501953125,0.010275840759277344,-0.3589271306991577,0.05827447772026062
1683133661008469800,18.7384697265625,0.09375,-0.6491590738296509,0.25681084394454956
1683133661026316800,18.75631689453125,0.06353378295898438,-0.5725564956665039,0.016071513295173645
1683133661044161500,18.77416162109375,0.04858875274658203,-0.4255692958831787,0.24726052582263947
1683133661061997300,18.791997314453123,0.17783737182617188,-0.7126150131225586,0.1281573623418808
1683133661079826000,18.809825927734376,-0.03640270233154297,-0.3522998094558716,0.044482097029685974
1683133661097674200,18.82767431640625,0.19639205932617188,-0.7829304933547974,0.2535555362701416
1683133661115513900,18.845513916015626,-0.037705421447753906,-0.291664719581604,0.060065433382987976
1683133661133350000,18.863349853515626,0.14349079132080078,-0.7131112813949585,0.26462194323539734
1683133661151188200,18.881188232421874,0.04860496520996094,-0.46099817752838135,0.04665099084377289
1683133661169027600,18.899027587890625,0.0829782485961914,-0.5225993394851685,0.2630074620246887
1683133661186866000,18.916865966796873,0.1023092269897461,-0.6374567747116089,0.05272914469242096
1683133661204702200,18.9347021484375,0.008801460266113281,-0.38584864139556885,0.13454803824424744
1683133661222539000,18.9525390625,0.1781320571899414,-0.7427321672439575,0.1978558599948883
1683133661240382000,18.9703818359375,-0.05782127380371094,-0.2781113386154175,0.04184676706790924
1683133661258217700,18.9882177734375,0.19545269012451172,-0.7599453926086426,0.24444884061813354
1683133661276055600,19.0060556640625,-0.015028953552246094,-0.34619081020355225,0.05552957206964493
1683133661293885200,19.02388525390625,0.08891677856445312,-0.6276379823684692,0.22721488773822784
1683133661311731000,19.04173095703125,0.047028541564941406,-0.5665111541748047,0.005255788564682007
1683133661329570800,19.05957080078125,0.054007530212402344,-0.4093090295791626,0.24133819341659546
1683133661347407000,19.077406982421873,0.13018512725830078,-0.6634012460708618,0.12254640460014343
1683133661365246200,19.09524609375,-0.051360130310058594,-0.30362415313720703,0.05162951350212097
1683133661383083800,19.113083740234377,0.21067523956298828,-0.771950364112854,0.2512842118740082
1683133661400923100,19.130923095703125,-0.02866363525390625,-0.2600008249282837,0.038539573550224304
1683133661418759400,19.148759521484376,0.12919139862060547,-0.6989864110946655,0.211033433675766
1683133661436590300,19.16659033203125,0.01747417449951172,-0.4686521291732788,0.026302486658096313
1683133661454435800,19.184435791015623,0.06596660614013672,-0.48445820808410645,0.2793249487876892
1683133661472274400,19.2022744140625,0.0813436508178711,-0.5993829965591431,0.02171957492828369
1683133661490113300,19.22011328125,-0.026746749877929688,-0.36738157272338867,0.12830248475074768
1683133661507938000,19.23793798828125,0.2064647674560547,-0.7358406782150269,0.21619273722171783
1683133661525791500,19.25579150390625,-0.061977386474609375,-0.2304985523223877,0.04164858162403107
1683133661543628000,19.2736279296875,0.18929481506347656,-0.7587029933929443,0.21143227815628052
1683133661561464300,19.29146435546875,-0.02824878692626953,-0.35297393798828125,0.026269182562828064
1683133661579304000,19.309303955078125,0.08685111999511719,-0.602181077003479,0.25944310426712036
1683133661597140500,19.327140380859376,0.06252479553222656,-0.5264911651611328,0.005715399980545044
1683133661614980400,19.34498046875,0.014679908752441406,-0.42494475841522217,0.22147327661514282
1683133661632812500,19.3628125,0.16262340545654297,-0.6603331565856934,0.11505821347236633
1683133661650644200,19.380644287109376,-0.019988059997558594,-0.25932157039642334,0.061371296644210815
1683133661668493300,19.398493408203127,0.20204925537109375,-0.7634327411651611,0.2266450673341751
1683133661686330600,19.41633056640625,-0.05795764923095703,-0.2571064233779907,0.04022340476512909
1683133661704163800,19.434163818359377,0.12289047241210938,-0.6886048316955566,0.21344074606895447
1683133661722011400,19.452011474609375,0.015354156494140625,-0.42932558059692383,0.026130318641662598
1683133661739845600,19.469845703125,0.03202629089355469,-0.47891342639923096,0.27106860280036926
1683133661757685200,19.487685302734373,0.11315345764160156,-0.5928531885147095,0.021220996975898743
1683133661775521300,19.505521240234376,0.0036144256591796875,-0.315687894821167,0.13277821242809296
1683133661793356000,19.52335595703125,0.19458484649658203,-0.7175281047821045,0.20744767785072327
1683133661811197400,19.541197509765624,-0.03721809387207031,-0.2541393041610718,0.01660671830177307
1683133661829033200,19.559033203125,0.15758323669433594,-0.7217299938201904,0.2311965823173523
1683133661846877400,19.57687744140625,-0.03904914855957031,-0.34251201152801514,0.029972434043884277
1683133661864718600,19.594718505859376,0.0919504165649414,-0.5866063833236694,0.25298261642456055
1683133661882550300,19.61255029296875,0.06833839416503906,-0.520405650138855,-0.012796178460121155
1683133661900389600,19.6303896484375,0.028624534606933594,-0.38761448860168457,0.2136000245809555
1683133661918225200,19.64822509765625,0.14933395385742188,-0.6447427272796631,0.13312473893165588
1683133661936066300,19.66606640625,-0.024843215942382812,-0.25214600563049316,0.043785445392131805
1683133661953902600,19.683902587890625,0.1886606216430664,-0.7318490743637085,0.20827709138393402
1683133661971741400,19.701741455078125,-0.06862545013427734,-0.2410445213317871,0.01695479452610016
1683133661989579000,19.7195791015625,0.1365966796875,-0.652765154838562,0.24576939642429352
1683133662007406000,19.737406005859373,0.03919792175292969,-0.4047454595565796,0.005647793412208557
1683133662025255000,19.7552548828125,0.07275581359863281,-0.46544086933135986,0.23816487193107605
1683133662043094500,19.773094482421875,0.11473274230957031,-0.5796552896499634,0.03595192730426788
1683133662060930600,19.7909306640625,0.0040760040283203125,-0.2956284284591675,0.14041247963905334
1683133662078770200,19.808770263671875,0.15853595733642578,-0.684614896774292,0.18630248308181763
1683133662096607000,19.82660693359375,-0.06258296966552734,-0.22985577583312988,0.00580655038356781
1683133662114442000,19.84444189453125,0.17333507537841797,-0.6995517015457153,0.22468975186347961
1683133662132283100,19.862283203125,-0.009600639343261719,-0.2846250534057617,0.039357781410217285
1683133662150122200,19.880122314453125,0.06466293334960938,-0.5623875856399536,0.21987664699554443
1683133662167947800,19.89794775390625,0.0629129409790039,-0.49076271057128906,-0.014275684952735901
1683133662185796000,19.915796142578124,0.029232025146484375,-0.34420037269592285,0.21420088410377502
1683133662203638300,19.93363818359375,0.12790775299072266,-0.631374716758728,0.11373157799243927
1683133662221471000,19.951470947265626,-0.0665273666381836,-0.260675311088562,0.02149079740047455
1683133662239310800,19.969310791015626,0.18387222290039062,-0.7003151178359985,0.24451541900634766
1683133662257152500,19.987152587890623,-0.07529354095458984,-0.20120763778686523,0.04176954925060272
1683133662274987500,20.004987548828126,0.10925674438476562,-0.6295133829116821,0.21356713771820068
1683133662292819000,20.02281884765625,0.04395484924316406,-0.3921325206756592,-0.009340539574623108
1683133662310664200,20.040664306640625,0.03176307678222656,-0.4411376714706421,0.24025768041610718
1683133662328491800,20.05849169921875,0.07767486572265625,-0.5626907348632812,0.04220332205295563
1683133662346346200,20.07634619140625,-0.04027843475341797,-0.2987896203994751,0.1046721413731575
1683133662364177200,20.09417724609375,0.1696004867553711,-0.6814746856689453,0.1883912980556488
1683133662382016500,20.1120166015625,-0.07824325561523438,-0.17384111881256104,0.028531908988952637
1683133662399856000,20.129856201171876,0.18201160430908203,-0.6865493059158325,0.22090253233909607
1683133662417692200,20.147692138671875,-0.005967140197753906,-0.2870516777038574,0.0336696058511734
1683133662435527200,20.165527099609374,0.06251907348632812,-0.5404428243637085,0.21432620286941528
1683133662453368800,20.183368896484374,0.051876068115234375,-0.48011577129364014,-0.003064855933189392
1683133662471208400,20.20120849609375,0.011073112487792969,-0.34261608123779297,0.2150154411792755
1683133662489043700,20.219043701171874,0.1157236099243164,-0.6061233282089233,0.11125824600458145
1683133662506873600,20.23687353515625,-0.0692434310913086,-0.2129969596862793,0.019407838582992554
1683133662524721200,20.25472119140625,0.22141647338867188,-0.7027788162231445,0.22376778721809387
1683133662542560800,20.272560791015625,-0.04845905303955078,-0.18486440181732178,0.025643154978752136
1683133662560396000,20.29039599609375,0.10159587860107422,-0.6122192144393921,0.19452200829982758
1683133662578236200,20.308236083984376,0.011837959289550781,-0.3918267488479614,0.007643759250640869
1683133662596074000,20.326073974609375,0.046324729919433594,-0.40602314472198486,0.2574962079524994
1683133662613912600,20.34391259765625,0.0920705795288086,-0.5430899858474731,0.01768404245376587
1683133662631749400,20.361749267578126,-0.036192893981933594,-0.2688087224960327,0.09661854058504105
1683133662649588500,20.37958837890625,0.18183231353759766,-0.6593062877655029,0.21761304140090942
1683133662667425800,20.39742578125,-0.03892040252685547,-0.16050708293914795,0.028707951307296753
1683133662685265200,20.41526513671875,0.15087604522705078,-0.66829514503479,0.2004978060722351
1683133662703101400,20.433101318359373,-0.03153038024902344,-0.29516804218292236,0.004631072282791138
1683133662720928000,20.450927978515626,0.0686502456665039,-0.4884016513824463,0.2466803342103958
1683133662738777900,20.46877783203125,0.06346511840820312,-0.47490429878234863,-0.018890753388404846
1683133662756612900,20.48661279296875,-0.038669586181640625,-0.3233290910720825,0.1735326647758484
1683133662774453800,20.504453857421876,0.15763568878173828,-0.600308895111084,0.12619143724441528
1683133662792292600,20.522292724609375,-0.028822898864746094,-0.1701488494873047,0.029854148626327515
1683133662810129000,20.54012890625,0.17644500732421875,-0.6766409873962402,0.20089071989059448
1683133662827970800,20.557970703125,-0.06082916259765625,-0.20831167697906494,0.021049097180366516
1683133662845805800,20.575805908203126,0.09971237182617188,-0.5802444219589233,0.21108302474021912
1683133662863642600,20.593642578125,0.006213188171386719,-0.3647480010986328,0.008456885814666748
1683133662881484000,20.611484130859374,0.026865005493164062,-0.3807300329208374,0.24735142290592194
1683133662899323400,20.629323486328126,0.11731243133544922,-0.5337651968002319,0.03572586178779602
1683133662917158100,20.647158203125,-0.044681549072265625,-0.18964409828186035,0.09310679137706757
1683133662934998000,20.664998046875,0.19455432891845703,-0.6735920906066895,0.21681499481201172
1683133662952830500,20.68283056640625,-0.07140350341796875,-0.17470991611480713,0.010837972164154053
1683133662970674400,20.70067431640625,0.1345081329345703,-0.6295720338821411,0.21018454432487488
1683133662988510500,20.718510498046875,-0.010554313659667969,-0.2812589406967163,0.011622324585914612
1683133663006353200,20.736353271484376,0.07907485961914062,-0.4576609134674072,0.22713296115398407
1683133663024191200,20.754191162109375,0.07327461242675781,-0.45778632164001465,-0.01804541051387787
1683133663042026500,20.772026611328126,-0.02524089813232422,-0.25756943225860596,0.1708681881427765
1683133663059859500,20.789859375,0.17586803436279297,-0.6059187650680542,0.1376665234565735
1683133663077694000,20.80769384765625,-0.059601783752441406,-0.18010962009429932,-0.011748135089874268
1683133663095539200,20.825539306640625,0.1430187225341797,-0.6614114046096802,0.21086901426315308
1683133663113378600,20.843378662109377,-0.0525054931640625,-0.1812286376953125,0.02383001148700714
1683133663131213800,20.8612138671875,0.08085346221923828,-0.5413858890533447,0.24333752691745758
1683133663149055500,20.879055419921876,0.01699542999267578,-0.3759657144546509,-0.02337968349456787
1683133663166891300,20.896891357421875,0.05049610137939453,-0.3493633270263672,0.2086465209722519
1683133663184730000,20.914730224609375,0.10225677490234375,-0.53556227684021,0.05136411637067795
1683133663202568400,20.932568359375,-0.03349018096923828,-0.20360267162322998,0.06700082868337631
1683133663220406800,20.95040673828125,0.17545700073242188,-0.6274752616882324,0.19470953941345215
1683133663238242800,20.968242919921874,-0.07631683349609375,-0.1545480489730835,-0.0025016963481903076
1683133663256084500,20.98608447265625,0.1212301254272461,-0.602391242980957,0.20971408486366272
1683133663273920000,21.003919921875,-0.0036001205444335938,-0.2621191740036011,0.014850139617919922
1683133663291759000,21.021759033203125,0.042931556701660156,-0.4436255693435669,0.2268984019756317
1683133663309585000,21.0395849609375,0.07107257843017578,-0.45748746395111084,-0.010141640901565552
1683133663327435500,21.057435546875,0.013091087341308594,-0.24070918560028076,0.1585995852947235
1683133663345271800,21.075271728515624,0.13719844818115234,-0.5908750295639038,0.14604541659355164
1683133663363111400,21.093111328125,-0.061527252197265625,-0.15746402740478516,-0.012020125985145569
1683133663380936200,21.110936279296876,0.1604166030883789,-0.6226134300231934,0.22677141427993774
1683133663398788000,21.1287880859375,-0.051901817321777344,-0.16278302669525146,0.016781866550445557
1683133663416624400,21.146624267578126,0.07408332824707031,-0.5274256467819214,0.190138578414917
1683133663434463500,21.16446337890625,0.034210205078125,-0.38298213481903076,-0.01360166072845459
1683133663452299500,21.182299560546873,0.022552490234375,-0.3071187734603882,0.23390193283557892
1683133663470141400,21.200141357421874,0.08579540252685547,-0.5178616046905518,0.05484037101268768
1683133663487976400,21.2179765625,-0.0477142333984375,-0.1932084560394287,0.03985074162483215
1683133663505815800,21.23581591796875,0.17811965942382812,-0.6136075258255005,0.21556824445724487
1683133663523648300,21.253648193359375,-0.09318161010742188,-0.0978766679763794,0.016488954424858093
1683133663541489400,21.271489501953123,0.1337270736694336,-0.5802069902420044,0.19649776816368103
1683133663559331600,21.28933154296875,-0.01764678955078125,-0.2676752805709839,-0.009876027703285217
1683133663577165000,21.3071650390625,0.052954673767089844,-0.41817688941955566,0.21285107731819153
1683133663595008000,21.325008056640623,0.0298004150390625,-0.44990694522857666,-0.009536966681480408
1683133663612850700,21.3428505859375,-0.037261009216308594,-0.2481454610824585,0.14080920815467834
1683133663630680800,21.360680908203125,0.14815425872802734,-0.5801160335540771,0.13917480409145355
1683133663648507400,21.37850732421875,-0.08682823181152344,-0.1000748872756958,-0.00022798776626586914
1683133663666358300,21.396358154296873,0.16909217834472656,-0.6199994087219238,0.19331525266170502
1683133663684196900,21.41419677734375,-0.03887367248535156,-0.17278504371643066,0.019625619053840637
1683133663702033200,21.432033203125,0.07509803771972656,-0.4988471269607544,0.1698453426361084
1683133663719872800,21.449872802734376,-0.0073795318603515625,-0.3741666078567505,-0.01747487485408783
1683133663737709300,21.467709228515623,0.03609752655029297,-0.29985344409942627,0.2300015538930893
1683133663755549200,21.485549072265623,0.11238479614257812,-0.49864161014556885,0.046754300594329834
1683133663773380900,21.503380859375,-0.07996273040771484,-0.1588594913482666,0.03658944368362427
1683133663791224300,21.521224365234374,0.21407699584960938,-0.6208354234695435,0.21451188623905182
1683133663809043000,21.53904296875,-0.07455158233642578,-0.10133123397827148,0.00372314453125
1683133663826901200,21.5569013671875,0.09011554718017578,-0.5738961696624756,0.17330512404441833
1683133663844721200,21.57472119140625,0.009815216064453125,-0.2727949619293213,-0.006345391273498535
1683133663862575400,21.592575439453125,0.04441261291503906,-0.3711428642272949,0.2376687228679657
1683133663880403700,21.61040380859375,0.04755401611328125,-0.4449852705001831,-0.023023605346679688
1683133663898252500,21.62825244140625,-0.02254962921142578,-0.2241806983947754,0.1324768215417862
1683133663916090600,21.646090576171876,0.17401981353759766,-0.5627516508102417,0.16743452847003937
1683133663933929200,21.66392919921875,-0.07007598876953125,-0.09386026859283447,-0.008443683385848999
1683133663951766000,21.68176611328125,0.16568565368652344,-0.6100102663040161,0.1774473488330841
1683133663969604600,21.6996044921875,-0.06623363494873047,-0.17216849327087402,0.0004556924104690552
1683133663987443000,21.71744287109375,0.05788993835449219,-0.4739387035369873,0.2292172908782959
1683133664005279200,21.735279296875,0.018711090087890625,-0.3668360710144043,-0.024134770035743713
1683133664023120600,21.75312060546875,0.0011796951293945312,-0.2883188724517822,0.1961158812046051
1683133664040957200,21.770957275390625,0.11113548278808594,-0.49533772468566895,0.04787992686033249
1683133664058793000,21.78879296875,-0.053748130798339844,-0.12342429161071777,0.04524026811122894
1683133664076633000,21.806633056640624,0.1779499053955078,-0.5973204374313354,0.17674167454242706
1683133664094468400,21.82446826171875,-0.058223724365234375,-0.10250687599182129,-0.002042636275291443
1683133664112309800,21.842309814453124,0.10422515869140625,-0.5580559968948364,0.1782272458076477
1683133664130146300,21.860146240234375,-0.022268295288085938,-0.24629592895507812,-0.00019630789756774902
1683133664147985700,21.877985595703127,0.04699420928955078,-0.3650217056274414,0.2300475686788559
1683133664165817900,21.89581787109375,0.08564567565917969,-0.4325662851333618,-0.024991557002067566
1683133664183662000,21.913662109375,-0.014858245849609375,-0.1675657033920288,0.13681042194366455
1683133664201498600,21.93149853515625,0.1667156219482422,-0.5540746450424194,0.1516903042793274
1683133664219337200,21.949337158203125,-0.0703268051147461,-0.11981368064880371,-0.029715970158576965
1683133664237176300,21.96717626953125,0.13501644134521484,-0.58240807056427,0.20051418244838715
1683133664255014100,21.98501416015625,-0.05937385559082031,-0.14474236965179443,-0.003846108913421631
1683133664272851200,22.002851318359376,0.086029052734375,-0.4582024812698364,0.21057313680648804
1683133664290689300,22.020689208984376,0.02117156982421875,-0.3399932384490967,-0.04183168709278107
1683133664308524800,22.03852490234375,0.017919540405273438,-0.26203858852386475,0.18442553281784058
1683133664326366500,22.056366455078123,0.11763858795166016,-0.4851799011230469,0.04564540833234787
1683133664344191000,22.07419091796875,-0.045210838317871094,-0.14383959770202637,0.02448173612356186
1683133664362042400,22.09204248046875,0.14655017852783203,-0.5740230083465576,0.18478144705295563
1683133664379877400,22.10987744140625,-0.10157299041748047,-0.08577382564544678,-0.005642026662826538
1683133664397720600,22.127720458984374,0.1274709701538086,-0.5375899076461792,0.20761917531490326
1683133664415550500,22.145550537109376,0.000011444091796875,-0.21122515201568604,-0.010028958320617676
1683133664433394700,22.163394775390625,0.043740272521972656,-0.3743969202041626,0.20216014981269836
1683133664451231700,22.181231689453124,0.050690650939941406,-0.4105992317199707,-0.01930733025074005
1683133664469059300,22.199059326171874,-0.0024652481079101562,-0.17639052867889404,0.14832398295402527
1683133664486901800,22.21690185546875,0.1122751235961914,-0.5229120254516602,0.13072523474693298
1683133664504745000,22.234744873046875,-0.09586048126220703,-0.10232102870941162,-0.020721808075904846
1683133664522588400,22.25258837890625,0.15985965728759766,-0.5648068189620972,0.19788840413093567
1683133664540418600,22.27041845703125,-0.0671234130859375,-0.10992562770843506,0.003020346164703369
1683133664558253800,22.28825390625,0.07470989227294922,-0.46448802947998047,0.16943079233169556
1683133664576099800,22.306099853515626,0.001354217529296875,-0.31199514865875244,-0.022680193185806274
1683133664593936000,22.323935791015625,0.006560325622558594,-0.2553597688674927,0.217251718044281
1683133664611774000,22.34177392578125,0.06458377838134766,-0.4595838785171509,0.02683834731578827
1683133664629612800,22.35961279296875,-0.08030509948730469,-0.1507563591003418,0.023300185799598694
1683133664647451000,22.377450927734376,0.16950225830078125,-0.5494285821914673,0.20489683747291565
1683133664665285400,22.395285400390627,-0.0978860855102539,-0.04030907154083252,0.01985044777393341
