time,seconds_elapsed,z,y,x
1683126372346529500,0.158529541015625,3.03464412689209,-6.66160249710083,1.5584243535995483
1683126372364370700,0.17637060546875,3.2077975273132324,-6.65035343170166,1.6036320924758911
1683126372382217000,0.194217041015625,3.1244893074035645,-6.645090579986572,1.5919820070266724
1683126372400062000,0.21206201171875,3.070629596710205,-6.64272928237915,1.540319561958313
1683126372417900300,0.229900390625,3.1648707389831543,-6.662116527557373,1.560088038444519
1683126372435738000,0.247738037109375,3.1084542274475098,-6.588934421539307,1.4974995851516724
1683126372453581000,0.2655810546875,3.2681946754455566,-6.569119930267334,1.546471357345581
1683126372471417900,0.28341796875,2.9937071800231934,-6.670645713806152,1.5788624286651611
1683126372489243600,0.30124365234375,3.1582250595092773,-6.638197898864746,1.5895404815673828
1683126372507100400,0.319100341796875,3.1556005477905273,-6.650618553161621,1.5857411623001099
1683126372524937700,0.336937744140625,3.059619903564453,-6.667568206787109,1.5599768161773682
1683126372542775600,0.354775634765625,3.144458293914795,-6.646985054016113,1.5534205436706543
1683126372560618200,0.3726181640625,3.1190543174743652,-6.593868255615234,1.5013923645019531
1683126372578455800,0.390455810546875,3.256861686706543,-6.565181732177734,1.5407862663269043
1683126372596296700,0.408296630859375,3.060657501220703,-6.690692901611328,1.5813463926315308
1683126372614131000,0.426130859375,3.094780445098877,-6.633785724639893,1.5935461521148682
1683126372631976000,0.443975830078125,3.0744924545288086,-6.652997016906738,1.6027060747146606
1683126372649815300,0.461815185546875,3.1067371368408203,-6.658470630645752,1.5559929609298706
1683126372667655400,0.479655517578125,3.108022689819336,-6.660046100616455,1.5721698999404907
1683126372685491500,0.497491455078125,3.139091968536377,-6.6038289070129395,1.4855546951293945
1683126372703336200,0.515336181640625,3.1990036964416504,-6.560739994049072,1.53904390335083
1683126372721174500,0.533174560546875,3.0821332931518555,-6.68919563293457,1.5906537771224976
1683126372739014100,0.55101416015625,3.0565075874328613,-6.622286319732666,1.574009656906128
1683126372756853200,0.568853271484375,3.0557689666748047,-6.6485466957092285,1.5957657098770142
1683126372774681600,0.586681640625,3.1451621055603027,-6.644494533538818,1.5505114793777466
1683126372792532700,0.60453271484375,3.097336769104004,-6.647138595581055,1.56940758228302
1683126372810373000,0.622373046875,3.1306076049804688,-6.585922718048096,1.486423373222351
1683126372828208400,0.64020849609375,3.199553966522217,-6.544920444488525,1.5131807327270508
1683126372846055700,0.6580556640625,3.0548853874206543,-6.661990642547607,1.5875352621078491
1683126372863888100,0.67588818359375,3.0845799446105957,-6.63906192779541,1.5842128992080688
1683126372881731600,0.693731689453125,3.0265707969665527,-6.635812759399414,1.5828408002853394
1683126372899569700,0.711569580078125,3.174881935119629,-6.631290435791016,1.5559030771255493
1683126372917408500,0.729408447265625,3.102008819580078,-6.647657871246338,1.583811640739441
1683126372935245800,0.747245849609375,3.091118812561035,-6.582779884338379,1.4870024919509888
1683126372953090600,0.765090576171875,3.175340175628662,-6.550710678100586,1.5096986293792725
1683126372970926600,0.782926513671875,3.05035400390625,-6.668543815612793,1.5985746383666992
1683126372988763000,0.800762939453125,3.07037353515625,-6.637298583984375,1.5926870107650757
1683126373006612700,0.81861279296875,3.036374568939209,-6.636380195617676,1.598644495010376
1683126373024449300,0.83644921875,3.101729393005371,-6.60966157913208,1.5506888628005981
1683126373042288400,0.854288330078125,3.136148452758789,-6.660699844360352,1.5869266986846924
1683126373060127700,0.872127685546875,3.127880573272705,-6.548080921173096,1.4744973182678223
1683126373077969200,0.88996923828125,3.1000547409057617,-6.531864166259766,1.4950668811798096
1683126373095808300,0.907808349609375,3.126631736755371,-6.636543273925781,1.5775543451309204
1683126373113647000,0.925647216796875,3.0429201126098633,-6.628653526306152,1.5747681856155396
1683126373131487700,0.94348779296875,3.064398765563965,-6.628295421600342,1.597636342048645
1683126373149326600,0.96132666015625,3.069093704223633,-6.596758842468262,1.5395901203155518
1683126373167166700,0.979166748046875,3.1405115127563477,-6.634791374206543,1.5758458375930786
1683126373185001000,0.9970009765625,3.1248998641967773,-6.568882942199707,1.5014574527740479
1683126373202846500,1.014846435546875,3.0434350967407227,-6.529590129852295,1.4791117906570435
1683126373220685300,1.032685302734375,3.138552188873291,-6.601081371307373,1.5652272701263428
1683126373238526000,1.05052587890625,3.0089893341064453,-6.621377468109131,1.5723066329956055
1683126373256360000,1.06835986328125,3.053978443145752,-6.605014324188232,1.6032946109771729
1683126373274205000,1.086204833984375,3.07464599609375,-6.633470058441162,1.556437611579895
1683126373292044000,1.1040439453125,3.051365852355957,-6.627222061157227,1.5936113595962524
1683126373309883400,1.12188330078125,3.156836986541748,-6.572619915008545,1.5269945859909058
1683126373327715300,1.13971533203125,2.9628591537475586,-6.526402473449707,1.4963244199752808
1683126373345567700,1.157567626953125,3.132413864135742,-6.567789554595947,1.5488632917404175
1683126373363400200,1.175400146484375,3.019350051879883,-6.6111884117126465,1.560605764389038
1683126373381244400,1.193244384765625,3.064680576324463,-6.592788219451904,1.5994362831115723
1683126373399083800,1.211083740234375,3.0876693725585938,-6.596000671386719,1.5610636472702026
1683126373416912100,1.228912109375,3.035126209259033,-6.595818042755127,1.5790774822235107
1683126373434762000,1.246761962890625,3.1630420684814453,-6.581997871398926,1.5335884094238281
1683126373452590000,1.264590087890625,3.0021615028381348,-6.522740364074707,1.50581955909729
1683126373470441000,1.28244091796875,3.0674681663513184,-6.536500930786133,1.5536532402038574
1683126373488276500,1.3002763671875,3.061262607574463,-6.600363731384277,1.5564510822296143
1683126373506114300,1.3181142578125,3.1086959838867188,-6.563127040863037,1.5919318199157715
1683126373523961300,1.33596142578125,3.022676944732666,-6.588428497314453,1.559383511543274
1683126373541799700,1.353799560546875,3.003770351409912,-6.576529026031494,1.562369465827942
1683126373559629000,1.371629150390625,3.1191697120666504,-6.571591854095459,1.5384066104888916
1683126373577474600,1.389474609375,3.0232362747192383,-6.520229816436768,1.5074809789657593
1683126373595319800,1.40731982421875,3.0738134384155273,-6.515295505523682,1.5351256132125854
1683126373613158700,1.42515869140625,3.016045093536377,-6.575714111328125,1.55215585231781
1683126373630997500,1.44299755859375,3.096036434173584,-6.556228160858154,1.5940089225769043
1683126373648839000,1.4608388671875,2.9702353477478027,-6.55690860748291,1.5685546398162842
1683126373666678000,1.478677978515625,3.016876697540283,-6.568272590637207,1.5441968441009521
1683126373684513000,1.496512939453125,3.0782594680786133,-6.544422149658203,1.5164096355438232
1683126373702363400,1.51436328125,3.032075881958008,-6.472416400909424,1.4878971576690674
1683126373720198100,1.5321982421875,3.1138081550598145,-6.470610618591309,1.5225499868392944
1683126373738037500,1.55003759765625,2.927091598510742,-6.537398815155029,1.5371531248092651
1683126373755876000,1.5678759765625,3.1501245498657227,-6.525170803070068,1.572479486465454
1683126373773705000,1.585705078125,2.9547643661499023,-6.550815105438232,1.5788463354110718
1683126373791555300,1.603555419921875,2.9680519104003906,-6.54302453994751,1.5418272018432617
1683126373809387500,1.621387451171875,3.0607876777648926,-6.542048931121826,1.5199462175369263
1683126373827230000,1.63922998046875,2.992769718170166,-6.46469259262085,1.4810701608657837
1683126373845060600,1.657060546875,3.1070609092712402,-6.4564080238342285,1.5265834331512451
1683126373862914600,1.67491455078125,2.9015679359436035,-6.531633377075195,1.5389496088027954
1683126373880754400,1.69275439453125,3.0766029357910156,-6.5056047439575195,1.5619782209396362
1683126373898589200,1.710589111328125,2.986184597015381,-6.538779258728027,1.5837782621383667
1683126373916438300,1.728438232421875,2.8958754539489746,-6.537600517272949,1.5412542819976807
1683126373934272800,1.746272705078125,2.998471736907959,-6.5309343338012695,1.5371536016464233
1683126373952111900,1.76411181640625,2.99442720413208,-6.44529390335083,1.47212553024292
1683126373969953500,1.78195361328125,3.104569435119629,-6.441397666931152,1.516426682472229
1683126373987795000,1.799794921875,2.884495258331299,-6.531167984008789,1.5340161323547363
1683126374005631700,1.8176318359375,2.9849300384521484,-6.476623058319092,1.5450279712677002
1683126374023470800,1.835470947265625,2.9510316848754883,-6.5204176902771,1.5885040760040283
1683126374041312000,1.85331201171875,2.9088263511657715,-6.530557155609131,1.5444846153259277
1683126374059150600,1.871150634765625,2.9469127655029297,-6.5037360191345215,1.5274090766906738
1683126374076990700,1.88899072265625,2.985344409942627,-6.433707237243652,1.4625344276428223
1683126374094830800,1.906830810546875,3.0290064811706543,-6.414125919342041,1.513789176940918
1683126374112669400,1.92466943359375,2.9026150703430176,-6.510397911071777,1.5338337421417236
1683126374130510000,1.942510009765625,2.920584201812744,-6.4615912437438965,1.5423760414123535
1683126374148349200,1.96034912109375,2.86649751663208,-6.499795913696289,1.5849480628967285
1683126374166189300,1.978189208984375,2.953385829925537,-6.495059490203857,1.5426223278045654
1683126374184024300,1.9960244140625,2.8776230812072754,-6.508790969848633,1.5441385507583618
1683126374201868800,2.013868896484375,2.9892473220825195,-6.427769184112549,1.4439988136291504
1683126374219708200,2.031708251953125,3.0063443183898926,-6.38563346862793,1.4922658205032349
1683126374237548300,2.04954833984375,2.859123706817627,-6.49229097366333,1.537806749343872
1683126374255387400,2.067387451171875,2.8808059692382812,-6.430326461791992,1.529556393623352
1683126374273224200,2.08522412109375,2.8497934341430664,-6.455422401428223,1.5542571544647217
1683126374291069700,2.103069580078125,2.950066566467285,-6.476083278656006,1.5334053039550781
1683126374308906800,2.12090673828125,2.863105297088623,-6.473764896392822,1.5410733222961426
1683126374326745900,2.138745849609375,2.927450180053711,-6.39064359664917,1.4374727010726929
1683126374344581600,2.15658154296875,2.9950156211853027,-6.35726261138916,1.4774115085601807
1683126374362425300,2.17442529296875,2.8596410751342773,-6.444957256317139,1.5277076959609985
1683126374380265500,2.192265380859375,2.87166690826416,-6.418193817138672,1.5359604358673096
1683126374398104300,2.210104248046875,2.825596332550049,-6.4331183433532715,1.5530436038970947
1683126374415940000,2.227940185546875,2.93642520904541,-6.441927909851074,1.5312696695327759
1683126374433783800,2.24578369140625,2.865993022918701,-6.460694789886475,1.553256869316101
1683126374451624400,2.26362451171875,2.873220920562744,-6.359809875488281,1.4370259046554565
1683126374469462000,2.2814619140625,2.934621810913086,-6.3420610427856445,1.4648356437683105
1683126374487304400,2.299304443359375,2.8644933700561523,-6.446452617645264,1.5387191772460938
1683126374505143000,2.31714306640625,2.812793254852295,-6.409280776977539,1.523740530014038
1683126374522982700,2.334982666015625,2.829371452331543,-6.404090404510498,1.5457853078842163
1683126374540821500,2.352821533203125,2.8467984199523926,-6.4070329666137695,1.5170557498931885
1683126374558662100,2.370662109375,2.8750805854797363,-6.43588924407959,1.5538896322250366
1683126374576501000,2.3885009765625,2.8788628578186035,-6.325771331787109,1.4328464269638062
1683126374594323000,2.406322998046875,2.8327198028564453,-6.316117763519287,1.435838222503662
1683126374612180500,2.424180419921875,2.9012327194213867,-6.384446620941162,1.507899284362793
1683126374630018000,2.44201806640625,2.761653423309326,-6.367982387542725,1.5060372352600098
1683126374647863000,2.459863037109375,2.7984871864318848,-6.37507963180542,1.5400460958480835
1683126374665695500,2.477695556640625,2.8454270362854004,-6.37666654586792,1.5205676555633545
1683126374683539500,2.49553955078125,2.8285536766052246,-6.403329372406006,1.5700953006744385
1683126374701379600,2.513379638671875,2.8750314712524414,-6.326020240783691,1.4487512111663818
1683126374719207000,2.53120703125,2.761125087738037,-6.2859625816345215,1.4259095191955566
1683126374737059000,2.54905908203125,2.905829906463623,-6.335232257843018,1.5047355890274048
1683126374754894800,2.566894775390625,2.73997163772583,-6.3441033363342285,1.5000640153884888
1683126374772741000,2.5847412109375,2.783580780029297,-6.336893558502197,1.5386340618133545
1683126374790577200,2.6025771484375,2.807465076446533,-6.384568691253662,1.5298537015914917
1683126374808417300,2.620417236328125,2.780776023864746,-6.3830671310424805,1.559394359588623
1683126374826256400,2.63825634765625,2.8478121757507324,-6.32181453704834,1.4694342613220215
1683126374844096800,2.6560966796875,2.695744037628174,-6.280238151550293,1.4468530416488647
1683126374861936400,2.673936279296875,2.8271474838256836,-6.289769649505615,1.4931931495666504
1683126374879773700,2.691773681640625,2.7854747772216797,-6.333440780639648,1.4987930059432983
1683126374897618400,2.709618408203125,2.777310848236084,-6.291745662689209,1.5195448398590088
1683126374915451000,2.727450927734375,2.7636938095092773,-6.331229209899902,1.5154733657836914
1683126374933294600,2.745294677734375,2.7447757720947266,-6.338980674743652,1.5468709468841553
1683126374951134200,2.76313427734375,2.832575798034668,-6.306848049163818,1.462281346321106
1683126374968970500,2.780970458984375,2.7166504859924316,-6.2497968673706055,1.4370518922805786
1683126374986813200,2.798813232421875,2.7816195487976074,-6.249239444732666,1.4928362369537354
1683126375004653600,2.816653564453125,2.74825382232666,-6.285532474517822,1.471296787261963
1683126375022494000,2.834493896484375,2.816662311553955,-6.244308948516846,1.5075355768203735
1683126375040331500,2.85233154296875,2.6764283180236816,-6.307781219482422,1.508137822151184
1683126375058174000,2.870174072265625,2.720874786376953,-6.284206390380859,1.5102744102478027
1683126375076008000,2.888008056640625,2.773967742919922,-6.264534950256348,1.457772135734558
1683126375093852700,2.905852783203125,2.7092337608337402,-6.226987838745117,1.429286003112793
1683126375111691300,2.923691162109375,2.7719225883483887,-6.209465026855469,1.469024896621704
1683126375129531000,2.94153076171875,2.67781400680542,-6.2469282150268555,1.4618239402770996
1683126375147371800,2.959371826171875,2.8107919692993164,-6.204158306121826,1.5058043003082275
1683126375165211000,2.9772109375,2.6127800941467285,-6.256368637084961,1.5067375898361206
1683126375183050000,2.995050048828125,2.700387954711914,-6.261210918426514,1.495371699333191
1683126375200879600,3.012879638671875,2.749422550201416,-6.229250431060791,1.4514585733413696
1683126375218729700,3.030729736328125,2.696476459503174,-6.154757022857666,1.4176088571548462
1683126375236565000,3.04856494140625,2.7761383056640625,-6.162558555603027,1.4540796279907227
1683126375254408700,3.06640869140625,2.5919055938720703,-6.193583965301514,1.4502307176589966
1683126375272249300,3.084249267578125,2.813260555267334,-6.169098854064941,1.4783406257629395
1683126375290088200,3.102088134765625,2.603438377380371,-6.2389936447143555,1.5267047882080078
1683126375307923700,3.119923828125,2.6015162467956543,-6.223202228546143,1.4857511520385742
1683126375325767400,3.137767333984375,2.7111287117004395,-6.201661109924316,1.4430543184280396
1683126375343608000,3.155608154296875,2.6437487602233887,-6.1280598640441895,1.4114173650741577
1683126375361430300,3.17343017578125,2.7443699836730957,-6.135143280029297,1.4542316198349
1683126375379288300,3.191288330078125,2.5590691566467285,-6.1838297843933105,1.455533504486084
1683126375397122600,3.20912255859375,2.727360248565674,-6.140988349914551,1.4667129516601562
1683126375414967000,3.226967041015625,2.6144113540649414,-6.209449768066406,1.525804877281189
1683126375432808700,3.24480859375,2.5416784286499023,-6.194459915161133,1.4931204319000244
1683126375450645800,3.262645751953125,2.6097521781921387,-6.181373119354248,1.4541049003601074
1683126375468484600,3.280484619140625,2.6465635299682617,-6.094081878662109,1.3971500396728516
1683126375486325200,3.2983251953125,2.6966419219970703,-6.090508460998535,1.4424760341644287
1683126375504164600,3.31616455078125,2.55928373336792,-6.1458024978637695,1.4305506944656372
1683126375522001400,3.33400146484375,2.6314501762390137,-6.094267845153809,1.4462970495224
1683126375539832000,3.35183203125,2.551041603088379,-6.161994457244873,1.503563404083252
1683126375557678800,3.369678955078125,2.532092571258545,-6.166967868804932,1.4731974601745605
1683126375575525600,3.387525634765625,2.5593771934509277,-6.136862754821777,1.4472211599349976
1683126375593363200,3.40536328125,2.6386046409606934,-6.0679707527160645,1.368491291999817
1683126375611202000,3.4232021484375,2.6238536834716797,-6.047259330749512,1.4260978698730469
1683126375629042400,3.44104248046875,2.5319604873657227,-6.108482360839844,1.4366018772125244
1683126375646878500,3.45887841796875,2.560502529144287,-6.057430744171143,1.4287333488464355
1683126375664724500,3.476724365234375,2.480879783630371,-6.1373090744018555,1.5019804239273071
1683126375682559500,3.4945595703125,2.5391383171081543,-6.127902984619141,1.4715170860290527
1683126375700402000,3.51240185546875,2.4877262115478516,-6.117588996887207,1.4533371925354004
1683126375718240000,3.530239990234375,2.621457576751709,-6.033181667327881,1.3644951581954956
1683126375736068900,3.54806884765625,2.589266777038574,-6.009199142456055,1.4145439863204956
1683126375753916200,3.565916259765625,2.482105255126953,-6.08465051651001,1.4278205633163452
1683126375771757300,3.58375732421875,2.5119142532348633,-6.011971950531006,1.4229071140289307
1683126375789599200,3.60159912109375,2.4354500770568848,-6.06500244140625,1.4697840213775635
1683126375807441000,3.61944091796875,2.531200885772705,-6.086882591247559,1.461414098739624
1683126375825278000,3.63727783203125,2.456894874572754,-6.072356224060059,1.4658558368682861
1683126375843112700,3.65511279296875,2.535733699798584,-5.986172199249268,1.3426698446273804
1683126375860955400,3.672955322265625,2.5877933502197266,-5.968287944793701,1.3926963806152344
1683126375878797800,3.6907978515625,2.458415985107422,-6.025594711303711,1.4075038433074951
1683126375896637700,3.7086376953125,2.4513587951660156,-5.987269878387451,1.4123245477676392
1683126375914476800,3.726476806640625,2.4280643463134766,-6.0139665603637695,1.450735330581665
1683126375932316200,3.744316162109375,2.4942727088928223,-6.031911849975586,1.438381314277649
1683126375950156300,3.76215625,2.4422903060913086,-6.048590183258057,1.4738811254501343
1683126375967995100,3.7799951171875,2.477633476257324,-5.954794883728027,1.33439040184021
1683126375985821200,3.7978212890625,2.5132741928100586,-5.941460609436035,1.3713808059692383
1683126376003676700,3.8156767578125,2.455453395843506,-6.016380310058594,1.4262073040008545
1683126376021513200,3.83351318359375,2.3955278396606445,-5.946227550506592,1.4038984775543213
1683126376039357000,3.85135693359375,2.4312005043029785,-5.9616780281066895,1.435307264328003
1683126376057183000,3.869182861328125,2.411308765411377,-5.985522747039795,1.4372895956039429
1683126376075033600,3.88703369140625,2.4253387451171875,-6.009255886077881,1.4651319980621338
1683126376092873700,3.904873779296875,2.4581966400146484,-5.908296585083008,1.3390945196151733
1683126376110712800,3.922712890625,2.413151264190674,-5.887779712677002,1.349431037902832
1683126376128553000,3.940552978515625,2.477025032043457,-5.934717655181885,1.3985371589660645
1683126376146392600,3.958392578125,2.339596748352051,-5.906940460205078,1.3972655534744263
1683126376164232200,3.976232177734375,2.4070658683776855,-5.915172576904297,1.4150962829589844
1683126376182071300,3.9940712890625,2.3899660110473633,-5.94708251953125,1.424407958984375
1683126376199911400,4.011911376953125,2.3917665481567383,-5.967527866363525,1.4746981859207153
1683126376217739500,4.029739501953125,2.433870315551758,-5.883405685424805,1.3459159135818481
1683126376235591400,4.04759130859375,2.32376766204834,-5.831584453582764,1.3288406133651733
1683126376253419500,4.06541943359375,2.4643349647521973,-5.874115943908691,1.3994907140731812
1683126376271269400,4.083269287109375,2.3235554695129395,-5.872134208679199,1.3859961032867432
1683126376289106400,4.1011064453125,2.3439245223999023,-5.871897220611572,1.408513069152832
1683126376306952700,4.11895263671875,2.3595643043518066,-5.934554576873779,1.4305193424224854
1683126376324784000,4.1367841796875,2.328052043914795,-5.928874969482422,1.4626109600067139
1683126376342617000,4.1546171875,2.4095048904418945,-5.8681817054748535,1.3603764772415161
1683126376360457000,4.17245703125,2.2769079208374023,-5.824626922607422,1.3338173627853394
1683126376378308600,4.19030859375,2.3784217834472656,-5.821579456329346,1.3832643032073975
1683126376396147700,4.208147705078125,2.340578079223633,-5.827043056488037,1.3660615682601929
1683126376413990400,4.225990478515625,2.3729195594787598,-5.788802623748779,1.3817847967147827
1683126376431826700,4.24382666015625,2.2897706031799316,-5.863278388977051,1.404829978942871
1683126376449665500,4.26166552734375,2.3126697540283203,-5.872722625732422,1.445603847503662
1683126376467507200,4.279507080078125,2.3522205352783203,-5.82089900970459,1.3541336059570312
1683126376485346000,4.297345947265625,2.273932456970215,-5.779041290283203,1.3267256021499634
1683126376503185700,4.315185546875,2.334702968597412,-5.772407054901123,1.3705995082855225
1683126376521025800,4.33302587890625,2.2952933311462402,-5.771140098571777,1.3423728942871094
1683126376538865000,4.350864990234375,2.369631767272949,-5.732614517211914,1.3769268989562988
1683126376556705000,4.368705078125,2.2096500396728516,-5.807856559753418,1.4008930921554565
1683126376574544100,4.386544189453125,2.2643332481384277,-5.806151390075684,1.4134026765823364
1683126376592381700,4.404381591796875,2.305835723876953,-5.77623987197876,1.3529341220855713
1683126376610226000,4.422225830078125,2.260322093963623,-5.72905158996582,1.3069738149642944
1683126376628063500,4.4400634765625,2.295032501220703,-5.727420806884766,1.3646248579025269
1683126376645898200,4.457898193359375,2.2044434547424316,-5.731378078460693,1.3304342031478882
1683126376663740200,4.475740234375,2.387448310852051,-5.682882785797119,1.3573436737060547
1683126376681585000,4.4935849609375,2.1361565589904785,-5.764214515686035,1.3964933156967163
1683126376699422000,4.511421875,2.219850540161133,-5.758266925811768,1.3872921466827393
1683126376717261300,4.52926123046875,2.26548433303833,-5.7151780128479,1.3357025384902954
1683126376735102000,4.54710205078125,2.212554454803467,-5.683417320251465,1.306626796722412
1683126376752940300,4.564940185546875,2.3023681640625,-5.675506114959717,1.3450945615768433
1683126376770780000,4.58277978515625,2.127903938293457,-5.689024925231934,1.3167593479156494
1683126376788619800,4.600619873046875,2.3196663856506348,-5.648000240325928,1.3460478782653809
1683126376806462000,4.6184619140625,2.1334409713745117,-5.740565776824951,1.403171420097351
1683126376824299300,4.63629931640625,2.111630916595459,-5.703528881072998,1.3781332969665527
1683126376842139600,4.6541396484375,2.1588048934936523,-5.691389560699463,1.343846321105957
1683126376859978800,4.671978759765625,2.179612636566162,-5.6202073097229,1.2939130067825317
1683126376877817000,4.689817138671875,2.2409896850585938,-5.6412506103515625,1.343976378440857
1683126376895658200,4.707658203125,2.1145429611206055,-5.665802955627441,1.3211029767990112
1683126376913496800,4.725496826171875,2.2296552658081055,-5.589088439941406,1.3214577436447144
1683126376931340800,4.7433408203125,2.1207127571105957,-5.6872992515563965,1.3932465314865112
1683126376949177600,4.761177490234375,2.0581517219543457,-5.673369884490967,1.3697930574417114
1683126376967012000,4.77901220703125,2.1171741485595703,-5.644459247589111,1.3308477401733398
1683126376984856800,4.79685693359375,2.182363510131836,-5.575836658477783,1.2817094326019287
1683126377002684200,4.81468408203125,2.181619644165039,-5.578254222869873,1.3204350471496582
1683126377020535300,4.832535400390625,2.0854506492614746,-5.588464736938477,1.3072484731674194
1683126377038374000,4.850373779296875,2.162731170654297,-5.540499687194824,1.3002259731292725
1683126377056218600,4.868218505859375,2.06187105178833,-5.636978626251221,1.3814127445220947
1683126377074049800,4.8860498046875,2.071634292602539,-5.628506660461426,1.3632198572158813
1683126377091893800,4.903893798828125,2.0188398361206055,-5.601770401000977,1.3340141773223877
1683126377109731300,4.9217314453125,2.16587495803833,-5.512779712677002,1.2453842163085938
1683126377127574300,4.93957421875,2.1332950592041016,-5.530449867248535,1.3087542057037354
1683126377145413400,4.957413330078125,2.0424108505249023,-5.552584171295166,1.3031566143035889
1683126377163253800,4.975253662109375,2.086142063140869,-5.474787712097168,1.270758867263794
1683126377181093600,4.99309375,2.0052099227905273,-5.566798686981201,1.3627965450286865
1683126377198932700,5.0109326171875,2.05802059173584,-5.571568012237549,1.343696117401123
1683126377216772000,5.028772216796875,1.9743156433105469,-5.557181358337402,1.3427506685256958
1683126377234612200,5.0466123046875,2.121859073638916,-5.470821380615234,1.2380133867263794
1683126377252451000,5.064451171875,2.107785701751709,-5.470556735992432,1.2843444347381592
1683126377270291700,5.082291748046875,2.0326671600341797,-5.483335971832275,1.2676653861999512
1683126377288126200,5.100126220703125,2.028449058532715,-5.429233074188232,1.2708674669265747
1683126377305971000,5.117970947265625,1.9939370155334473,-5.4895453453063965,1.3332756757736206
1683126377323809800,5.135809814453125,2.026309013366699,-5.515456676483154,1.3309659957885742
1683126377341649200,5.153649169921875,1.9713935852050781,-5.51298713684082,1.3501580953598022
1683126377359489800,5.17148974609375,2.025078296661377,-5.417776584625244,1.213021993637085
1683126377377331000,5.1893310546875,2.073183059692383,-5.441150188446045,1.2794339656829834
1683126377395161300,5.207161376953125,1.9854888916015625,-5.452281951904297,1.2783221006393433
1683126377413008100,5.225008056640625,1.9604754447937012,-5.3942766189575195,1.2586135864257812
1683126377430849300,5.242849365234375,1.9638786315917969,-5.432234287261963,1.3114969730377197
1683126377448681500,5.260681396484375,1.9642882347106934,-5.461698532104492,1.3166940212249756
1683126377466527200,5.27852734375,1.954397201538086,-5.469878673553467,1.3429492712020874
1683126377484359200,5.296359130859375,1.9701995849609375,-5.378408432006836,1.231632113456726
1683126377502206700,5.314206787109375,1.9817843437194824,-5.375555038452148,1.2542306184768677
1683126377520041700,5.332041748046875,2.020113945007324,-5.400050163269043,1.2666987180709839
1683126377537886500,5.349886474609375,1.8523235321044922,-5.338056564331055,1.2447103261947632
1683126377555726600,5.3677265625,1.962134838104248,-5.364063739776611,1.282370924949646
1683126377573553700,5.3855537109375,1.9115967750549316,-5.397812366485596,1.3052161931991577
1683126377591402000,5.403402099609375,1.9345417022705078,-5.409821510314941,1.3357487916946411
1683126377609245000,5.421244873046875,1.9715638160705566,-5.3323211669921875,1.2190444469451904
1683126377627085300,5.439085205078125,1.8859224319458008,-5.31198263168335,1.2169010639190674
1683126377644924000,5.456923828125,2.0146098136901855,-5.3274617195129395,1.2623744010925293
1683126377662763500,5.474763427734375,1.8320927619934082,-5.287689208984375,1.2531912326812744
1683126377680604700,5.492604736328125,1.9077463150024414,-5.292757511138916,1.2636669874191284
1683126377698441200,5.510441162109375,1.882890224456787,-5.355164051055908,1.3008606433868408
1683126377716285700,5.52828564453125,1.8953032493591309,-5.3657636642456055,1.345746397972107
1683126377734118700,5.54611865234375,1.9413862228393555,-5.29609489440918,1.2227622270584106
1683126377751962000,5.563962158203125,1.8192758560180664,-5.266627788543701,1.2091838121414185
1683126377769802800,5.581802734375,1.9678101539611816,-5.267737865447998,1.2536154985427856
1683126377787641300,5.599641357421875,1.8291120529174805,-5.243570327758789,1.2263623476028442
1683126377805481700,5.617481689453125,1.8689208030700684,-5.247870922088623,1.2502415180206299
1683126377823321300,5.6353212890625,1.856431007385254,-5.322930335998535,1.2904304265975952
1683126377841161000,5.653160888671875,1.8397860527038574,-5.3182830810546875,1.3237963914871216
1683126377859000000,5.671,1.876676082611084,-5.254116058349609,1.231307029724121
1683126377876840400,5.68884033203125,1.7910447120666504,-5.218358516693115,1.1999475955963135
1683126377894679600,5.706679443359375,1.9004201889038086,-5.222959518432617,1.2446964979171753
1683126377912519700,5.724519775390625,1.8421335220336914,-5.1936469078063965,1.2174761295318604
1683126377930359000,5.742359130859375,1.87994384765625,-5.159412860870361,1.213919997215271
1683126377948199200,5.76019921875,1.7753362655639648,-5.2484517097473145,1.2550245523452759
1683126377966038000,5.7780380859375,1.83945894241333,-5.240079879760742,1.3100390434265137
1683126377983882200,5.79588232421875,1.8195500373840332,-5.199606418609619,1.217241644859314
1683126378001717200,5.81371728515625,1.7846765518188477,-5.180027484893799,1.1946288347244263
1683126378019547600,5.831547607421875,1.8381743431091309,-5.160547256469727,1.2227553129196167
1683126378037398300,5.849398193359375,1.8001489639282227,-5.126455307006836,1.177337408065796
1683126378055230700,5.867230712890625,1.8869428634643555,-5.08991003036499,1.2101011276245117
1683126378073078000,5.885078125,1.6785426139831543,-5.1883320808410645,1.2504295110702515
1683126378090916600,5.90291650390625,1.8068346977233887,-5.171964168548584,1.2693591117858887
1683126378108755500,5.92075537109375,1.7908821105957031,-5.133098602294922,1.2148704528808594
1683126378126595800,5.938595947265625,1.7264299392700195,-5.112677574157715,1.1670078039169312
1683126378144428300,5.95642822265625,1.793534278869629,-5.1213059425354,1.2174794673919678
1683126378162275600,5.974275634765625,1.7256288528442383,-5.075928211212158,1.1653589010238647
1683126378180111400,5.992111328125,1.8841638565063477,-5.031377792358398,1.1945466995239258
1683126378197957400,6.009957275390625,1.6289596557617188,-5.141243934631348,1.2369402647018433
1683126378215784700,6.02778466796875,1.745152473449707,-5.109440803527832,1.2351369857788086
1683126378233633800,6.0456337890625,1.7676067352294922,-5.088006496429443,1.2158715724945068
1683126378251473000,6.063472900390625,1.6699581146240234,-5.0701189041137695,1.1768858432769775
1683126378269301500,6.081301513671875,1.7867498397827148,-5.058656215667725,1.197167158126831
1683126378287152400,6.09915234375,1.6724910736083984,-5.03486442565918,1.1525310277938843
1683126378304988000,6.11698779296875,1.8243446350097656,-4.984519004821777,1.1783133745193481
1683126378322831600,6.13483154296875,1.622079849243164,-5.109035015106201,1.237241506576538
1683126378340672000,6.152672119140625,1.6386680603027344,-5.054433822631836,1.2370790243148804
1683126378358510800,6.1705107421875,1.6791810989379883,-5.0355987548828125,1.2005300521850586
1683126378376347600,6.18834765625,1.6814699172973633,-5.002987384796143,1.152779221534729
1683126378394190000,6.206190185546875,1.710453987121582,-5.015833377838135,1.196792721748352
1683126378412031000,6.224031005859375,1.6405439376831055,-4.995421409606934,1.1366549730300903
1683126378429868500,6.24186865234375,1.7583684921264648,-4.923543453216553,1.1575759649276733
1683126378447711200,6.259711181640625,1.6139850616455078,-5.054455280303955,1.2294296026229858
1683126378465549000,6.277549072265625,1.5564050674438477,-4.996006488800049,1.209252119064331
1683126378483389400,6.295389404296875,1.5952882766723633,-4.991157531738281,1.1928081512451172
1683126378501227300,6.313227294921875,1.6886606216430664,-4.938176155090332,1.1420729160308838
1683126378519070000,6.331070068359375,1.650766372680664,-4.947503089904785,1.17434823513031
1683126378536908000,6.348907958984375,1.6232528686523438,-4.929870128631592,1.122926950454712
1683126378554748200,6.366748046875,1.677236557006836,-4.862524032592773,1.1286998987197876
1683126378572587000,6.3845869140625,1.573634147644043,-4.9837236404418945,1.2153664827346802
1683126378590427400,6.402427490234375,1.5510025024414062,-4.955652236938477,1.2029305696487427
1683126378608266200,6.420266357421875,1.5174360275268555,-4.929439544677734,1.180474877357483
1683126378626094000,6.438093994140625,1.6721124649047852,-4.881795883178711,1.121476173400879
1683126378643942400,6.4559423828125,1.6087350845336914,-4.903653621673584,1.1540058851242065
1683126378661786000,6.4737861328125,1.549778938293457,-4.865699768066406,1.121620774269104
1683126378679625500,6.49162548828125,1.621962547302246,-4.801582336425781,1.1093699932098389
1683126378697461000,6.5094609375,1.5118217468261719,-4.9267578125,1.2051260471343994
1683126378715304200,6.52730419921875,1.567448616027832,-4.900185585021973,1.1905425786972046
1683126378733135400,6.54513525390625,1.4840192794799805,-4.883661270141602,1.189103364944458
1683126378750985500,6.5629853515625,1.6164894104003906,-4.8257317543029785,1.1022084951400757
1683126378768825000,6.5808251953125,1.6024141311645508,-4.855391025543213,1.164006233215332
1683126378786663200,6.5986630859375,1.5482864379882812,-4.796970844268799,1.0849277973175049
1683126378804503600,6.616503662109375,1.5325822830200195,-4.75832986831665,1.0894161462783813
1683126378822331000,6.634330810546875,1.507730484008789,-4.83985710144043,1.183379888534546
1683126378840183800,6.652183837890625,1.5071420669555664,-4.852766990661621,1.1849497556686401
1683126378858021600,6.670021728515625,1.480391502380371,-4.832467079162598,1.1871356964111328
1683126378875862000,6.687862060546875,1.531890869140625,-4.767697334289551,1.077564001083374
1683126378893699300,6.70569921875,1.578537940979004,-4.794309616088867,1.1346763372421265
1683126378911543600,6.72354345703125,1.5262928009033203,-4.751707077026367,1.0949997901916504
1683126378929380400,6.74138037109375,1.4834880828857422,-4.7082014083862305,1.077746033668518
1683126378947216100,6.759216064453125,1.5199775695800781,-4.761345386505127,1.1442773342132568
1683126378965059300,6.777059326171875,1.4596366882324219,-4.784904479980469,1.153735876083374
1683126378982901200,6.7949013671875,1.4457902908325195,-4.774481773376465,1.1841000318527222
1683126379000739000,6.812739013671875,1.4758853912353516,-4.723554611206055,1.0892354249954224
1683126379018579500,6.830579345703125,1.5126285552978516,-4.730615615844727,1.1248180866241455
1683126379036418600,6.84841845703125,1.5274734497070312,-4.710860252380371,1.0994503498077393
1683126379054259000,6.866259033203125,1.383143424987793,-4.640071392059326,1.065527081489563
1683126379072095000,6.884094970703125,1.4950218200683594,-4.69003438949585,1.1175713539123535
1683126379089937200,6.901937255859375,1.4088802337646484,-4.7279791831970215,1.1367599964141846
1683126379107781400,6.919781494140625,1.4441051483154297,-4.714022159576416,1.1857949495315552
1683126379125617700,6.93761767578125,1.4633798599243164,-4.682413578033447,1.0759838819503784
1683126379143455500,6.95545556640625,1.4121932983398438,-4.661334991455078,1.097343921661377
1683126379161293300,6.973293212890625,1.5359525680541992,-4.650959491729736,1.0833232402801514
1683126379179136500,6.991136474609375,1.3341913223266602,-4.600769996643066,1.069036602973938
1683126379196973800,7.008973876953125,1.4554357528686523,-4.619400978088379,1.098777174949646
1683126379214818600,7.026818603515625,1.4181671142578125,-4.672337532043457,1.12064790725708
1683126379232644000,7.04464404296875,1.4313583374023438,-4.6534929275512695,1.1738510131835938
1683126379250494700,7.06249462890625,1.4551143646240234,-4.611611843109131,1.0696372985839844
1683126379268321500,7.080321533203125,1.360764503479004,-4.597716808319092,1.0660367012023926
1683126379286174000,7.098174072265625,1.5065908432006836,-4.608116626739502,1.0960171222686768
1683126379304003600,7.116003662109375,1.3404197692871094,-4.558507919311523,1.0622460842132568
1683126379321850600,7.1338505859375,1.4055852890014648,-4.562039852142334,1.0884073972702026
1683126379339697000,7.15169677734375,1.3694400787353516,-4.624094486236572,1.1088931560516357
1683126379357533000,7.169532958984375,1.4143314361572266,-4.602959156036377,1.1544119119644165
1683126379375373000,7.187373046875,1.3996973037719727,-4.572700500488281,1.0760127305984497
1683126379393211100,7.205211181640625,1.3236284255981445,-4.550867080688477,1.0556838512420654
1683126379411045000,7.223045166015625,1.4343070983886719,-4.542937755584717,1.072586178779602
1683126379428891400,7.240891357421875,1.366729736328125,-4.489626884460449,1.0483518838882446
1683126379446721800,7.2587216796875,1.4151010513305664,-4.465368747711182,1.0563219785690308
1683126379464569000,7.276569091796875,1.3018732070922852,-4.557859420776367,1.0937912464141846
1683126379482411000,7.294410888671875,1.4103813171386719,-4.535266876220703,1.1415724754333496
1683126379500250400,7.31225048828125,1.3222551345825195,-4.5014328956604,1.075353741645813
1683126379518078500,7.330078369140625,1.3049640655517578,-4.501501560211182,1.0500119924545288
1683126379535926000,7.347926025390625,1.3875694274902344,-4.485718727111816,1.0505448579788208
1683126379553770000,7.36577001953125,1.3541679382324219,-4.408971786499023,1.001591444015503
1683126379571606500,7.3836064453125,1.415018081665039,-4.391276836395264,1.0436681509017944
1683126379589435400,7.401435302734375,1.2208642959594727,-4.481310844421387,1.0634567737579346
1683126379607289000,7.4192890625,1.3988418579101562,-4.464474201202393,1.1057196855545044
1683126379625128700,7.437128662109375,1.3082008361816406,-4.448073863983154,1.0733494758605957
1683126379642959000,7.454958984375,1.2420530319213867,-4.443731784820557,1.0214401483535767
1683126379660807700,7.4728076171875,1.3544988632202148,-4.438200950622559,1.0429186820983887
1683126379678647300,7.490647216796875,1.2837934494018555,-4.361743450164795,0.988096296787262
1683126379696485600,7.508485595703125,1.4230384826660156,-4.33804988861084,1.0318281650543213
1683126379714323500,7.526323486328125,1.158498764038086,-4.441944599151611,1.0624395608901978
1683126379732167000,7.5441669921875,1.317336082458496,-4.408200263977051,1.073595404624939
1683126379750005800,7.562005859375,1.3046073913574219,-4.408671855926514,1.0730938911437988
1683126379767848000,7.579847900390625,1.1840744018554688,-4.399900436401367,1.0192151069641113
1683126379785680400,7.597680419921875,1.293931007385254,-4.379558563232422,1.029826045036316
1683126379803525600,7.615525634765625,1.237563133239746,-4.320972919464111,0.9796169400215149
1683126379821362000,7.63336181640625,1.4120655059814453,-4.277154922485352,1.0069860219955444
1683126379839207700,7.651207763671875,1.1615533828735352,-4.393779754638672,1.058621883392334
1683126379857044000,7.6690439453125,1.225316047668457,-4.346039295196533,1.059126377105713
1683126379874884000,7.686884033203125,1.2367000579833984,-4.339499473571777,1.0601321458816528
1683126379892717300,7.70471728515625,1.1823291778564453,-4.340247631072998,1.0130558013916016
1683126379910563300,7.722563232421875,1.252176284790039,-4.3311262130737305,1.0179853439331055
1683126379928402400,7.74040234375,1.2307214736938477,-4.269188404083252,0.9556469917297363
1683126379946240300,7.758240234375,1.3091239929199219,-4.224634647369385,0.9979754090309143
1683126379964085000,7.7760849609375,1.1714973449707031,-4.345696926116943,1.0455588102340698
1683126379981922300,7.79392236328125,1.1417121887207031,-4.2833452224731445,1.0531209707260132
1683126379999761400,7.811761474609375,1.155411720275879,-4.297332763671875,1.05881929397583
1683126380017598500,7.829598388671875,1.2286005020141602,-4.281418323516846,0.9995882511138916
1683126380035436000,7.84743603515625,1.160959243774414,-4.295182228088379,1.0327963829040527
1683126380053282800,7.86528271484375,1.2068099975585938,-4.22021484375,0.9351117014884949
1683126380071120100,7.8831201171875,1.2684516906738281,-4.1580810546875,0.9734985828399658
1683126380088959500,7.90095947265625,1.1378183364868164,-4.288144111633301,1.0390715599060059
1683126380106795800,7.918795654296875,1.1228103637695312,-4.219757080078125,1.013488531112671
1683126380124639500,7.936639404296875,1.108449935913086,-4.223067760467529,1.0198255777359009
1683126380142478800,7.954478759765625,1.2042312622070312,-4.2223968505859375,0.9775437116622925
1683126380160317700,7.972317626953125,1.134108543395996,-4.220858097076416,1.0021343231201172
1683126380178159900,7.990159912109375,1.1696863174438477,-4.158114910125732,0.922074019908905
1683126380195998700,8.007998779296875,1.2420597076416016,-4.100368976593018,0.9412742853164673
1683126380213837800,8.025837890625,1.0981788635253906,-4.217155456542969,1.0106185674667358
1683126380231678000,8.043677978515625,1.1197338104248047,-4.181672096252441,1.0055137872695923
1683126380249520000,8.06152001953125,1.0608625411987305,-4.166211128234863,1.015594720840454
1683126380267358000,8.07935791015625,1.1947126388549805,-4.163894176483154,0.9751209616661072
1683126380285197000,8.097197021484375,1.1191892623901367,-4.172830104827881,1.000808835029602
1683126380303037000,8.115036865234375,1.1189775466918945,-4.098935604095459,0.9142854809761047
1683126380320873000,8.132873046875,1.1844911575317383,-4.0501604080200195,0.9187361598014832
1683126380338719000,8.150718994140625,1.0904779434204102,-4.15895938873291,1.0131804943084717
1683126380356550400,8.16855029296875,1.082265853881836,-4.1303911209106445,1.0029683113098145
1683126380374395400,8.1863955078125,1.0421772003173828,-4.117247581481934,1.0132169723510742
1683126380392237300,8.2042373046875,1.1149654388427734,-4.093777179718018,0.9615950584411621
1683126380410062800,8.222062744140626,1.1392145156860352,-4.122641563415527,0.9915812015533447
1683126380427909000,8.2399091796875,1.1186504364013672,-4.008243083953857,0.896101176738739
1683126380445737500,8.257737548828125,1.1086969375610352,-3.99695086479187,0.9070385098457336
1683126380463596000,8.275595947265625,1.0977363586425781,-4.101415157318115,0.9876139760017395
1683126380481432300,8.293432373046874,1.0328750610351562,-4.0851240158081055,0.9802843928337097
1683126380499273500,8.3112734375,1.0648164749145508,-4.063687324523926,1.0111867189407349
1683126380517100800,8.329100830078126,1.0591497421264648,-4.023293495178223,0.9442734718322754
1683126380534944000,8.346944091796875,1.1196460723876953,-4.064748287200928,0.9810121059417725
1683126380552792300,8.364792236328125,1.1039810180664062,-3.971911907196045,0.8990193605422974
1683126380570631200,8.382631103515624,1.0276460647583008,-3.9382472038269043,0.876074492931366
1683126380588471600,8.400471435546875,1.094161033630371,-4.007843017578125,0.9611029624938965
1683126380606310700,8.418310546875,0.9844226837158203,-4.012726783752441,0.9660516977310181
1683126380624150800,8.43615087890625,1.0144519805908203,-4.0012102127075195,0.9920728206634521
1683126380641971500,8.453971435546874,1.0551424026489258,-3.9982495307922363,0.949904203414917
1683126380659830300,8.471830322265625,1.0456619262695312,-4.012807369232178,0.9795553684234619
1683126380677657900,8.489657958984376,1.1066389083862305,-3.9454469680786133,0.9094406366348267
1683126380695510000,8.507510009765625,0.9506063461303711,-3.8800182342529297,0.8673169016838074
1683126380713350100,8.52535009765625,1.1021928787231445,-3.942432403564453,0.9385560154914856
1683126380731187500,8.5431875,0.9784078598022461,-3.9610228538513184,0.9440082907676697
1683126380749028000,8.561028076171874,1.0032148361206055,-3.938572406768799,0.9934118390083313
1683126380766865200,8.578865234375,1.0324792861938477,-3.9553496837615967,0.9350322484970093
1683126380784707600,8.59670751953125,0.9829435348510742,-3.947131872177124,0.9711081385612488
1683126380802547000,8.614546875,1.1120328903198242,-3.913386583328247,0.9100309610366821
1683126380820388400,8.632388427734375,0.9284934997558594,-3.8525052070617676,0.8832873106002808
1683126380838227200,8.650227294921875,1.031646728515625,-3.8713724613189697,0.922907829284668
1683126380856066300,8.66806640625,0.9809999465942383,-3.907041072845459,0.9268428087234497
1683126380873902600,8.685902587890626,1.0079498291015625,-3.8749520778656006,0.9673593044281006
1683126380891732200,8.703732177734375,0.9878501892089844,-3.890838146209717,0.9284742474555969
1683126380909585000,8.7215849609375,0.957249641418457,-3.8848657608032227,0.9441262483596802
1683126380927426000,8.739426025390625,1.0522594451904297,-3.8679263591766357,0.9070349931716919
1683126380945265400,8.757265380859375,0.9404411315917969,-3.796367883682251,0.8672515153884888
1683126380963104300,8.775104248046874,0.9975032806396484,-3.7965376377105713,0.9048693776130676
1683126380980944600,8.792944580078125,0.9491758346557617,-3.8539211750030518,0.9166094064712524
1683126380998784000,8.810783935546874,1.0294151306152344,-3.8186888694763184,0.9540247321128845
1683126381016623900,8.828623779296874,0.9211091995239258,-3.8305766582489014,0.9098950624465942
1683126381034463000,8.846462890625,0.9320993423461914,-3.8229129314422607,0.9142972230911255
1683126381052303600,8.8643037109375,1.0186166763305664,-3.800293445587158,0.8783931732177734
1683126381070142500,8.882142578125,0.9323759078979492,-3.7431447505950928,0.8553433418273926
1683126381087982600,8.899982666015624,1.0064449310302734,-3.724882125854492,0.8845050930976868
1683126381105821700,8.91782177734375,0.8968544006347656,-3.789313793182373,0.8877877593040466
1683126381123660500,8.93566064453125,1.0354957580566406,-3.7612876892089844,0.9389399886131287
1683126381141502200,8.953502197265625,0.8610115051269531,-3.7639381885528564,0.9056649804115295
1683126381159341800,8.971341796875,0.918095588684082,-3.766308069229126,0.8917580842971802
1683126381177180700,8.9891806640625,0.9908132553100586,-3.7484774589538574,0.8635326623916626
1683126381195021000,9.00702099609375,0.9275999069213867,-3.657651424407959,0.8332859873771667
1683126381212859600,9.024859619140624,1.011138916015625,-3.6664843559265137,0.8622515201568604
1683126381230700000,9.042699951171874,0.8396081924438477,-3.7214555740356445,0.8798433542251587
1683126381248539100,9.0605390625,1.043919563293457,-3.69636607170105,0.9059725999832153
1683126381266379300,9.078379150390624,0.8730840682983398,-3.725569009780884,0.925047755241394
1683126381284218600,9.096218505859374,0.8121728897094727,-3.703460693359375,0.8812270760536194
1683126381302058500,9.11405859375,0.9593515396118164,-3.704962968826294,0.8631668090820312
1683126381319897600,9.131897705078124,0.8970394134521484,-3.6115689277648926,0.8165028095245361
1683126381337738500,9.149738525390624,1.0032625198364258,-3.605992317199707,0.8564246892929077
1683126381355577300,9.167577392578124,0.7786493301391602,-3.6747074127197266,0.8637979030609131
1683126381373401000,9.185401123046875,0.9494552612304688,-3.637230634689331,0.8853037357330322
1683126381391257000,9.203257080078124,0.8782052993774414,-3.6684677600860596,0.9185547828674316
1683126381409094100,9.22109423828125,0.7893438339233398,-3.6620311737060547,0.8793010711669922
1683126381426939000,9.23893896484375,0.8950271606445312,-3.6673572063446045,0.8629603981971741
1683126381444772000,9.256772216796875,0.8772478103637695,-3.5624728202819824,0.7998339533805847
1683126381462615600,9.274615478515624,0.9693450927734375,-3.549570083618164,0.8445509672164917
1683126381480455700,9.29245556640625,0.7687749862670898,-3.6318359375,0.8591691851615906
1683126381498294500,9.31029443359375,0.8966541290283203,-3.5765583515167236,0.8625457882881165
1683126381516135200,9.32813525390625,0.8529853820800781,-3.6264076232910156,0.9059094190597534
1683126381533970700,9.345970703125,0.7771701812744141,-3.6338424682617188,0.8744423985481262
1683126381551814700,9.363814697265624,0.8518409729003906,-3.5955069065093994,0.8527725338935852
1683126381569652200,9.38165234375,0.8709373474121094,-3.517794609069824,0.7857450246810913
1683126381587495000,9.399494873046875,0.936314582824707,-3.5013344287872314,0.8229267001152039
1683126381605332700,9.417332763671874,0.7800054550170898,-3.5786733627319336,0.8444204330444336
1683126381623173000,9.435173095703124,0.8450832366943359,-3.532860279083252,0.848747193813324
1683126381641012000,9.453011962890624,0.7858400344848633,-3.5675363540649414,0.8936970233917236
1683126381658852900,9.470852783203124,0.785491943359375,-3.5640833377838135,0.8590459823608398
1683126381676691700,9.488691650390624,0.7791938781738281,-3.552255153656006,0.84117591381073
1683126381694532000,9.506531982421874,0.8760108947753906,-3.465980052947998,0.7546443939208984
1683126381712371000,9.524370849609374,0.8809099197387695,-3.4514033794403076,0.8186421394348145
1683126381730211000,9.542211181640624,0.7698593139648438,-3.532407283782959,0.8376717567443848
1683126381748050200,9.56005029296875,0.7903661727905273,-3.4542734622955322,0.8185755610466003
1683126381765886000,9.577885986328125,0.7425832748413086,-3.508653163909912,0.873954713344574
1683126381783729700,9.595729736328124,0.8022594451904297,-3.516313314437866,0.8377381563186646
1683126381801570000,9.613570068359374,0.7517557144165039,-3.5082955360412598,0.8522396087646484
1683126381819409200,9.6314091796875,0.8482646942138672,-3.414760112762451,0.7420564889907837
1683126381837249300,9.649249267578124,0.8766040802001953,-3.3851382732391357,0.7855607867240906
1683126381855088400,9.66708837890625,0.7404766082763672,-3.480156421661377,0.8160606622695923
1683126381872928800,9.6849287109375,0.7666101455688477,-3.402280330657959,0.8171137571334839
1683126381890765300,9.702765380859375,0.7125568389892578,-3.4371113777160645,0.8474836349487305
1683126381908611000,9.720611083984375,0.8040809631347656,-3.467562675476074,0.8269141912460327
1683126381926433000,9.73843310546875,0.750676155090332,-3.4529056549072266,0.8362529277801514
1683126381944276000,9.75627587890625,0.7880687713623047,-3.365830659866333,0.7282412648200989
1683126381962129400,9.77412939453125,0.8552980422973633,-3.341674566268921,0.7677175998687744
1683126381979966700,9.791966796875,0.74957275390625,-3.4156076908111572,0.8019222617149353
1683126381997806300,9.809806396484374,0.7350435256958008,-3.362441301345825,0.8092015981674194
1683126382015648000,9.82764794921875,0.7128009796142578,-3.3848140239715576,0.8314528465270996
1683126382033483500,9.8454833984375,0.7707834243774414,-3.3969993591308594,0.8110604286193848
1683126382051322600,9.863322509765625,0.7351312637329102,-3.4107086658477783,0.8569527864456177
1683126382069167600,9.881167724609375,0.7373390197753906,-3.3122215270996094,0.7231213450431824
1683126382086996000,9.898995849609374,0.8059730529785156,-3.2987217903137207,0.7483939528465271
1683126382104848000,9.916847900390625,0.7211332321166992,-3.383176803588867,0.8162911534309387
1683126382122684000,9.934683837890624,0.6802635192871094,-3.3292620182037354,0.7919610738754272
1683126382140520000,9.95252001953125,0.7265796661376953,-3.3309383392333984,0.8201471567153931
1683126382158364400,9.970364501953124,0.7021389007568359,-3.347421646118164,0.8054100275039673
1683126382176205600,9.98820556640625,0.7393646240234375,-3.3754618167877197,0.8370921611785889
1683126382194031400,10.00603125,0.7618875503540039,-3.249077796936035,0.7154675722122192
1683126382211881000,10.023880859375,0.7337837219238281,-3.2462427616119385,0.7199842929840088
1683126382229723400,10.041723388671874,0.7801780700683594,-3.308838367462158,0.7808933258056641
1683126382247561500,10.0595615234375,0.6366672515869141,-3.267737627029419,0.7715133428573608
1683126382265401600,10.077401611328124,0.7228612899780273,-3.270426034927368,0.8000005483627319
1683126382283240400,10.095240478515626,0.6698055267333984,-3.291844367980957,0.8011490702629089
1683126382301081000,10.1130810546875,0.7156105041503906,-3.3190417289733887,0.8305877447128296
1683126382318920000,10.130919921875,0.7383489608764648,-3.2092976570129395,0.7087345123291016
1683126382336756000,10.148755859375,0.670018196105957,-3.1869630813598633,0.6927834153175354
1683126382354599700,10.166599609375,0.7776784896850586,-3.227195978164673,0.7678989171981812
1683126382372439600,10.184439453125,0.6256589889526367,-3.22353458404541,0.7639437913894653
1683126382390278700,10.202278564453126,0.6744832992553711,-3.2196671962738037,0.7867465019226074
1683126382408114400,10.220114501953125,0.6753616333007812,-3.269806146621704,0.8015121221542358
1683126382425958100,10.237958251953126,0.6776189804077148,-3.2783091068267822,0.837556004524231
1683126382443798500,10.255798583984374,0.7357196807861328,-3.1884965896606445,0.7251431941986084
1683126382461636000,10.273635986328125,0.6006679534912109,-3.1503946781158447,0.6953336000442505
1683126382479478000,10.29147802734375,0.7603235244750977,-3.1634397506713867,0.7614848613739014
1683126382497318000,10.30931787109375,0.637913703918457,-3.1781792640686035,0.7399086356163025
1683126382515157000,10.327156982421876,0.6716985702514648,-3.1606693267822266,0.7799687385559082
1683126382532994800,10.344994873046875,0.6412715911865234,-3.2165071964263916,0.7908048629760742
1683126382550837500,10.36283740234375,0.656214714050293,-3.225969076156616,0.8233742713928223
1683126382568675300,10.38067529296875,0.7303533554077148,-3.15557599067688,0.7315391898155212
1683126382586515500,10.398515380859376,0.6171903610229492,-3.112806558609009,0.6907601356506348
1683126382604354600,10.4163544921875,0.7067251205444336,-3.1064155101776123,0.7496863603591919
1683126382622194700,10.434194580078126,0.6533803939819336,-3.130751609802246,0.7341190576553345
1683126382640031200,10.45203125,0.7022428512573242,-3.083984375,0.7412929534912109
1683126382657877500,10.46987744140625,0.621464729309082,-3.161482810974121,0.7732270956039429
1683126382675713300,10.48771337890625,0.6454067230224609,-3.159677028656006,0.8071885108947754
1683126382693542100,10.505542236328125,0.6791419982910156,-3.11557674407959,0.7190036773681641
1683126382711392800,10.523392822265626,0.6231479644775391,-3.066805601119995,0.6809138059616089
1683126382729233200,10.541233154296876,0.6826257705688477,-3.054813861846924,0.733378529548645
1683126382747072000,10.559072021484376,0.6285276412963867,-3.0699002742767334,0.7012238502502441
1683126382764912400,10.576912353515626,0.7327919006347656,-3.0228965282440186,0.7380492091178894
1683126382782750200,10.594750244140625,0.5529317855834961,-3.112187623977661,0.7607467174530029
1683126382800593000,10.612593017578124,0.6342010498046875,-3.0934042930603027,0.7797909379005432
1683126382818430700,10.6304306640625,0.6759262084960938,-3.0639967918395996,0.7088115811347961
1683126382836271400,10.648271240234376,0.5853910446166992,-3.025212049484253,0.6708940267562866
1683126382854105600,10.666105712890625,0.6875619888305664,-3.005064010620117,0.7294220924377441
1683126382871950300,10.683950439453126,0.5867795944213867,-3.0110816955566406,0.6861436367034912
1683126382889785000,10.70178515625,0.7281103134155273,-2.981503486633301,0.7307290434837341
1683126382907634000,10.719634033203125,0.5094490051269531,-3.049947738647461,0.7547781467437744
1683126382925469000,10.737468994140626,0.6164340972900391,-3.036255359649658,0.750684916973114
1683126382943309000,10.75530908203125,0.6638936996459961,-3.0223259925842285,0.7013871669769287
1683126382961148000,10.77314794921875,0.573185920715332,-2.963304281234741,0.6627321839332581
1683126382978988300,10.79098828125,0.6536970138549805,-2.9573094844818115,0.7105003595352173
1683126382996827600,10.80882763671875,0.5569553375244141,-2.9643077850341797,0.6746537685394287
1683126383014667500,10.82666748046875,0.7374534606933594,-2.9203991889953613,0.7038697004318237
1683126383032507000,10.8445068359375,0.4892120361328125,-3.0065863132476807,0.7562779784202576
1683126383050347000,10.862346923828126,0.5674266815185547,-2.9901976585388184,0.7368898391723633
1683126383068185900,10.880185791015625,0.6370563507080078,-2.95322847366333,0.6958585977554321
1683126383086026200,10.898026123046876,0.5574665069580078,-2.909695863723755,0.6595522165298462
1683126383103865900,10.915865966796876,0.6651268005371094,-2.9147162437438965,0.698840856552124
1683126383121705700,10.933705810546876,0.4964628219604492,-2.928074359893799,0.6689426898956299
1683126383139543800,10.951543701171875,0.6859970092773438,-2.879159927368164,0.6975910663604736
1683126383157386000,10.969385986328126,0.5221872329711914,-2.9804632663726807,0.7505902647972107
1683126383175219500,10.987219482421875,0.5068111419677734,-2.9354143142700195,0.7411926984786987
1683126383193064400,11.005064453125,0.5750522613525391,-2.9236843585968018,0.6881251335144043
1683126383210903300,11.0229033203125,0.5720052719116211,-2.864525318145752,0.6440182328224182
1683126383228740600,11.04074072265625,0.6119403839111328,-2.8783435821533203,0.6959001421928406
1683126383246573600,11.058573486328125,0.506464958190918,-2.896766185760498,0.6575590372085571
1683126383264422700,11.076422607421875,0.6365032196044922,-2.8224892616271973,0.6724135875701904
1683126383282262000,11.094261962890625,0.5213069915771484,-2.920856237411499,0.743523359298706
1683126383300089000,11.112089111328125,0.46688079833984375,-2.899184226989746,0.7232767343521118
1683126383317931800,11.129931884765625,0.5270977020263672,-2.880225658416748,0.6871057152748108
1683126383335781600,11.14778173828125,0.5908002853393555,-2.811570644378662,0.6369859576225281
1683126383353620700,11.165620849609375,0.5796699523925781,-2.8260366916656494,0.6826183199882507
1683126383371461000,11.183461181640626,0.5193405151367188,-2.845409393310547,0.6391211748123169
1683126383389300000,11.201300048828125,0.6088228225708008,-2.7794904708862305,0.6563979983329773
1683126383407140400,11.219140380859375,0.4807300567626953,-2.8704419136047363,0.7258977890014648
1683126383424974600,11.236974609375,0.46930980682373047,-2.85164737701416,0.701058566570282
1683126383442819600,11.254819580078125,0.4868478775024414,-2.82273530960083,0.6832336783409119
1683126383460658400,11.272658447265625,0.5925045013427734,-2.7691454887390137,0.6166279911994934
1683126383478498800,11.290498779296875,0.5368461608886719,-2.778559923171997,0.6586544513702393
1683126383496333600,11.30833349609375,0.5008354187011719,-2.7743682861328125,0.635242760181427
1683126383514178000,11.326177978515625,0.5782566070556641,-2.7348480224609375,0.6269711256027222
1683126383532017400,11.344017333984375,0.4569587707519531,-2.836548328399658,0.7273090481758118
1683126383549849000,11.36184912109375,0.4805164337158203,-2.819779634475708,0.7076547145843506
1683126383567697700,11.37969775390625,0.43404579162597656,-2.796001672744751,0.6749792695045471
1683126383585536500,11.39753662109375,0.6079893112182617,-2.7314906120300293,0.6042636036872864
1683126383603375600,11.415375732421875,0.5329828262329102,-2.7416939735412598,0.6490961909294128
1683126383621214700,11.433214599609375,0.47398853302001953,-2.7350165843963623,0.6303882002830505
1683126383639056400,11.451056396484375,0.531306266784668,-2.679265022277832,0.6159994006156921
1683126383656895500,11.4688955078125,0.46653175354003906,-2.7721683979034424,0.7018492817878723
1683126383674734300,11.486734375,0.47878551483154297,-2.778268337249756,0.6959120631217957
1683126383692574700,11.50457470703125,0.4189453125,-2.7657573223114014,0.6887022256851196
1683126383710413600,11.52241357421875,0.5342445373535156,-2.6798298358917236,0.5916659832000732
1683126383728254000,11.54025390625,0.5676965713500977,-2.6961748600006104,0.6397691369056702
1683126383746088200,11.558088134765624,0.4782085418701172,-2.6876721382141113,0.6065744161605835
1683126383763922000,11.575921875,0.506007194519043,-2.632841110229492,0.6076470613479614
1683126383781772300,11.593772216796875,0.44910526275634766,-2.7109720706939697,0.6832097172737122
1683126383799601000,11.611600830078125,0.47245216369628906,-2.736835241317749,0.6820199489593506
1683126383817441300,11.629441162109375,0.44280529022216797,-2.709958553314209,0.6812137961387634
1683126383835292000,11.6472919921875,0.4955263137817383,-2.636690378189087,0.5659310221672058
1683126383853131300,11.66513134765625,0.5516080856323242,-2.6482956409454346,0.6273045539855957
1683126383870969900,11.682969970703125,0.47969627380371094,-2.6293888092041016,0.588670551776886
1683126383888808200,11.70080810546875,0.4642038345336914,-2.5962255001068115,0.5838330984115601
1683126383906653200,11.718653076171876,0.4725837707519531,-2.6472411155700684,0.6563124060630798
1683126383924489700,11.73648974609375,0.44259166717529297,-2.6654000282287598,0.6386025547981262
1683126383942328600,11.75432861328125,0.4555397033691406,-2.677464485168457,0.692669689655304
1683126383960169700,11.772169677734375,0.47769832611083984,-2.6027019023895264,0.5644078254699707
1683126383978009300,11.79000927734375,0.5004215240478516,-2.61185359954834,0.6075264811515808
1683126383995848200,11.80784814453125,0.5069427490234375,-2.6157913208007812,0.6105958223342896
1683126384013689600,11.825689697265625,0.39000606536865234,-2.546548366546631,0.5846409201622009
1683126384031526100,11.843526123046875,0.4951515197753906,-2.601727247238159,0.6279686689376831
1683126384049367300,11.8613671875,0.40985870361328125,-2.6288228034973145,0.6468347907066345
1683126384067201800,11.879201904296876,0.41936397552490234,-2.6280927658081055,0.6866495609283447
1683126384085036000,11.8970361328125,0.469024658203125,-2.574885606765747,0.5717195272445679
1683126384102886100,11.91488623046875,0.45612621307373047,-2.5725178718566895,0.5996713638305664
1683126384120726000,11.93272607421875,0.5233707427978516,-2.570781946182251,0.5961025953292847
1683126384138565400,11.9505654296875,0.3629426956176758,-2.510396957397461,0.5687702894210815
1683126384156405500,11.968405517578125,0.47972774505615234,-2.5438904762268066,0.6114195585250854
1683126384174244400,11.986244384765625,0.4119424819946289,-2.58721661567688,0.6283273696899414
1683126384192083500,12.00408349609375,0.44179821014404297,-2.589639663696289,0.6723690032958984
1683126384209925000,12.021925048828125,0.4639425277709961,-2.533156394958496,0.5595783591270447
1683126384227763700,12.039763671875,0.4069337844848633,-2.5130321979522705,0.5876238346099854
1683126384245602800,12.057602783203125,0.5211601257324219,-2.527773380279541,0.5895130634307861
1683126384263444500,12.075444580078125,0.34516143798828125,-2.478682279586792,0.583554208278656
1683126384281271800,12.093271728515624,0.4451789855957031,-2.4882259368896484,0.5993585586547852
1683126384299122700,12.111122802734375,0.4300079345703125,-2.5505051612854004,0.6145542860031128
1683126384316947500,12.128947509765625,0.404876708984375,-2.547506332397461,0.6711588501930237
1683126384334801700,12.1468017578125,0.4662771224975586,-2.4951424598693848,0.5533930063247681
1683126384352640800,12.164640869140625,0.38683128356933594,-2.46195912361145,0.5602058172225952
1683126384370481200,12.182481201171875,0.5247526168823242,-2.4902448654174805,0.5926738381385803
1683126384388319700,12.20031982421875,0.35666561126708984,-2.4457173347473145,0.5732821226119995
1683126384406160600,12.21816064453125,0.41290950775146484,-2.453303575515747,0.5917274951934814
1683126384423995400,12.235995361328126,0.42345619201660156,-2.5119221210479736,0.626797080039978
1683126384441839600,12.253839599609375,0.41814327239990234,-2.5031092166900635,0.6538422107696533
1683126384459678700,12.2716787109375,0.42929935455322266,-2.472193479537964,0.5754805207252502
1683126384477514800,12.2895146484375,0.3547935485839844,-2.445493459701538,0.5588635206222534
1683126384495362000,12.307362060546875,0.47982215881347656,-2.442984104156494,0.592886745929718
1683126384513195000,12.325195068359376,0.37876033782958984,-2.405388832092285,0.558010458946228
1683126384531040000,12.3430400390625,0.42646217346191406,-2.4021971225738525,0.572342038154602
1683126384548877000,12.360876953125,0.37981605529785156,-2.475341558456421,0.6086984276771545
1683126384566716400,12.37871630859375,0.4410371780395508,-2.4606101512908936,0.647903323173523
1683126384584552000,12.396552001953125,0.3977489471435547,-2.425015449523926,0.5804299712181091
1683126384602395600,12.414395751953125,0.3664999008178711,-2.399667739868164,0.5467881560325623
1683126384620235800,12.43223583984375,0.4656982421875,-2.4027960300445557,0.5700652003288269
1683126384638075100,12.4500751953125,0.3913154602050781,-2.345548152923584,0.5352829098701477
1683126384655915300,12.467915283203125,0.4517822265625,-2.3192670345306396,0.5411661863327026
1683126384673753900,12.48575390625,0.3236713409423828,-2.428525686264038,0.5863749980926514
1683126384691594500,12.503594482421875,0.45152759552001953,-2.408830165863037,0.6362193822860718
1683126384709432300,12.521432373046874,0.3746070861816406,-2.37449049949646,0.564689576625824
1683126384727274500,12.5392744140625,0.3703327178955078,-2.3758485317230225,0.5483875274658203
1683126384745112600,12.557112548828124,0.43929576873779297,-2.3584771156311035,0.5515523552894592
1683126384762953000,12.574952880859374,0.3994407653808594,-2.291086435317993,0.4999837875366211
1683126384780774700,12.592774658203124,0.4798564910888672,-2.2855024337768555,0.5418752431869507
1683126384798632400,12.610632568359375,0.2930755615234375,-2.3827967643737793,0.5720593333244324
1683126384816459300,12.628459228515625,0.45309925079345703,-2.353844165802002,0.6083910465240479
1683126384834306800,12.646306884765625,0.3912019729614258,-2.3325986862182617,0.5717140436172485
1683126384852150500,12.664150634765624,0.2997865676879883,-2.3355746269226074,0.5270301103591919
1683126384869990700,12.68199072265625,0.44005775451660156,-2.330885648727417,0.5584317445755005
1683126384887829800,12.699829833984374,0.36785888671875,-2.2652721405029297,0.49865591526031494
1683126384905665500,12.71766552734375,0.5013446807861328,-2.2403416633605957,0.5355285406112671
1683126384923509000,12.735509033203124,0.2599353790283203,-2.3366641998291016,0.5681980848312378
1683126384941348900,12.753348876953124,0.3959379196166992,-2.3153116703033447,0.5849959254264832
1683126384959188200,12.771188232421874,0.3952178955078125,-2.301069498062134,0.5712286829948425
1683126384977027300,12.78902734375,0.2962465286254883,-2.2979519367218018,0.5235287547111511
1683126384994869200,12.806869140625,0.3932228088378906,-2.2937304973602295,0.551506519317627
1683126385012704800,12.824704833984375,0.34333038330078125,-2.2282559871673584,0.48750048875808716
1683126385030549800,12.8425498046875,0.48902034759521484,-2.1926496028900146,0.5210754871368408
1683126385048386600,12.860386474609374,0.26691532135009766,-2.3082501888275146,0.5634186863899231
1683126385066226000,12.878225830078126,0.3798351287841797,-2.268558979034424,0.5636786222457886
1683126385084067300,12.8960673828125,0.3746004104614258,-2.2632174491882324,0.5676577687263489
1683126385101905200,12.9139052734375,0.2607908248901367,-2.2752153873443604,0.5439892411231995
1683126385119742500,12.931742431640625,0.4041271209716797,-2.2569901943206787,0.5445113778114319
1683126385137572900,12.94957275390625,0.33896541595458984,-2.1928508281707764,0.4712885022163391
1683126385155423000,12.967423095703126,0.467010498046875,-2.161057710647583,0.5041360259056091
1683126385173254400,12.98525439453125,0.28266048431396484,-2.284717321395874,0.5514461398124695
1683126385191104000,13.00310400390625,0.3162221908569336,-2.22279953956604,0.5550335049629211
1683126385208938200,13.020938232421875,0.33371448516845703,-2.230654716491699,0.5677860379219055
1683126385226783000,13.038782958984376,0.30314159393310547,-2.2364275455474854,0.5276060700416565
1683126385244610300,13.0566103515625,0.34520721435546875,-2.222074031829834,0.5347734093666077
1683126385262462700,13.074462646484376,0.3618202209472656,-2.165414810180664,0.44984814524650574
1683126385280302300,13.09230224609375,0.41642189025878906,-2.1213247776031494,0.5004541873931885
1683126385298135600,13.110135498046875,0.28609275817871094,-2.238955497741699,0.5449564456939697
1683126385315980300,13.127980224609376,0.276763916015625,-2.184685230255127,0.545103907585144
1683126385333821000,13.145821044921876,0.26193714141845703,-2.198131799697876,0.5661875009536743
1683126385351659800,13.16365966796875,0.33691883087158203,-2.197347402572632,0.5178212523460388
1683126385369499100,13.1814990234375,0.30035877227783203,-2.2083184719085693,0.5321880578994751
1683126385387340000,13.199340087890626,0.3357820510864258,-2.1279382705688477,0.44378185272216797
1683126385405179400,13.217179443359376,0.40589332580566406,-2.086207389831543,0.4897034168243408
1683126385423018200,13.235018310546875,0.2813091278076172,-2.2106075286865234,0.5461615324020386
1683126385440859400,13.252859375,0.2635517120361328,-2.1364827156066895,0.5253376960754395
1683126385458696400,13.270696533203125,0.26143741607666016,-2.1420493125915527,0.5373865962028503
1683126385476531200,13.28853125,0.33365345001220703,-2.169487953186035,0.5172868967056274
1683126385494365000,13.306364990234375,0.28107261657714844,-2.1613872051239014,0.5183952450752258
1683126385512201200,13.324201171875,0.3473224639892578,-2.0894253253936768,0.4304678440093994
1683126385530059300,13.342059326171874,0.4106178283691406,-2.038259506225586,0.4562634825706482
1683126385547891200,13.35989111328125,0.2614116668701172,-2.165621519088745,0.535220742225647
1683126385565735000,13.37773486328125,0.28002166748046875,-2.1094512939453125,0.5158776044845581
1683126385583575000,13.395574951171875,0.22808170318603516,-2.1043577194213867,0.5262465476989746
1683126385601413000,13.4134130859375,0.35868072509765625,-2.1115126609802246,0.49863243103027344
1683126385619255600,13.431255615234376,0.2982301712036133,-2.118217706680298,0.5135815143585205
1683126385637093600,13.44909375,0.3013753890991211,-2.0531044006347656,0.4221944510936737
1683126385654922200,13.466922119140625,0.3807182312011719,-2.0081796646118164,0.4521399736404419
1683126385672772900,13.48477294921875,0.27684688568115234,-2.123385429382324,0.5175154209136963
1683126385690613200,13.50261328125,0.2555818557739258,-2.082017660140991,0.5235462188720703
1683126385708452000,13.5204521484375,0.24062347412109375,-2.084041118621826,0.5286221504211426
1683126385726292700,13.538292724609375,0.3090324401855469,-2.0788376331329346,0.49767762422561646
1683126385744124400,13.55612451171875,0.3085660934448242,-2.1040875911712646,0.5336288213729858
1683126385761971500,13.573971435546875,0.28927135467529297,-1.9976083040237427,0.4194788932800293
1683126385779806500,13.591806396484374,0.3393068313598633,-1.9813799858093262,0.44550803303718567
1683126385797637000,13.60963720703125,0.28206825256347656,-2.087099313735962,0.5186822414398193
1683126385815474000,13.627473876953125,0.23337554931640625,-2.051173210144043,0.5009775161743164
1683126385833330000,13.645329833984375,0.2634916305541992,-2.0465047359466553,0.5166307687759399
1683126385851168800,13.663168701171875,0.27217864990234375,-2.030989646911621,0.48323118686676025
1683126385869009200,13.681009033203125,0.30408382415771484,-2.0794286727905273,0.5157061219215393
1683126385886848300,13.69884814453125,0.3102426528930664,-1.9534088373184204,0.4067735970020294
1683126385904688600,13.716688720703125,0.28938865661621094,-1.9460585117340088,0.4163109064102173
1683126385922526000,13.73452587890625,0.3103523254394531,-2.03562331199646,0.4954521059989929
1683126385940369000,13.752368896484375,0.2079925537109375,-2.0227346420288086,0.4863135516643524
1683126385958203600,13.77020361328125,0.2707843780517578,-2.0005698204040527,0.5093603134155273
1683126385976046800,13.788046875,0.2641324996948242,-1.9943926334381104,0.48030900955200195
1683126385993884700,13.805884765625,0.3008718490600586,-2.03949236869812,0.5217612385749817
1683126386011724500,13.823724609375,0.3155250549316406,-1.9320248365402222,0.4107263684272766
1683126386029565400,13.8415654296875,0.24489593505859375,-1.9183871746063232,0.3937327265739441
1683126386047405800,13.85940576171875,0.3318500518798828,-1.9763127565383911,0.4785105586051941
1683126386065244200,13.877244140625,0.20586681365966797,-1.9771629571914673,0.47408604621887207
1683126386083084500,13.89508447265625,0.23856544494628906,-1.970219373703003,0.5057469010353088
1683126386100923100,13.912923095703125,0.28122997283935547,-1.9800962209701538,0.48397374153137207
1683126386118763800,13.930763671875,0.2738924026489258,-2.0047101974487305,0.5213229656219482
1683126386136602400,13.948602294921875,0.31717967987060547,-1.9294909238815308,0.42247480154037476
1683126386154442800,13.96644287109375,0.21039772033691406,-1.8741637468338013,0.384880930185318
1683126386172281900,13.98428173828125,0.3525581359863281,-1.9236712455749512,0.47180411219596863
1683126386190121700,14.002121826171875,0.1815328598022461,-1.9429211616516113,0.4667517840862274
1683126386207960800,14.0199609375,0.24108123779296875,-1.9241818189620972,0.49448472261428833
1683126386225801200,14.03780126953125,0.26390838623046875,-1.9750120639801025,0.4926747977733612
1683126386243638800,14.055638671875,0.2409048080444336,-1.9815362691879272,0.51957106590271
1683126386261481500,14.0734814453125,0.3116436004638672,-1.906340479850769,0.4299866259098053
1683126386279316700,14.091316650390626,0.17283058166503906,-1.855513572692871,0.3899053931236267
1683126386297159700,14.10915966796875,0.32692813873291016,-1.884268045425415,0.45456036925315857
1683126386314998800,14.126998779296875,0.21747398376464844,-1.9057083129882812,0.45080578327178955
1683126386332839000,14.1448388671875,0.26537418365478516,-1.8943674564361572,0.4921685457229614
1683126386350677500,14.162677490234374,0.24734878540039062,-1.9291982650756836,0.47616976499557495
1683126386368518100,14.18051806640625,0.21263504028320312,-1.933082938194275,0.5118889212608337
1683126386386357000,14.19835693359375,0.3360881805419922,-1.8918383121490479,0.4372095465660095
1683126386404197000,14.216197021484374,0.1881542205810547,-1.8314894437789917,0.39953848719596863
1683126386422034400,14.234034423828126,0.2787923812866211,-1.8422938585281372,0.44977712631225586
1683126386439875300,14.251875244140624,0.25156211853027344,-1.8789396286010742,0.4421098232269287
1683126386457718300,14.26971826171875,0.2721242904663086,-1.8404958248138428,0.46177178621292114
1683126386475554000,14.287553955078126,0.2306976318359375,-1.8909227848052979,0.46545708179473877
1683126386493384200,14.30538427734375,0.22733116149902344,-1.898681402206421,0.5025858283042908
1683126386511233500,14.323233642578124,0.28276824951171875,-1.8670933246612549,0.42758315801620483
1683126386529071000,14.341071044921875,0.21035003662109375,-1.800487756729126,0.38705044984817505
1683126386546916400,14.358916259765625,0.27486228942871094,-1.8133349418640137,0.44996893405914307
1683126386564748000,14.376748046875,0.22900390625,-1.8373918533325195,0.4174514412879944
1683126386582592500,14.394592529296874,0.31292724609375,-1.78618586063385,0.46038171648979187
1683126386600431900,14.412431884765626,0.17755699157714844,-1.8579163551330566,0.46783068776130676
1683126386618272000,14.43027197265625,0.24096965789794922,-1.8434300422668457,0.4732169508934021
1683126386636110800,14.44811083984375,0.2862358093261719,-1.826574683189392,0.4122672379016876
1683126386653947600,14.46594775390625,0.20306873321533203,-1.775675654411316,0.37929463386535645
1683126386671790000,14.4837900390625,0.2907752990722656,-1.7670111656188965,0.4349145293235779
1683126386689628000,14.5016279296875,0.20352935791015625,-1.8005679845809937,0.4120115041732788
1683126386707472000,14.519471923828124,0.3402385711669922,-1.7665897607803345,0.45578718185424805
1683126386725309700,14.537309814453126,0.13831710815429688,-1.8144750595092773,0.4522709250450134
1683126386743148300,14.555148193359376,0.22484683990478516,-1.8232028484344482,0.45665550231933594
1683126386760989000,14.572989013671876,0.2945585250854492,-1.7969441413879395,0.40782299637794495
1683126386778832400,14.590832275390625,0.20913410186767578,-1.7393903732299805,0.37217429280281067
1683126386796668200,14.608668212890626,0.2805624008178711,-1.7357509136199951,0.42438259720802307
1683126386814507000,14.626507080078126,0.17047119140625,-1.7662032842636108,0.40200573205947876
1683126386832347100,14.64434716796875,0.35773754119873047,-1.7111098766326904,0.4357708990573883
1683126386850186000,14.66218603515625,0.12896251678466797,-1.7960608005523682,0.46114784479141235
1683126386868026400,14.6800263671875,0.2041492462158203,-1.787129282951355,0.4534289538860321
1683126386885860400,14.6978603515625,0.2858858108520508,-1.762374997138977,0.40572112798690796
1683126386903705600,14.71570556640625,0.20272445678710938,-1.7050695419311523,0.36543017625808716
1683126386921543700,14.733543701171875,0.31133556365966797,-1.6999504566192627,0.4104435443878174
1683126386939383000,14.751383056640625,0.14142799377441406,-1.7319754362106323,0.3940630555152893
1683126386957226000,14.76922607421875,0.34714221954345703,-1.6930104494094849,0.4116588830947876
1683126386975063600,14.7870634765625,0.157196044921875,-1.773190975189209,0.46777546405792236
1683126386992902700,14.804902587890625,0.14406394958496094,-1.751766562461853,0.44113385677337646
1683126387010741000,14.822740966796875,0.25818443298339844,-1.7411448955535889,0.3999028205871582
1683126387028583400,14.84058349609375,0.1892223358154297,-1.6705764532089233,0.35974809527397156
1683126387046421800,14.858421875,0.2943286895751953,-1.6774446964263916,0.4050447642803192
1683126387064260900,14.8762607421875,0.14099884033203125,-1.7150946855545044,0.38849806785583496
1683126387082101000,14.89410107421875,0.2836952209472656,-1.6633641719818115,0.4074123203754425
1683126387099940000,14.911940185546875,0.1839437484741211,-1.7520897388458252,0.4680086374282837
1683126387117780200,14.9297802734375,0.11383914947509766,-1.7286635637283325,0.43914759159088135
1683126387135619600,14.94761962890625,0.21267318725585938,-1.7191091775894165,0.41041049361228943
1683126387153459700,14.965459716796875,0.21526145935058594,-1.6439791917800903,0.3593885004520416
1683126387171298300,14.98329833984375,0.26857757568359375,-1.6516735553741455,0.4052930474281311
1683126387189138700,15.001138671875,0.14955711364746094,-1.6935415267944336,0.3885241746902466
1683126387206973000,15.018972900390626,0.2658815383911133,-1.61806058883667,0.3931126296520233
1683126387224818000,15.03681787109375,0.1738290786743164,-1.719836711883545,0.45389461517333984
1683126387242656500,15.054656494140625,0.1135091781616211,-1.7097359895706177,0.4342896044254303
1683126387260496000,15.072495849609375,0.1915149688720703,-1.6795847415924072,0.40620094537734985
1683126387278337000,15.0903369140625,0.23830127716064453,-1.613699197769165,0.3451426923274994
1683126387296176000,15.108176025390625,0.23572731018066406,-1.6224474906921387,0.39470210671424866
1683126387314011400,15.126011474609374,0.15826702117919922,-1.6519420146942139,0.3705494701862335
1683126387331854300,15.143854248046875,0.2520570755004883,-1.5929392576217651,0.3754117488861084
1683126387349695200,15.1616953125,0.13665199279785156,-1.6836247444152832,0.45847779512405396
1683126387367534600,15.17953466796875,0.14247703552246094,-1.6741058826446533,0.42422235012054443
1683126387385373400,15.19737353515625,0.1429586410522461,-1.6434777975082397,0.39161986112594604
1683126387403213600,15.215213623046875,0.2616729736328125,-1.589530348777771,0.33465200662612915
1683126387421052400,15.233052490234375,0.2221364974975586,-1.6016052961349487,0.3844274878501892
1683126387438890000,15.250889892578124,0.16306781768798828,-1.6170209646224976,0.37531185150146484
1683126387456734200,15.268734130859375,0.2076435089111328,-1.5626485347747803,0.35502418875694275
1683126387474568700,15.286568603515626,0.1329631805419922,-1.6548880338668823,0.44812238216400146
1683126387492410600,15.30441064453125,0.15919780731201172,-1.6581908464431763,0.4302753806114197
1683126387510250800,15.322250732421875,0.1016855239868164,-1.6534266471862793,0.41849398612976074
1683126387528088000,15.340088134765624,0.23600101470947266,-1.56228506565094,0.32629072666168213
1683126387545929700,15.3579296875,0.2599372863769531,-1.5726909637451172,0.3768119215965271
1683126387563768800,15.375768798828124,0.11833858489990234,-1.5907928943634033,0.35082370042800903
1683126387581607700,15.393607666015624,0.21550750732421875,-1.5224859714508057,0.34260672330856323
1683126387599448000,15.411447998046874,0.13382720947265625,-1.6079847812652588,0.42420485615730286
1683126387617289000,15.4292890625,0.1640472412109375,-1.6264382600784302,0.41348975896835327
1683126387635127000,15.447126953125,0.12143898010253906,-1.6066563129425049,0.4223310947418213
1683126387652966100,15.464966064453124,0.19687557220458984,-1.527681827545166,0.3055743873119354
1683126387670807300,15.482807373046874,0.26442718505859375,-1.5328178405761719,0.35730069875717163
1683126387688646700,15.500646728515624,0.16390323638916016,-1.5416102409362793,0.34199151396751404
1683126387706485000,15.518485107421874,0.1820516586303711,-1.503534197807312,0.33698490262031555
1683126387724325600,15.53632568359375,0.14638519287109375,-1.561868667602539,0.4067736864089966
1683126387742164700,15.554164794921874,0.14276123046875,-1.591808795928955,0.4097163677215576
1683126387760004900,15.5720048828125,0.13531017303466797,-1.578524112701416,0.42355459928512573
1683126387777843700,15.58984375,0.18183135986328125,-1.5054465532302856,0.29549553990364075
1683126387795684000,15.60768408203125,0.25148582458496094,-1.5299196243286133,0.36485791206359863
1683126387813515500,15.625515625,0.17101383209228516,-1.5288653373718262,0.3345862627029419
1683126387831363000,15.643363037109374,0.13609027862548828,-1.4835127592086792,0.3355019688606262
1683126387849201700,15.66120166015625,0.17413330078125,-1.5247282981872559,0.39277517795562744
1683126387867042000,15.6790419921875,0.15377521514892578,-1.5502275228500366,0.39103561639785767
1683126387884881000,15.696880859375,0.12198162078857422,-1.5631810426712036,0.43549013137817383
1683126387902720500,15.714720458984376,0.1904582977294922,-1.4901868104934692,0.3002147972583771
1683126387920561200,15.73256103515625,0.2068805694580078,-1.4989869594573975,0.3395843803882599
1683126387938397700,15.750397705078125,0.1926136016845703,-1.5174808502197266,0.3586790859699249
1683126387956242000,15.768241943359374,0.09190750122070312,-1.4550755023956299,0.32402628660202026
1683126387974071800,15.78607177734375,0.2021636962890625,-1.4957175254821777,0.3775146007537842
1683126387991921200,15.803921142578124,0.08941268920898438,-1.5355662107467651,0.390874445438385
1683126388009758500,15.821758544921876,0.15291881561279297,-1.545314073562622,0.42106324434280396
1683126388027597600,15.83959765625,0.19366741180419922,-1.474428653717041,0.3153280019760132
1683126388045437400,15.8574375,0.14931964874267578,-1.4705817699432373,0.3402039408683777
1683126388063276500,15.875276611328125,0.24991321563720703,-1.4813039302825928,0.33714064955711365
1683126388081116700,15.89311669921875,0.05990123748779297,-1.4214059114456177,0.31956198811531067
1683126388098955300,15.910955322265625,0.2120962142944336,-1.4617502689361572,0.3617691397666931
1683126388116795600,15.928795654296875,0.10558700561523438,-1.5149515867233276,0.3923415541648865
1683126388134634800,15.946634765625,0.1530771255493164,-1.509192943572998,0.4186159372329712
1683126388152475000,15.964474853515625,0.17183589935302734,-1.4627074003219604,0.30878984928131104
1683126388170314000,15.98231396484375,0.1457529067993164,-1.4354966878890991,0.3199274241924286
1683126388188153900,16.00015380859375,0.24451255798339844,-1.4510127305984497,0.33787548542022705
1683126388205992700,16.01799267578125,0.07183265686035156,-1.4227385520935059,0.3320051431655884
1683126388223833000,16.0358330078125,0.15616416931152344,-1.4290348291397095,0.3513079583644867
1683126388241672200,16.053672119140625,0.14255523681640625,-1.4941720962524414,0.3734508156776428
1683126388259511300,16.07151123046875,0.14232254028320312,-1.4884049892425537,0.4286428391933441
1683126388277352000,16.08935205078125,0.1711130142211914,-1.4349119663238525,0.31612932682037354
1683126388295183400,16.107183349609375,0.12169170379638672,-1.413124442100525,0.31172895431518555
1683126388313030100,16.125030029296877,0.2318859100341797,-1.4223198890686035,0.34674978256225586
1683126388330860500,16.142860595703127,0.09707164764404297,-1.3893903493881226,0.3207775354385376
1683126388348705000,16.160705078125,0.13542842864990234,-1.3945353031158447,0.3486480414867401
1683126388366546400,16.17854638671875,0.11638736724853516,-1.4674346446990967,0.3800092339515686
1683126388384391200,16.19639111328125,0.16511058807373047,-1.4614555835723877,0.41084691882133484
1683126388402228500,16.214228515625,0.15221405029296875,-1.4212369918823242,0.319192111492157
1683126388420066000,16.232066162109376,0.09937667846679688,-1.400718092918396,0.3040233850479126
1683126388437895700,16.249895751953126,0.21626853942871094,-1.3910644054412842,0.3459695875644684
1683126388455749400,16.267749267578125,0.10302543640136719,-1.3552641868591309,0.30796849727630615
1683126388473586700,16.285586669921877,0.16031551361083984,-1.3662618398666382,0.32403627038002014
1683126388491425500,16.303425537109376,0.11980152130126953,-1.4445966482162476,0.3692660927772522
1683126388509248800,16.321248779296877,0.1491565704345703,-1.4338831901550293,0.4167690873146057
1683126388527104500,16.3391044921875,0.15439796447753906,-1.398165225982666,0.33227717876434326
1683126388544940500,16.3569404296875,0.09095001220703125,-1.3864822387695312,0.31165656447410583
1683126388562782700,16.37478271484375,0.21024036407470703,-1.3777984380722046,0.32667163014411926
1683126388580623600,16.39262353515625,0.13900279998779297,-1.3380389213562012,0.294319212436676
1683126388598462500,16.41046240234375,0.18892669677734375,-1.3137500286102295,0.3035734295845032
1683126388616298200,16.42829833984375,0.0886678695678711,-1.4177509546279907,0.3505409359931946
1683126388634141700,16.4461416015625,0.2133026123046875,-1.3964860439300537,0.3969579339027405
1683126388651982300,16.463982421875,0.11554431915283203,-1.363142967224121,0.3213117718696594
1683126388669819600,16.481819580078124,0.1062307357788086,-1.3660075664520264,0.3048124611377716
1683126388687662600,16.49966259765625,0.1956310272216797,-1.3460206985473633,0.3108587861061096
1683126388705499600,16.517499755859376,0.15371990203857422,-1.2846672534942627,0.2617688477039337
1683126388723340500,16.535340576171876,0.24211502075195312,-1.279506802558899,0.30721616744995117
1683126388741178000,16.55317822265625,0.03703117370605469,-1.3795750141143799,0.3297225832939148
1683126388759020300,16.571020263671876,0.20637035369873047,-1.351923942565918,0.37366360425949097
1683126388776858400,16.5888583984375,0.1388721466064453,-1.3352612257003784,0.3287956118583679
1683126388794698500,16.606698486328124,0.06966972351074219,-1.3312269449234009,0.28946059942245483
1683126388812537300,16.624537353515624,0.200439453125,-1.3357698917388916,0.318346232175827
1683126388830377500,16.64237744140625,0.11298942565917969,-1.26602303981781,0.2584696412086487
1683126388848216000,16.660216064453124,0.26267337799072266,-1.247204303741455,0.29665976762771606
1683126388866051600,16.678051513671875,0.006384849548339844,-1.3520445823669434,0.33001646399497986
1683126388883892200,16.695892333984375,0.18776893615722656,-1.3304786682128906,0.35836121439933777
1683126388901735400,16.7137353515625,0.1606922149658203,-1.3328509330749512,0.34229689836502075
1683126388919573200,16.7315732421875,0.04062461853027344,-1.3205864429473877,0.296284019947052
1683126388937408000,16.749407958984374,0.17157936096191406,-1.3161009550094604,0.3176508843898773
1683126388955256600,16.767256591796876,0.11752510070800781,-1.2433587312698364,0.25095507502555847
1683126388973094000,16.785093994140624,0.2624187469482422,-1.2141368389129639,0.28801429271698
1683126388990931200,16.80293115234375,0.01464080810546875,-1.3381927013397217,0.33259284496307373
1683126389008767200,16.820767333984374,0.15398883819580078,-1.2986195087432861,0.3360210061073303
1683126389026614300,16.8386142578125,0.14882278442382812,-1.3025894165039062,0.33974823355674744
1683126389044451600,16.85645166015625,0.056450843811035156,-1.313612461090088,0.29864394664764404
1683126389062289400,16.874289306640627,0.1442394256591797,-1.289724349975586,0.3080269694328308
1683126389080131600,16.892131591796876,0.1270437240600586,-1.2265080213546753,0.24588172137737274
1683126389097969400,16.909969482421875,0.23317432403564453,-1.1941661834716797,0.2809147536754608
1683126389115809800,16.927809814453123,0.056052207946777344,-1.3287452459335327,0.3341367542743683
1683126389133649000,16.94564892578125,0.08979606628417969,-1.2735587358474731,0.33852237462997437
1683126389151488800,16.96348876953125,0.11083793640136719,-1.279524564743042,0.34157317876815796
1683126389169327900,16.981327880859375,0.07585334777832031,-1.2893487215042114,0.3036709725856781
1683126389187163100,16.9991630859375,0.1342601776123047,-1.2847027778625488,0.30845513939857483
1683126389205006800,17.0170068359375,0.14011859893798828,-1.2208502292633057,0.23408891260623932
1683126389222847000,17.034846923828123,0.20383548736572266,-1.1741361618041992,0.27665141224861145
1683126389240686000,17.05268603515625,0.07678699493408203,-1.3068042993545532,0.32468801736831665
1683126389258526200,17.070526123046875,0.06600379943847656,-1.253000259399414,0.328924298286438
1683126389276364800,17.08836474609375,0.0823507308959961,-1.2677139043807983,0.3516297936439514
1683126389294205000,17.106204833984375,0.0977315902709961,-1.2592722177505493,0.292849600315094
1683126389312042800,17.124042724609374,0.09010696411132812,-1.2724696397781372,0.31312018632888794
1683126389329885400,17.141885498046875,0.12017059326171875,-1.1996426582336426,0.21654213964939117
1683126389347723000,17.159722900390626,0.21880245208740234,-1.1498620510101318,0.2778691053390503
1683126389365551400,17.17755126953125,0.04185295104980469,-1.2823491096496582,0.32139837741851807
1683126389383400700,17.195400634765626,0.0648183822631836,-1.2161273956298828,0.30739158391952515
1683126389401243400,17.213243408203127,0.05678367614746094,-1.2362048625946045,0.32977354526519775
1683126389419081000,17.2310810546875,0.12151145935058594,-1.2354060411453247,0.28847774863243103
1683126389436910000,17.24891015625,0.09426689147949219,-1.2393279075622559,0.31030017137527466
1683126389454760200,17.26676025390625,0.12042522430419922,-1.1789072751998901,0.21515975892543793
1683126389472600300,17.284600341796875,0.2037973403930664,-1.123632788658142,0.2533698081970215
1683126389490439000,17.30243896484375,0.0635223388671875,-1.2566752433776855,0.3223145604133606
1683126389508279300,17.320279296875,0.07207393646240234,-1.1896624565124512,0.2993079423904419
1683126389526118100,17.3381181640625,0.04109668731689453,-1.2071294784545898,0.31595379114151
1683126389543954700,17.35595458984375,0.13611984252929688,-1.2238298654556274,0.2864433526992798
1683126389561797000,17.373797119140626,0.08698558807373047,-1.2141469717025757,0.30011191964149475
1683126389579637200,17.39163720703125,0.1056966781616211,-1.1475111246109009,0.21076911687850952
1683126389597464300,17.40946435546875,0.20787429809570312,-1.1019294261932373,0.2395784854888916
1683126389615316200,17.427316162109374,0.07258224487304688,-1.2268728017807007,0.30212825536727905
1683126389633154000,17.445154052734374,0.058068275451660156,-1.1770663261413574,0.30352461338043213
1683126389650996700,17.462996826171874,0.04847526550292969,-1.184306263923645,0.3122451901435852
1683126389668834300,17.480834228515626,0.13988590240478516,-1.1900807619094849,0.2810510993003845
1683126389686674400,17.49867431640625,0.09120559692382812,-1.2013846635818481,0.30970823764801025
1683126389704508700,17.5165087890625,0.10010051727294922,-1.124434471130371,0.20153950154781342
1683126389722343700,17.53434375,0.16800785064697266,-1.0918147563934326,0.2349320948123932
1683126389740192500,17.552192626953126,0.07070255279541016,-1.2085208892822266,0.3073388934135437
1683126389758032400,17.570032470703126,0.04822349548339844,-1.1765954494476318,0.2964426279067993
1683126389775871500,17.58787158203125,0.04909229278564453,-1.1781086921691895,0.31198444962501526
1683126389793705200,17.605705322265624,0.07086658477783203,-1.1635743379592896,0.2779107093811035
1683126389811550500,17.623550537109374,0.12421989440917969,-1.1928061246871948,0.31120747327804565
1683126389829378600,17.641378662109375,0.10670757293701172,-1.0790131092071533,0.1908257007598877
1683126389847229400,17.6592294921875,0.14163684844970703,-1.0837023258209229,0.22025638818740845
1683126389865069600,17.677069580078125,0.10414505004882812,-1.1932334899902344,0.3024527430534363
1683126389882908200,17.694908203125,0.0233917236328125,-1.1544843912124634,0.28736281394958496
1683126389900748800,17.712748779296874,0.09573078155517578,-1.1428866386413574,0.3144625723361969
1683126389918587400,17.73058740234375,0.047130584716796875,-1.1384717226028442,0.2690354883670807
1683126389936427800,17.748427734375,0.14169788360595703,-1.1768555641174316,0.31675973534584045
1683126389954261800,17.76626171875,0.12823486328125,-1.0766069889068604,0.20867855846881866
1683126389972106800,17.784106689453125,0.0827789306640625,-1.0519137382507324,0.19536523520946503
1683126389989942300,17.8019423828125,0.16764450073242188,-1.12770414352417,0.27724480628967285
1683126390007788500,17.81978857421875,0.0124359130859375,-1.105151891708374,0.2784406542778015
1683126390025619700,17.83761962890625,0.06021404266357422,-1.130347490310669,0.30427736043930054
1683126390043464400,17.85546435546875,0.09726333618164062,-1.1298706531524658,0.2803082764148712
1683126390061291500,17.87329150390625,0.08241844177246094,-1.1608096361160278,0.3199913501739502
1683126390079143400,17.891143310546877,0.13164997100830078,-1.075087308883667,0.21422022581100464
1683126390096973000,17.90897314453125,0.0343475341796875,-1.0387120246887207,0.18743619322776794
1683126390114807800,17.926807861328125,0.1693124771118164,-1.0844143629074097,0.27066922187805176
1683126390132661200,17.9446611328125,0.013274192810058594,-1.1044554710388184,0.27366042137145996
1683126390150501600,17.962501708984377,0.050805091857910156,-1.0950217247009277,0.297882080078125
1683126390168340500,17.980340576171876,0.0817556381225586,-1.1380629539489746,0.2944304347038269
1683126390186180600,17.9981806640625,0.07543468475341797,-1.1517056226730347,0.32418766617774963
1683126390204015900,18.016015869140624,0.1382284164428711,-1.070109248161316,0.2260640561580658
1683126390221847000,18.033846923828126,0.0330963134765625,-1.0289013385772705,0.1971447616815567
1683126390239698700,18.05169873046875,0.15316009521484375,-1.0545272827148438,0.25602561235427856
1683126390257538600,18.06953857421875,0.024346351623535156,-1.086429476737976,0.25521403551101685
1683126390275372500,18.08737255859375,0.0794363021850586,-1.068617820739746,0.2902248203754425
1683126390293220400,18.105220458984373,0.0681772232055664,-1.128068208694458,0.2799774408340454
1683126390311052500,18.123052490234375,0.0666351318359375,-1.1382191181182861,0.3201702833175659
1683126390328897500,18.1408974609375,0.1436014175415039,-1.0672627687454224,0.22245565056800842
1683126390346733800,18.15873388671875,-0.0054912567138671875,-1.0281670093536377,0.21228116750717163
1683126390364575700,18.17657568359375,0.15302276611328125,-1.0368356704711914,0.25483325123786926
1683126390382414000,18.1944140625,0.057999610900878906,-1.0704176425933838,0.24316871166229248
1683126390400253200,18.212253173828124,0.10834407806396484,-1.0387837886810303,0.27706533670425415
1683126390418094600,18.230094482421876,0.03981494903564453,-1.099076271057129,0.28337955474853516
1683126390435933700,18.24793359375,0.07440853118896484,-1.0996474027633667,0.3227291703224182
1683126390453772500,18.2657724609375,0.13987350463867188,-1.0550057888031006,0.22499743103981018
1683126390471612700,18.28361279296875,0.04935264587402344,-1.004834771156311,0.20300409197807312
1683126390489450500,18.301450439453124,0.09823322296142578,-1.0096238851547241,0.26112914085388184
1683126390507292400,18.31929248046875,0.08188819885253906,-1.0404763221740723,0.23429924249649048
1683126390525130200,18.337130126953124,0.1263589859008789,-0.9983094930648804,0.2643004059791565
1683126390542970400,18.354970458984376,0.018616676330566406,-1.0793510675430298,0.2726677358150482
1683126390560797400,18.37279736328125,0.08901500701904297,-1.0739970207214355,0.3129301071166992
1683126390578639000,18.39063916015625,0.11319732666015625,-1.0470783710479736,0.2249300181865692
1683126390596483800,18.40848388671875,0.031325340270996094,-0.9870265126228333,0.1876181811094284
1683126390614322000,18.426322021484374,0.13038921356201172,-0.9900720119476318,0.25805145502090454
1683126390632167400,18.44416748046875,0.03317451477050781,-1.0138131380081177,0.21695972979068756
1683126390650007600,18.462007568359375,0.17548179626464844,-0.9764672517776489,0.2608756124973297
1683126390667841500,18.479841552734374,-0.009082794189453125,-1.0570995807647705,0.280430406332016
1683126390685686500,18.4976865234375,0.08135795593261719,-1.0330734252929688,0.2875574231147766
1683126390703525000,18.515525146484375,0.1398639678955078,-1.0188542604446411,0.21851110458374023
1683126390721364200,18.5333642578125,0.016666412353515625,-0.9782915115356445,0.18930214643478394
1683126390739205600,18.55120556640625,0.16326236724853516,-0.9712199568748474,0.24500307440757751
1683126390757044200,18.569044189453123,0.04136180877685547,-0.9906666278839111,0.2120462954044342
1683126390774880300,18.58688037109375,0.18447399139404297,-0.9548386931419373,0.25097042322158813
1683126390792726000,18.60472607421875,-0.030353546142578125,-1.0364532470703125,0.2683630585670471
1683126390810559500,18.6225595703125,0.09279060363769531,-1.0378141403198242,0.26842767000198364
1683126390828405200,18.6404052734375,0.13561344146728516,-1.0060945749282837,0.22071576118469238
1683126390846241000,18.658240966796875,0.03328227996826172,-0.9555352926254272,0.18272297084331512
1683126390864081400,18.676081298828127,0.1255817413330078,-0.9469159841537476,0.24244070053100586
1683126390881919700,18.693919677734375,0.028267860412597656,-0.9648148417472839,0.200790137052536
1683126390899760400,18.711760498046875,0.22622966766357422,-0.9160616993904114,0.22923140227794647
1683126390917594400,18.729594482421874,-0.034732818603515625,-1.0142958164215088,0.27072033286094666
1683126390935439400,18.747439453125,0.05510234832763672,-1.0024900436401367,0.26619845628738403
1683126390953278000,18.76527783203125,0.1376943588256836,-0.9763925671577454,0.20959900319576263
1683126390971118300,18.783118408203126,0.03995227813720703,-0.9384536147117615,0.18616509437561035
1683126390988957200,18.800957275390626,0.14696407318115234,-0.9306859970092773,0.2347198873758316
1683126391006797300,18.81879736328125,0.0038690567016601562,-0.9562668800354004,0.19667372107505798
1683126391024624600,18.836624755859376,0.2111978530883789,-0.9113408923149109,0.225767582654953
1683126391042481000,18.85448095703125,-0.010910987854003906,-1.0123541355133057,0.290412962436676
1683126391060316000,18.87231591796875,0.014928817749023438,-0.989774763584137,0.269399493932724
1683126391078136800,18.89013671875,0.10867691040039062,-0.967509388923645,0.21626049280166626
1683126391095993900,18.907993896484374,0.054917335510253906,-0.9164971709251404,0.18607577681541443
1683126391113820700,18.925820556640623,0.14902591705322266,-0.9310199618339539,0.23152145743370056
1683126391131672800,18.9436728515625,-0.0029993057250976562,-0.9451422691345215,0.19393602013587952
1683126391149512000,18.961511962890626,0.16616535186767578,-0.8902532458305359,0.22064200043678284
1683126391167352800,18.979352783203126,0.03273296356201172,-1.0065937042236328,0.2801986336708069
1683126391185192000,18.99719189453125,-0.03418445587158203,-0.9725475311279297,0.266041100025177
1683126391203030500,19.015030517578126,0.08081340789794922,-0.9654724597930908,0.2323753535747528
1683126391220871000,19.032870849609374,0.05966949462890625,-0.9010134935379028,0.18206346035003662
1683126391238706000,19.050705810546877,0.1239328384399414,-0.9220370054244995,0.2376054972410202
1683126391256554000,19.068553955078126,0.015642166137695312,-0.9255539774894714,0.18741944432258606
1683126391274388500,19.086388427734374,0.16662979125976562,-0.8652843832969666,0.2086043655872345
1683126391292225800,19.104225830078125,0.0181732177734375,-0.9865187406539917,0.2708381712436676
1683126391310067500,19.1220673828125,-0.027540206909179688,-0.962636411190033,0.263715922832489
1683126391327907000,19.139906982421873,0.04681110382080078,-0.9468191266059875,0.2412562519311905
1683126391345749800,19.157749755859374,0.09616661071777344,-0.8951461911201477,0.17786195874214172
1683126391363585500,19.17558544921875,0.09654712677001953,-0.9037198424339294,0.22367465496063232
1683126391381426400,19.193426513671874,0.018255233764648438,-0.9117072820663452,0.18353953957557678
1683126391399265500,19.211265625,0.1477489471435547,-0.8422249555587769,0.19786953926086426
1683126391417104600,19.229104736328125,-0.004059791564941406,-0.9469406604766846,0.26901739835739136
1683126391434944500,19.246944580078125,0.005602836608886719,-0.9437940716743469,0.2501058578491211
1683126391452783600,19.26478369140625,0.028054237365722656,-0.9232058525085449,0.22674715518951416
1683126391470623500,19.28262353515625,0.11590957641601562,-0.874554455280304,0.16380955278873444
1683126391488462000,19.300462158203125,0.09873390197753906,-0.878905713558197,0.20549361407756805
1683126391506302200,19.31830224609375,0.028047561645507812,-0.8816094398498535,0.1914164423942566
1683126391524133400,19.33613330078125,0.12813186645507812,-0.8342780470848083,0.1825150102376938
1683126391541971500,19.353971435546875,0.015371322631835938,-0.9453623294830322,0.26940417289733887
1683126391559820300,19.3718203125,0.014154434204101562,-0.9336668252944946,0.25786030292510986
1683126391577660200,19.38966015625,-0.019410133361816406,-0.9107102155685425,0.23584668338298798
1683126391595499300,19.407499267578125,0.10129928588867188,-0.8521004319190979,0.16488690674304962
1683126391613327400,19.425327392578126,0.0995941162109375,-0.8762340545654297,0.2091621309518814
1683126391631178000,19.443177978515624,0.0010194778442382812,-0.8584609031677246,0.18804430961608887
1683126391649017000,19.46101708984375,0.12552928924560547,-0.8055891394615173,0.17383447289466858
1683126391666858000,19.47885791015625,0.013484954833984375,-0.9213463068008423,0.27131175994873047
1683126391684692200,19.496692138671875,0.0065593719482421875,-0.9238018989562988,0.2542082667350769
1683126391702536000,19.514535888671876,0.0027980804443359375,-0.9101507663726807,0.2544013261795044
1683126391720375300,19.532375244140624,0.07770919799804688,-0.8432053327560425,0.16001440584659576
1683126391738217200,19.55021728515625,0.13001537322998047,-0.8661496639251709,0.21413806080818176
1683126391756050200,19.56805029296875,0.02707386016845703,-0.8438434600830078,0.16769516468048096
1683126391773890600,19.585890625,0.08110332489013672,-0.7943804264068604,0.16432736814022064
1683126391791736800,19.60373681640625,0.02497100830078125,-0.8964345455169678,0.25110864639282227
1683126391809572600,19.621572509765624,0.013281822204589844,-0.9111199975013733,0.2456098347902298
1683126391827412500,19.63941259765625,0.014753341674804688,-0.8864444494247437,0.2606128454208374
1683126391845251600,19.65725146484375,0.04424095153808594,-0.8260093927383423,0.15712395310401917
1683126391863091700,19.675091796875,0.13887310028076172,-0.8490296006202698,0.20545724034309387
1683126391880930600,19.6929306640625,0.0850515365600586,-0.8099579215049744,0.1488327980041504
1683126391898770400,19.7107705078125,0.043847084045410156,-0.777209997177124,0.15297144651412964
1683126391916609300,19.728609375,0.07152652740478516,-0.8600705862045288,0.23911651968955994
1683126391934449400,19.746449462890624,-0.007640838623046875,-0.8830735683441162,0.23663847148418427
1683126391952288800,19.764288818359375,0.03819751739501953,-0.8756250143051147,0.2554154694080353
1683126391970128100,19.782128173828124,0.055718421936035156,-0.8138681650161743,0.1517733633518219
1683126391987967200,19.79996728515625,0.11430740356445312,-0.8398333191871643,0.21200227737426758
1683126392005802500,19.817802490234374,0.07289600372314453,-0.8028869032859802,0.1639852225780487
1683126392023646200,19.835646240234375,0.031055450439453125,-0.7715705633163452,0.14645671844482422
1683126392041476400,19.853476318359377,0.0713796615600586,-0.8241346478462219,0.22856318950653076
1683126392059325400,19.871325439453123,-0.005242347717285156,-0.8529658317565918,0.22075146436691284
1683126392077164800,19.889164794921875,0.02080249786376953,-0.8592718243598938,0.26809656620025635
1683126392094993000,19.906992919921876,0.048175811767578125,-0.8171230554580688,0.15996798872947693
1683126392112843800,19.92484375,0.08220863342285156,-0.8281972408294678,0.19738730788230896
1683126392130681600,19.942681640625,0.09541130065917969,-0.8170605897903442,0.1761781871318817
1683126392148524300,19.960524169921875,-0.04093170166015625,-0.753476619720459,0.1445484757423401
1683126392166361900,19.97836181640625,0.10967826843261719,-0.8022974729537964,0.20778679847717285
1683126392184201700,19.99620166015625,-0.02992534637451172,-0.8565951585769653,0.23512959480285645
1683126392202040600,20.01404052734375,0.042975425720214844,-0.8375529646873474,0.2576935887336731
1683126392219881000,20.031880859375,0.051753997802734375,-0.8229823112487793,0.1627461314201355
1683126392237719800,20.0497197265625,0.04249095916748047,-0.8184593915939331,0.20790888369083405
1683126392255559700,20.0675595703125,0.1248006820678711,-0.7877908945083618,0.16440176963806152
1683126392273394000,20.085393798828125,-0.029420852661132812,-0.7454712390899658,0.1596374809741974
1683126392291243300,20.1032431640625,0.07191085815429688,-0.7828978300094604,0.19325724244117737
1683126392309077000,20.121076904296874,0.015589714050292969,-0.8373618125915527,0.21347305178642273
1683126392326913300,20.138913330078125,0.052321434020996094,-0.8223103880882263,0.25731217861175537
1683126392344755700,20.156755615234374,0.04913043975830078,-0.7987257242202759,0.16189450025558472
1683126392362596900,20.174596923828126,0.030147552490234375,-0.790092408657074,0.18991585075855255
1683126392380434000,20.192433837890626,0.14534378051757812,-0.7924686670303345,0.1737797111272812
1683126392398276400,20.2102763671875,-0.028467178344726562,-0.7483909130096436,0.15980744361877441
1683126392416114400,20.228114501953126,0.06564044952392578,-0.7601713538169861,0.19542863965034485
1683126392433950700,20.24595068359375,0.036263465881347656,-0.8340994715690613,0.20986270904541016
1683126392451792100,20.263792236328126,0.05758190155029297,-0.8110722303390503,0.25808194279670715
1683126392469634000,20.281634033203126,0.0651865005493164,-0.7816159129142761,0.16730138659477234
1683126392487471900,20.299471923828126,0.024282455444335938,-0.7759566307067871,0.18249252438545227
1683126392505311700,20.317311767578126,0.11709976196289062,-0.7765504717826843,0.1860349178314209
1683126392523150800,20.33515087890625,-0.010114669799804688,-0.7428518533706665,0.15749260783195496
1683126392540980200,20.352980224609375,0.056900978088378906,-0.7365686297416687,0.19197377562522888
1683126392558829600,20.37082958984375,0.0012769699096679688,-0.8195184469223022,0.21467193961143494
1683126392576675000,20.388675048828127,0.08614635467529297,-0.7937567830085754,0.24948915839195251
1683126392594508800,20.4065087890625,0.003444671630859375,-0.7796953320503235,0.1869548112154007
1683126392612349000,20.424348876953125,0.030626296997070312,-0.7771908640861511,0.1797848641872406
1683126392630187000,20.44218701171875,0.11044692993164062,-0.7739206552505493,0.1908441185951233
1683126392648022800,20.460022705078124,-0.00461578369140625,-0.7145370244979858,0.15237492322921753
1683126392665866500,20.477866455078125,0.07344245910644531,-0.7318171262741089,0.18660390377044678
1683126392683706400,20.495706298828125,-0.0031528472900390625,-0.7906718850135803,0.19544817507266998
1683126392701543700,20.513543701171876,0.0803232192993164,-0.7735086679458618,0.24775876104831696
1683126392719387000,20.531386962890625,0.020357131958007812,-0.7558603286743164,0.17858177423477173
1683126392737224200,20.54922412109375,0.014214515686035156,-0.7732806205749512,0.18243247270584106
1683126392755064300,20.567064208984377,0.11007022857666016,-0.7453674674034119,0.16197066009044647
1683126392772902000,20.58490185546875,0.014311790466308594,-0.6897113919258118,0.14061056077480316
1683126392790739700,20.60273974609375,0.11142349243164062,-0.6850951313972473,0.16629503667354584
1683126392808585000,20.6205849609375,-0.021200180053710938,-0.7712903022766113,0.185728058218956
1683126392826422000,20.638422119140625,0.1289348602294922,-0.7537415027618408,0.23227301239967346
1683126392844260600,20.656260498046876,-0.01817607879638672,-0.744764506816864,0.18448662757873535
1683126392862100700,20.674100830078125,0.028463363647460938,-0.7531805038452148,0.17923474311828613
1683126392879939300,20.691939208984376,0.09573078155517578,-0.7363197207450867,0.16248953342437744
1683126392897779700,20.70977978515625,0.036683082580566406,-0.660568356513977,0.11389821022748947
1683126392915618600,20.72761865234375,0.15040874481201172,-0.6528052687644958,0.15512140095233917
1683126392933445600,20.745445556640625,-0.05410957336425781,-0.7433019280433655,0.1804398000240326
1683126392951297300,20.76329736328125,0.1537313461303711,-0.7202297449111938,0.21601945161819458
1683126392969134600,20.781134521484375,0.008654594421386719,-0.744239866733551,0.20874953269958496
1683126392986979000,20.79897900390625,-0.045581817626953125,-0.74180006980896,0.17591220140457153
1683126393004816400,20.81681640625,0.12527179718017578,-0.734607994556427,0.16543260216712952
1683126393022654200,20.834654296875,0.02457427978515625,-0.6490774750709534,0.10621952265501022
1683126393040484600,20.852484619140625,0.15750408172607422,-0.6408241391181946,0.1564619541168213
1683126393058322200,20.870322265625,-0.06841659545898438,-0.7404968738555908,0.17573077976703644
1683126393076174000,20.888174072265624,0.09970283508300781,-0.7073434591293335,0.20682385563850403
1683126393093998600,20.90599853515625,0.04485607147216797,-0.7254138588905334,0.2095262110233307
1683126393111852800,20.923852783203124,-0.02736377716064453,-0.7323327660560608,0.1652667075395584
1683126393129696500,20.941696533203125,0.0628824234008789,-0.7262028455734253,0.16939577460289001
1683126393147531800,20.95953173828125,0.0323333740234375,-0.6454963684082031,0.10436154901981354
1683126393165370600,20.97737060546875,0.15264415740966797,-0.6298543214797974,0.15318827331066132
1683126393183211000,20.9952109375,-0.054986000061035156,-0.7271355986595154,0.17115899920463562
1683126393201049300,21.01304931640625,0.10686111450195312,-0.6771860122680664,0.187988743185997
1683126393218889500,21.030889404296875,0.020961761474609375,-0.7250322103500366,0.21987327933311462
1683126393236728600,21.048728515625,-0.04801750183105469,-0.7435219883918762,0.18297749757766724
1683126393254568400,21.066568359375,0.06557655334472656,-0.7136220932006836,0.16608327627182007
1683126393272407000,21.084406982421875,0.03040313720703125,-0.6326643824577332,0.09800796210765839
1683126393290244400,21.102244384765626,0.1539764404296875,-0.6187760829925537,0.15315157175064087
1683126393308089000,21.120089111328124,-0.037461280822753906,-0.7221420407295227,0.16713662445545197
1683126393325923300,21.13792333984375,0.06052684783935547,-0.6714422106742859,0.1810128092765808
1683126393343768000,21.15576806640625,0.0031747817993164062,-0.7012958526611328,0.21295255422592163
1683126393361604900,21.17360498046875,-0.028295516967773438,-0.7374140024185181,0.18449369072914124
1683126393379442700,21.191442626953126,0.03834724426269531,-0.7047597169876099,0.1668054312467575
1683126393397284900,21.209284912109375,0.052895545959472656,-0.6232998967170715,0.09824825078248978
1683126393415118000,21.2271181640625,0.12297821044921875,-0.615505576133728,0.15004926919937134
1683126393432962600,21.244962646484375,-0.0029592514038085938,-0.7144573926925659,0.16374586522579193
1683126393450801400,21.262801513671874,0.0337371826171875,-0.6632338762283325,0.1746406853199005
1683126393468641800,21.280641845703126,-0.01672840118408203,-0.7037955522537231,0.22293812036514282
1683126393486480400,21.29848046875,-0.016510963439941406,-0.7139898538589478,0.18838965892791748
1683126393504320500,21.316320556640626,-0.0010223388671875,-0.7130535840988159,0.1771320402622223
1683126393522159000,21.3341591796875,0.0769491195678711,-0.6272813081741333,0.08001333475112915
1683126393539998200,21.351998291015626,0.11626815795898438,-0.6096410155296326,0.14771899580955505
1683126393557821700,21.36982177734375,-0.032825469970703125,-0.7017108798027039,0.17253290116786957
1683126393575678000,21.387677978515626,0.018749237060546875,-0.6341675519943237,0.15949980914592743
1683126393593504800,21.4055048828125,-0.02714824676513672,-0.686244010925293,0.2138935625553131
1683126393611357200,21.423357177734374,0.021257400512695312,-0.7096794843673706,0.17114800214767456
1683126393629207800,21.441207763671876,-0.0041942596435546875,-0.706702470779419,0.18105767667293549
1683126393647036200,21.4590361328125,0.040017127990722656,-0.607104480266571,0.06889815628528595
1683126393664869600,21.47686962890625,0.16184234619140625,-0.5841198563575745,0.12899914383888245
1683126393682715000,21.49471484375,-0.048010826110839844,-0.6963962912559509,0.16784226894378662
1683126393700553200,21.51255322265625,0.01984882354736328,-0.6263428330421448,0.15484410524368286
1683126393718393300,21.530393310546874,-0.02462005615234375,-0.6534323692321777,0.19334633648395538
1683126393736227600,21.5482275390625,0.039012908935546875,-0.6872930526733398,0.1683977246284485
1683126393754072300,21.566072265625,0.0010557174682617188,-0.6831257939338684,0.19029836356639862
1683126393771908000,21.583908203125,0.027037620544433594,-0.5919899940490723,0.06928211450576782
1683126393789751800,21.601751708984374,0.15077686309814453,-0.5689045190811157,0.11738238483667374
1683126393807592400,21.619592529296874,0.003635406494140625,-0.660015344619751,0.15518346428871155
1683126393825430000,21.637429931640625,0.00853729248046875,-0.5978489518165588,0.146358460187912
1683126393843268900,21.655268798828125,-0.0019655227661132812,-0.636715829372406,0.18518860638141632
1683126393861107200,21.673107177734376,0.005469322204589844,-0.6684198379516602,0.16781626641750336
1683126393878948600,21.690948486328125,0.020479202270507812,-0.6687248945236206,0.19570425152778625
1683126393896785400,21.708785400390624,0.03040599822998047,-0.5891715288162231,0.06819871068000793
1683126393914626600,21.72662646484375,0.12981510162353516,-0.5735928416252136,0.12373340129852295
1683126393932466200,21.744466064453125,0.010487556457519531,-0.6506154537200928,0.144633486866951
1683126393950305300,21.76230517578125,-0.013164520263671875,-0.5994523167610168,0.146977499127388
1683126393968145700,21.780145751953125,0.011287689208984375,-0.6237009167671204,0.1822543889284134
1683126393985979400,21.7979794921875,0.0031728744506835938,-0.6436290144920349,0.1627172827720642
1683126394003824000,21.81582421875,0.027352333068847656,-0.6761935949325562,0.20263591408729553
1683126394021663000,21.8336630859375,0.02227020263671875,-0.572442352771759,0.0717129111289978
1683126394039502000,21.851502197265624,0.07504081726074219,-0.5624445676803589,0.10805873572826385
1683126394057337900,21.869337890625,0.032187461853027344,-0.6512812972068787,0.1653471142053604
1683126394075181800,21.887181884765624,-0.047272682189941406,-0.5838767290115356,0.14092561602592468
1683126394093009200,21.905009033203125,0.024292945861816406,-0.6205481290817261,0.18321765959262848
1683126394110859300,21.922859375,-0.03705024719238281,-0.6469624042510986,0.1714419424533844
1683126394128700400,21.940700439453124,0.01889324188232422,-0.667195737361908,0.21215523779392242
1683126394146539500,21.95853955078125,0.04423713684082031,-0.5532701015472412,0.0707157552242279
1683126394164378400,21.97637841796875,0.04801368713378906,-0.558058500289917,0.09990133345127106
1683126394182217200,21.99421728515625,0.06905746459960938,-0.6307682394981384,0.15654034912586212
1683126394200058000,22.01205810546875,-0.057021141052246094,-0.5838583707809448,0.1326926201581955
1683126394217897000,22.02989697265625,0.04446887969970703,-0.6017540097236633,0.16785787045955658
1683126394235735300,22.0477353515625,-0.012540817260742188,-0.6186209321022034,0.16644202172756195
1683126394253570300,22.0655703125,0.035431861877441406,-0.6614097356796265,0.2103368192911148
1683126394271417900,22.08341796875,0.0349578857421875,-0.5630998015403748,0.07682731002569199
1683126394289254700,22.101254638671875,0.0160369873046875,-0.5442232489585876,0.08785499632358551
1683126394307088600,22.119088623046874,0.10940265655517578,-0.6081846952438354,0.14369016885757446
1683126394324932400,22.136932373046875,-0.06460094451904297,-0.5679525136947632,0.1303739845752716
1683126394342773200,22.154773193359375,0.018289566040039062,-0.5899604558944702,0.15778984129428864
1683126394360611800,22.17261181640625,0.020363807678222656,-0.6303458213806152,0.17866230010986328
1683126394378451500,22.190451416015627,0.014659881591796875,-0.6525430679321289,0.2267800122499466
1683126394396291000,22.208291015625,0.04646778106689453,-0.5683088302612305,0.08056145161390305
1683126394414130000,22.2261298828125,-0.02225208282470703,-0.5399562120437622,0.08009441941976547
1683126394431968500,22.243968505859375,0.12331008911132812,-0.5812212824821472,0.1529502272605896
1683126394449810000,22.261809814453127,-0.060372352600097656,-0.5636434555053711,0.13017408549785614
1683126394467648500,22.2796484375,0.0103302001953125,-0.5644150972366333,0.15295442938804626
1683126394485487400,22.2974873046875,-0.014423370361328125,-0.6410639882087708,0.1835997849702835
1683126394503326200,22.315326171875,0.030792236328125,-0.643546462059021,0.23097996413707733
1683126394521168000,22.33316796875,0.042308807373046875,-0.5728111267089844,0.10386067628860474
1683126394539006200,22.351006103515626,-0.021254539489746094,-0.5525148510932922,0.08538845926523209
1683126394556839200,22.368839111328125,0.08483600616455078,-0.5450891256332397,0.14321833848953247
1683126394574685200,22.386685302734374,-0.02017688751220703,-0.5537427067756653,0.11299774050712585
1683126394592524000,22.40452392578125,0.03406047821044922,-0.5576242804527283,0.1586415022611618
1683126394610364000,22.422364013671874,-0.02435302734375,-0.626926064491272,0.17574015259742737
1683126394628203000,22.440203125,0.02247333526611328,-0.6312123537063599,0.2220531851053238
1683126394646043000,22.45804296875,0.036147117614746094,-0.5682459473609924,0.11122256517410278
1683126394663883300,22.47588330078125,-0.033397674560546875,-0.5455543994903564,0.09080775827169418
1683126394681721300,22.493721435546874,0.08605766296386719,-0.5476552844047546,0.14882516860961914
1683126394699559700,22.5115595703125,-0.008260726928710938,-0.536030650138855,0.1249355748295784
1683126394717386800,22.52938671875,0.07103443145751953,-0.5243583917617798,0.13507795333862305
1683126394735227600,22.5472275390625,-0.056532859802246094,-0.6111495494842529,0.17572835087776184
1683126394753078000,22.565078125,0.05620098114013672,-0.6012357473373413,0.2244584858417511
