time,seconds_elapsed,z,y,x
1683129273498381000,0.128381103515625,0.14038944244384766,0.09788370132446289,-0.15556855499744415
1683129273516231700,0.146231689453125,-0.18314170837402344,0.0498347282409668,0.2564552426338196
1683129273534067500,0.1640673828125,0.2726707458496094,0.053429484367370605,-0.2068438082933426
1683129273551909600,0.18190966796875,-0.1638355255126953,0.09674203395843506,0.1823539286851883
1683129273569743600,0.19974365234375,0.16552448272705078,0.07793200016021729,-0.2031075656414032
1683129273587581000,0.217580810546875,-0.08461856842041016,0.09058475494384766,0.09090885519981384
1683129273605419300,0.235419189453125,0.19879817962646484,-0.0950552225112915,-0.09204452484846115
1683129273623255300,0.25325537109375,-0.24488258361816406,0.3320181369781494,0.0709214061498642
1683129273641095700,0.271095703125,0.20563888549804688,-0.22751474380493164,-0.0550883524119854
1683129273658916600,0.28891650390625,-0.20979690551757812,0.5022581815719604,0.040799885988235474
1683129273676764700,0.3067646484375,0.1944265365600586,-0.261427640914917,0.0079868845641613
1683129273694605300,0.324605224609375,-0.16503047943115234,0.45248937606811523,-0.05031117424368858
1683129273712442000,0.342442138671875,0.1447010040283203,-0.42283904552459717,0.06865475326776505
1683129273730279400,0.360279541015625,-0.2405548095703125,0.5497784614562988,-0.05504118651151657
1683129273748116500,0.378116455078125,0.14551067352294922,-0.45787709951400757,0.03246735408902168
1683129273765954000,0.3959541015625,-0.22823619842529297,0.5607966184616089,-0.010146841406822205
1683129273783790300,0.413790283203125,0.0643606185913086,-0.29458558559417725,0.1316002905368805
1683129273801631500,0.431631591796875,-0.16473102569580078,0.45406436920166016,-0.06468600779771805
1683129273819469000,0.449468994140625,-0.006572723388671875,-0.2892032861709595,0.1210954412817955
1683129273837303300,0.46730322265625,-0.12679004669189453,0.3109133243560791,-0.13615235686302185
1683129273855134500,0.485134521484375,0.054900169372558594,-0.286068320274353,0.11068747937679291
1683129273872978000,0.50297802734375,-0.0485992431640625,0.17575037479400635,-0.1986437737941742
1683129273890811000,0.520810791015625,-0.1255941390991211,-0.04255843162536621,0.23960530757904053
1683129273908649500,0.5386494140625,0.03969097137451172,0.03392195701599121,-0.22099581360816956
1683129273926478300,0.556478271484375,-0.03651714324951172,0.07635927200317383,0.21064889430999756
1683129273944324400,0.574324462890625,0.06989192962646484,0.07090675830841064,-0.2145894467830658
1683129273962161700,0.59216162109375,-0.06361007690429688,0.030835390090942383,0.10024021565914154
1683129273980001500,0.61000146484375,0.06403160095214844,-0.05579054355621338,-0.1350521296262741
1683129273997839000,0.627839111328125,-0.20351028442382812,0.24430549144744873,0.07421218603849411
1683129274015678700,0.6456787109375,0.1520404815673828,-0.22947978973388672,-0.06814111769199371
1683129274033513200,0.66351318359375,-0.21245288848876953,0.43120086193084717,0.08091151714324951
1683129274051353600,0.681353515625,0.26051998138427734,-0.21341121196746826,-0.0045743584632873535
1683129274069188000,0.69918798828125,-0.21376895904541016,0.3975738286972046,-0.05682790279388428
1683129274087028000,0.717028076171875,0.15099143981933594,-0.3806394338607788,0.05535753443837166
1683129274104858600,0.734858642578125,-0.20244979858398438,0.5118356943130493,-0.03694147244095802
1683129274122700000,0.752699951171875,0.20448780059814453,-0.48139768838882446,0.027231279760599136
1683129274140537000,0.770537109375,-0.27221202850341797,0.5556142330169678,-0.016562387347221375
1683129274158374400,0.78837451171875,0.08544063568115234,-0.3156275153160095,0.13116034865379333
1683129274176205800,0.806205810546875,-0.21798992156982422,0.4841597080230713,-0.04849483072757721
1683129274194034700,0.82403466796875,0.05076789855957031,-0.3152749538421631,0.0964793786406517
1683129274211874800,0.841874755859375,-0.17860794067382812,0.3595162630081177,-0.11117878556251526
1683129274229726500,0.8597265625,0.07326221466064453,-0.3237046003341675,0.11035041511058807
1683129274247561000,0.87756103515625,-0.11326980590820312,0.2020777463912964,-0.16362357139587402
1683129274265398000,0.89539794921875,-0.08291435241699219,-0.09992563724517822,0.23205453157424927
1683129274283235300,0.9132353515625,-0.006249427795410156,0.06612908840179443,-0.18446174263954163
1683129274301072600,0.93107275390625,-0.062026023864746094,0.08356750011444092,0.2509799301624298
1683129274318910500,0.948910400390625,0.061272621154785156,0.10102427005767822,-0.2138829231262207
1683129274336747500,0.96674755859375,-0.041144371032714844,-0.0006846189498901367,0.15397779643535614
1683129274354589200,0.984589111328125,0.0359344482421875,0.010018110275268555,-0.18538938462734222
1683129274372419000,1.002419189453125,-0.21099567413330078,0.21600914001464844,0.08924035727977753
1683129274390262300,1.02026220703125,0.10998249053955078,-0.18016064167022705,-0.09713426977396011
1683129274408097800,1.038097900390625,-0.21059131622314453,0.4473375082015991,0.10595319420099258
1683129274425933600,1.05593359375,0.21552085876464844,-0.17461252212524414,-0.021366272121667862
1683129274443772000,1.07377197265625,-0.21157073974609375,0.3962477445602417,-0.018757620826363564
1683129274461606400,1.0916064453125,0.23095989227294922,-0.32579612731933594,0.011890899389982224
1683129274479445500,1.109445556640625,-0.19901180267333984,0.4321906566619873,-0.07002434879541397
1683129274497276000,1.12727587890625,0.189788818359375,-0.4455150365829468,0.029268674552440643
1683129274515118800,1.145118896484375,-0.2884702682495117,0.5649721622467041,-0.027883196249604225
1683129274532957700,1.162957763671875,0.1515817642211914,-0.39367449283599854,0.07561861723661423
1683129274550794800,1.180794677734375,-0.22255420684814453,0.5370093584060669,-0.007226305082440376
1683129274568632300,1.19863232421875,0.08400821685791016,-0.3473508954048157,0.10308837890625
1683129274586457600,1.21645751953125,-0.19664287567138672,0.3945012092590332,-0.07997137308120728
1683129274604306700,1.234306640625,0.056252479553222656,-0.34777694940567017,0.1051674410700798
1683129274622127400,1.25212744140625,-0.14481353759765625,0.26428234577178955,-0.1191103607416153
1683129274639980000,1.26997998046875,-0.00493621826171875,-0.18719089031219482,0.18948090076446533
1683129274657818400,1.287818359375,-0.052734375,0.1745314598083496,-0.15718254446983337
1683129274675657200,1.3056572265625,-0.0638742446899414,0.0027393102645874023,0.24024686217308044
1683129274693494500,1.32349462890625,-0.01662158966064453,0.1454298496246338,-0.22150512039661407
1683129274711330300,1.341330322265625,-0.008718490600585938,-0.021391987800598145,0.17788055539131165
1683129274729168000,1.35916796875,-0.024039268493652344,0.07067584991455078,-0.2134213149547577
1683129274747005000,1.3770048828125,-0.17635154724121094,0.08636152744293213,0.11224998533725739
1683129274764840000,1.39483984375,0.11567211151123047,-0.08779644966125488,-0.154608353972435
1683129274782681600,1.412681640625,-0.2186450958251953,0.35140907764434814,0.1315607726573944
1683129274800513800,1.430513671875,0.18487834930419922,-0.14576983451843262,-0.07274874299764633
1683129274818349600,1.448349609375,-0.06001472473144531,0.32934701442718506,0.03004668653011322
1683129274836191200,1.466191162109375,0.25135231018066406,-0.24670422077178955,-0.016224075108766556
1683129274854031600,1.484031494140625,-0.2151021957397461,0.3505131006240845,-0.05795245245099068
1683129274871860000,1.50185986328125,0.21092987060546875,-0.3862447738647461,0.03150191530585289
1683129274889703400,1.519703369140625,-0.31363391876220703,0.6026982069015503,0.005563009530305862
1683129274907529200,1.537529296875,0.1975107192993164,-0.4057934284210205,0.05957286059856415
1683129274925377800,1.555377685546875,-0.24217510223388672,0.6037986278533936,0.01423078402876854
1683129274943217200,1.573217041015625,0.13776493072509766,-0.34366053342819214,0.09931454062461853
1683129274961055200,1.59105517578125,-0.1806497573852539,0.45837855339050293,-0.0767669826745987
1683129274978889700,1.6088896484375,0.08714580535888672,-0.4437072277069092,0.06523561477661133
1683129274996730000,1.626730224609375,-0.19753265380859375,0.38059473037719727,-0.07790203392505646
1683129275014565600,1.644565673828125,0.04891777038574219,-0.3035181164741516,0.12209512293338776
1683129275032390100,1.66239013671875,-0.13706588745117188,0.2564891576766968,-0.14593176543712616
1683129275050239200,1.6802392578125,-0.0383148193359375,-0.07611191272735596,0.20921030640602112
1683129275068072200,1.698072265625,-0.07036685943603516,0.18374943733215332,-0.17672942578792572
1683129275085914600,1.71591455078125,0.014421463012695312,-0.0810849666595459,0.20382672548294067
1683129275103750700,1.733750732421875,-0.035053253173828125,0.15249192714691162,-0.21457640826702118
1683129275121589200,1.75158935546875,-0.12972068786621094,-0.0430910587310791,0.16388729214668274
1683129275139425800,1.76942578125,0.033560752868652344,-0.043507933616638184,-0.22139091789722443
1683129275157249500,1.78724951171875,-0.20049667358398438,0.26608800888061523,0.17916500568389893
1683129275175090400,1.80509033203125,0.16117095947265625,-0.11539256572723389,-0.16497212648391724
1683129275192936200,1.822936279296875,-0.10942459106445312,0.2688634395599365,0.11165459454059601
1683129275210777300,1.84077734375,0.1570110321044922,-0.1303340196609497,-0.07103683054447174
1683129275228616200,1.8586162109375,-0.16822052001953125,0.2515794038772583,-0.045091234147548676
1683129275246449200,1.87644921875,0.2253427505493164,-0.3200209140777588,-0.027134239673614502
1683129275264285400,1.894285400390625,-0.2861061096191406,0.47850894927978516,-0.017216823995113373
1683129275282124000,1.9121240234375,0.23754119873046875,-0.36997902393341064,0.03334401547908783
1683129275299961000,1.929961181640625,-0.2838468551635742,0.5575611591339111,0.007379051297903061
1683129275317799000,1.947798828125,0.17713642120361328,-0.36903226375579834,0.08516751229763031
1683129275335621000,1.96562109375,-0.1873311996459961,0.5251501798629761,-0.06799333542585373
1683129275353472500,1.983472412109375,0.12390518188476562,-0.45214420557022095,0.04244875907897949
1683129275371310300,2.001310302734375,-0.24336910247802734,0.47381269931793213,-0.06116568297147751
1683129275389147600,2.019147705078125,0.08875274658203125,-0.400787353515625,0.07804439961910248
1683129275406985000,2.03698486328125,-0.17377948760986328,0.3969043493270874,-0.0633540078997612
1683129275424818400,2.054818359375,-0.005126953125,-0.2052093744277954,0.161563903093338
1683129275442658800,2.072658935546875,-0.10317802429199219,0.2936103343963623,-0.13575983047485352
1683129275460493800,2.090493896484375,-0.007431983947753906,-0.14884233474731445,0.19697633385658264
1683129275478322400,2.108322509765625,-0.07649612426757812,0.18110454082489014,-0.1854228377342224
1683129275496160500,2.126160400390625,-0.0068302154541015625,-0.17273223400115967,0.15402591228485107
1683129275514010000,2.144010009765625,-0.008802413940429688,0.037239909172058105,-0.22654664516448975
1683129275531843300,2.16184326171875,-0.20755672454833984,0.0801156759262085,0.21237890422344208
1683129275549683200,2.17968310546875,0.1007843017578125,-0.024491190910339355,-0.18992316722869873
1683129275567520800,2.197520751953125,-0.07471179962158203,0.21304023265838623,0.17350709438323975
1683129275585352000,2.21535205078125,0.0709991455078125,-0.032256484031677246,-0.1369953453540802
1683129275603195100,2.233195068359375,-0.10967445373535156,0.1519019603729248,0.04546676576137543
1683129275621032400,2.251032470703125,0.1153268814086914,-0.1726282835006714,-0.0735357478260994
1683129275638860800,2.26886083984375,-0.25289058685302734,0.35120534896850586,0.021667517721652985
1683129275656708400,2.286708251953125,0.19176292419433594,-0.3107614517211914,-0.015700288116931915
1683129275674548200,2.30454833984375,-0.2856884002685547,0.5659874677658081,0.07762940227985382
1683129275692379000,2.32237890625,0.23940753936767578,-0.26538872718811035,0.05219386890530586
1683129275710219000,2.340218994140625,-0.1857166290283203,0.48204994201660156,-0.05455569550395012
1683129275728056300,2.358056396484375,0.1470508575439453,-0.4106789827346802,0.05425151437520981
1683129275745893600,2.3758935546875,-0.22572708129882812,0.503830075263977,-0.06605175137519836
1683129275763731000,2.39373095703125,0.17787933349609375,-0.484363853931427,0.012665247544646263
1683129275781558000,2.41155810546875,-0.2717609405517578,0.5478579998016357,-0.00154813751578331
1683129275799405600,2.429405517578125,0.11950111389160156,-0.3288574814796448,0.1243164986371994
1683129275817243400,2.447243408203125,-0.16999053955078125,0.4524275064468384,-0.05657303333282471
1683129275835072500,2.465072509765625,0.0027647018432617188,-0.2423473596572876,0.1266036480665207
1683129275852917200,2.482917236328125,-0.18259429931640625,0.316165566444397,-0.117766372859478
1683129275870754800,2.5007548828125,0.059352874755859375,-0.2828258275985718,0.11432795226573944
1683129275888592000,2.518591796875,-0.054930686950683594,0.17024147510528564,-0.15549054741859436
1683129275906423600,2.536423583984375,-0.12369728088378906,-0.024064183235168457,0.2601826786994934
1683129275924254700,2.554254638671875,-0.015010833740234375,0.0473780632019043,-0.19754862785339355
1683129275942100200,2.572100341796875,-0.06255054473876953,0.1047050952911377,0.24136114120483398
1683129275959937000,2.58993701171875,0.06768321990966797,0.09396600723266602,-0.20740532875061035
1683129275977779500,2.607779541015625,-0.033367156982421875,0.019418001174926758,0.11944080889225006
1683129275995616300,2.6256162109375,0.00159454345703125,-0.010993123054504395,-0.15595503151416779
1683129276013453300,2.643453369140625,-0.17380905151367188,0.18659281730651855,0.06766322255134583
1683129276031290600,2.66129052734375,0.10452461242675781,-0.2011622190475464,-0.08750380575656891
1683129276049127700,2.679127685546875,-0.2919502258300781,0.401574969291687,0.07768766582012177
1683129276066963500,2.69696337890625,0.25345516204833984,-0.22416186332702637,-0.015799839049577713
1683129276084799000,2.714799072265625,-0.16528034210205078,0.39322125911712646,-0.02434501424431801
1683129276102640600,2.732640625,0.21078014373779297,-0.3498115539550781,0.018641265109181404
1683129276120474000,2.75047412109375,-0.18720722198486328,0.42608213424682617,-0.06546241044998169
1683129276138314200,2.768314208984375,0.19102954864501953,-0.4747024178504944,0.0328730046749115
1683129276156146000,2.78614599609375,-0.24492549896240234,0.5691606998443604,-0.008578184992074966
1683129276173992200,2.8039921875,0.15874195098876953,-0.42129451036453247,0.08696801960468292
1683129276191823400,2.8218232421875,-0.2447671890258789,0.5741552114486694,0.005386222153902054
1683129276209651000,2.83965087890625,0.11151504516601562,-0.31592345237731934,0.08248923718929291
1683129276227497000,2.8574970703125,-0.19455242156982422,0.3981086015701294,-0.07763056457042694
1683129276245335300,2.875335205078125,0.02306365966796875,-0.36378777027130127,0.11062636226415634
1683129276263178000,2.893177978515625,-0.16001033782958984,0.2684509754180908,-0.1120183989405632
1683129276281013000,2.911012939453125,0.014107704162597656,-0.20946097373962402,0.17469754815101624
1683129276298850000,2.92885009765625,-0.09553337097167969,0.14692366123199463,-0.15852420032024384
1683129276316687400,2.946687255859375,-0.08488845825195312,-0.005702614784240723,0.23172789812088013
1683129276334525000,2.96452490234375,0.027686119079589844,0.09728872776031494,-0.21840229630470276
1683129276352363800,2.98236376953125,0.009124755859375,-0.03433692455291748,0.1912379264831543
1683129276370192000,3.00019189453125,-0.06324291229248047,0.08891892433166504,-0.2018214762210846
1683129276388033800,3.01803369140625,-0.15013599395751953,0.03741729259490967,0.12972335517406464
1683129276405874400,3.03587451171875,0.05930805206298828,-0.09622049331665039,-0.1705063283443451
1683129276423712500,3.05371240234375,-0.19606685638427734,0.33370471000671387,0.15016275644302368
1683129276441549600,3.071549560546875,0.14467239379882812,-0.1339554786682129,-0.07993537932634354
1683129276459383000,3.089383056640625,-0.09041118621826172,0.305794358253479,0.05818759649991989
1683129276477217300,3.10721728515625,0.221343994140625,-0.17721259593963623,-0.025622859597206116
1683129276495063000,3.12506298828125,-0.2181386947631836,0.3208705186843872,-0.056653186678886414
1683129276512897800,3.142897705078125,0.24270057678222656,-0.37723350524902344,0.032468345016241074
1683129276530735000,3.160735107421875,-0.29053211212158203,0.6021667718887329,0.01698020100593567
1683129276548568000,3.178568115234375,0.20327377319335938,-0.40947461128234863,0.06415178626775742
1683129276566409700,3.19640966796875,-0.26761913299560547,0.6079713106155396,-0.00638456828892231
1683129276584247000,3.2142470703125,0.15565109252929688,-0.32823753356933594,0.10657595098018646
1683129276602084600,3.232084716796875,-0.2298755645751953,0.4772411584854126,-0.06540036201477051
1683129276619922000,3.249921875,0.17763042449951172,-0.4478660225868225,0.04247978702187538
1683129276637748700,3.267748779296875,-0.22423744201660156,0.43335092067718506,-0.07027215510606766
1683129276655596500,3.285596435546875,0.04438209533691406,-0.36163419485092163,0.09490998089313507
1683129276673432800,3.303432861328125,-0.1340351104736328,0.2935786247253418,-0.10592816025018692
1683129276691271200,3.321271240234375,-0.058287620544433594,-0.12294650077819824,0.19942538440227509
1683129276709108700,3.339108642578125,-0.11013317108154297,0.22120821475982666,-0.13584274053573608
1683129276726945800,3.35694580078125,0.0042877197265625,-0.1003105640411377,0.2077973186969757
1683129276744773000,3.374773193359375,-0.03245353698730469,0.14922237396240234,-0.19759519398212433
1683129276762619600,3.39261962890625,-0.06200599670410156,-0.0930025577545166,0.19488582015037537
1683129276780458000,3.4104580078125,-0.010885238647460938,-0.010254383087158203,-0.22711516916751862
1683129276798293500,3.42829345703125,-0.18758296966552734,0.19495177268981934,0.20988941192626953
1683129276816132400,3.44613232421875,0.11853981018066406,-0.06936633586883545,-0.1753041297197342
1683129276833970000,3.463969970703125,-0.09641551971435547,0.24365127086639404,0.14616401493549347
1683129276851807200,3.48180712890625,0.1354084014892578,-0.08236074447631836,-0.07847946882247925
1683129276869644500,3.49964453125,-0.14110946655273438,0.19148147106170654,-0.022805845364928246
1683129276887470000,3.517469970703125,0.19340133666992188,-0.2651810646057129,-0.03442231938242912
1683129276905316400,3.53531640625,-0.27837181091308594,0.42102909088134766,-0.008718369528651237
1683129276923155200,3.5531552734375,0.21756839752197266,-0.3609333038330078,0.03192997723817825
1683129276940981800,3.570981689453125,-0.2712364196777344,0.564672589302063,0.04242640733718872
1683129276958828000,3.588828125,0.20598602294921875,-0.33875179290771484,0.07351384311914444
1683129276976667000,3.6066669921875,-0.1689167022705078,0.5392365455627441,-0.03728188946843147
1683129276994507500,3.624507568359375,0.19374847412109375,-0.4635438323020935,0.04420444741845131
1683129277012343600,3.642343505859375,-0.22786712646484375,0.5036050081253052,-0.043986834585666656
1683129277030180400,3.660180419921875,0.1322793960571289,-0.43410658836364746,0.0664740800857544
1683129277048017700,3.678017578125,-0.20953845977783203,0.4613393545150757,-0.021538875997066498
1683129277065855000,3.69585498046875,0.02208995819091797,-0.28880929946899414,0.15296566486358643
1683129277083692500,3.713692626953125,-0.13534069061279297,0.39420008659362793,-0.06018752604722977
1683129277101529900,3.73152978515625,0.01894664764404297,-0.20274341106414795,0.1444167047739029
1683129277119368000,3.749367919921875,-0.19902420043945312,0.2201845645904541,-0.1548362374305725
1683129277137204500,3.76720458984375,0.054473876953125,-0.27588534355163574,0.12435479462146759
1683129277155041500,3.78504150390625,-0.04317665100097656,0.08342373371124268,-0.20900990068912506
1683129277172879000,3.802879150390625,-0.15193843841552734,-0.0360262393951416,0.24288196861743927
1683129277190716200,3.820716064453125,0.03721427917480469,-0.022883057594299316,-0.23017309606075287
1683129277208542000,3.8385419921875,-0.07029342651367188,0.11819040775299072,0.21755188703536987
1683129277226387700,3.8563876953125,0.08718299865722656,0.01885378360748291,-0.18336088955402374
1683129277244227300,3.874227294921875,-0.08863162994384766,0.06931173801422119,0.09395140409469604
1683129277262069000,3.892069091796875,0.04062652587890625,-0.06536591053009033,-0.12478440254926682
1683129277279903200,3.9099033203125,-0.18660831451416016,0.23088228702545166,0.04616579785943031
1683129277297740800,3.92774072265625,0.13600826263427734,-0.2435462474822998,-0.05165031552314758
1683129277315571700,3.94557177734375,-0.2643585205078125,0.4682798385620117,0.09002038836479187
1683129277333404400,3.963404296875,0.25461769104003906,-0.2595130205154419,0.015710830688476562
1683129277351252700,3.981252685546875,-0.2274341583251953,0.41170549392700195,-0.04937516152858734
1683129277369092600,3.999092529296875,0.20244979858398438,-0.3841664791107178,0.03846091032028198
1683129277386924300,4.01692431640625,-0.19083404541015625,0.46390223503112793,-0.07979583740234375
1683129277404765000,4.034764892578125,0.20120716094970703,-0.508299708366394,0.03451777622103691
1683129277422601200,4.052601318359375,-0.2968769073486328,0.5460138320922852,-0.011218961328268051
1683129277440439000,4.07043896484375,0.1361989974975586,-0.40404438972473145,0.09975902736186981
1683129277458273300,4.088273193359375,-0.22739315032958984,0.53999924659729,0.004518531262874603
1683129277476115700,4.10611572265625,0.09543800354003906,-0.3377779722213745,0.08802919089794159
1683129277493945600,4.123945556640625,-0.1963644027709961,0.4113065004348755,-0.08746960759162903
1683129277511776800,4.14177685546875,0.051712989807128906,-0.3608431816101074,0.1084214597940445
1683129277529628700,4.159628662109375,-0.14131546020507812,0.2430870532989502,-0.0939154252409935
1683129277547463200,4.177463134765625,0.004101753234863281,-0.19336950778961182,0.21677981317043304
1683129277565294600,4.195294677734375,-0.07133197784423828,0.08944296836853027,-0.1751418262720108
1683129277583137800,4.2131376953125,-0.08837032318115234,0.0027920007705688477,0.2313096970319748
1683129277600975600,4.2309755859375,-0.005625724792480469,0.11271893978118896,-0.21765556931495667
1683129277618812700,4.248812744140625,-0.030572891235351562,-0.0489271879196167,0.20203380286693573
1683129277636644000,4.26664404296875,-0.06450366973876953,0.07241153717041016,-0.1949295848608017
1683129277654487300,4.2844873046875,-0.17321300506591797,0.04298245906829834,0.13132213056087494
1683129277672315600,4.302315673828125,0.07201194763183594,-0.08886170387268066,-0.16372288763523102
1683129277690164000,4.3201640625,-0.23397445678710938,0.32543957233428955,0.14716704189777374
1683129277707998500,4.33799853515625,0.1921863555908203,-0.14492666721343994,-0.09319961071014404
1683129277725836500,4.35583642578125,-0.05002593994140625,0.3034977912902832,0.05628935620188713
1683129277743673900,4.373673828125,0.19582748413085938,-0.20024871826171875,-0.012149181216955185
1683129277761501400,4.39150146484375,-0.18314361572265625,0.3248329162597656,-0.03376417234539986
1683129277779349000,4.409348876953125,0.22452640533447266,-0.3651665449142456,0.018295414745807648
1683129277797186000,4.42718603515625,-0.33471012115478516,0.5755716562271118,0.003084380179643631
1683129277815011600,4.445011474609375,0.2036609649658203,-0.4146546721458435,0.05115201324224472
1683129277832860200,4.462860107421875,-0.2536916732788086,0.5774734020233154,0.016407182440161705
1683129277850696200,4.4806962890625,0.14167118072509766,-0.36213773488998413,0.10967374593019485
1683129277868535600,4.49853564453125,-0.20264148712158203,0.4472414255142212,-0.06658990681171417
1683129277886369800,4.516369873046875,0.1358795166015625,-0.47217118740081787,0.032650724053382874
1683129277904210400,4.53421044921875,-0.23195838928222656,0.441520094871521,-0.058566346764564514
1683129277922047500,4.552047607421875,0.07627487182617188,-0.38537609577178955,0.08760866522789001
1683129277939885300,4.56988525390625,-0.204254150390625,0.3245629072189331,-0.08241689950227737
1683129277957714400,4.58771435546875,0.007380485534667969,-0.15547657012939453,0.1829616129398346
1683129277975559400,4.605559326171875,-0.1365489959716797,0.24058282375335693,-0.13182461261749268
1683129277993400300,4.623400390625,-0.01316070556640625,-0.15791702270507812,0.17996007204055786
1683129278011234300,4.641234375,-0.029376983642578125,0.1449904441833496,-0.17861835658550262
1683129278029071600,4.659071533203125,-0.03895282745361328,-0.11949002742767334,0.19519422948360443
1683129278046909200,4.6769091796875,-0.03315448760986328,-0.007729172706604004,-0.21669571101665497
1683129278064734700,4.694734619140625,-0.18467330932617188,0.12786602973937988,0.23579004406929016
1683129278082584000,4.712583984375,0.09565353393554688,-0.001980900764465332,-0.1894432008266449
1683129278100402700,4.730402587890625,-0.06047821044921875,0.2093721628189087,0.17657388746738434
1683129278118255900,4.748255859375,0.08577156066894531,-0.04269611835479736,-0.10866613686084747
1683129278136095700,4.766095703125,-0.12796974182128906,0.14785826206207275,0.02085847221314907
1683129278153936400,4.783936279296875,0.15904998779296875,-0.20744812488555908,-0.06881608814001083
1683129278171770600,4.8017705078125,-0.27303028106689453,0.3729509115219116,0.024375703185796738
1683129278189596400,4.819596435546875,0.19488143920898438,-0.31249988079071045,0.011229045689105988
1683129278207446300,4.8374462890625,-0.2378683090209961,0.5034459829330444,0.052577003836631775
1683129278225282300,4.8552822265625,0.25543975830078125,-0.3103528618812561,0.05792770907282829
1683129278243120000,4.8731201171875,-0.1908426284790039,0.4567157030105591,-0.07022544741630554
1683129278260959000,4.890958984375,0.16598129272460938,-0.4717872142791748,0.048812732100486755
1683129278278789400,4.908789306640625,-0.23757457733154297,0.5568641424179077,-0.030037764459848404
1683129278296632300,4.92663232421875,0.1662607192993164,-0.49379587173461914,0.047725651413202286
1683129278314469600,4.9444697265625,-0.29164695739746094,0.5357756614685059,0.02302534133195877
1683129278332310800,4.962310791015625,0.059830665588378906,-0.32805657386779785,0.15321755409240723
1683129278350144300,4.980144287109375,-0.16295337677001953,0.43345582485198975,-0.05422956869006157
1683129278367969000,4.997968994140625,0.044231414794921875,-0.2728375196456909,0.11382554471492767
1683129278385817000,5.015817138671875,-0.20678997039794922,0.29571533203125,-0.10517410933971405
1683129278403657500,5.033657470703125,0.07117652893066406,-0.29027247428894043,0.1197919175028801
1683129278421496600,5.05149658203125,-0.0964508056640625,0.1546090841293335,-0.14547491073608398
1683129278439331000,5.0693310546875,-0.12909889221191406,-0.03815126419067383,0.25242891907691956
1683129278457165300,5.087165283203125,-0.028881072998046875,0.03627800941467285,-0.1939467191696167
1683129278474995200,5.1049951171875,-0.028759002685546875,0.08112359046936035,0.2573702931404114
1683129278492825000,5.1228251953125,0.07043266296386719,0.09550082683563232,-0.19983729720115662
1683129278510680800,5.140680908203125,-0.04661369323730469,-0.013332843780517578,0.16540341079235077
1683129278528513500,5.158513427734375,0.01647663116455078,0.0080033540725708,-0.1874837875366211
1683129278546352600,5.1763525390625,-0.17521286010742188,0.19964540004730225,0.10281044244766235
1683129278564193000,5.194193115234375,0.06780433654785156,-0.18933212757110596,-0.12312999367713928
1683129278582030600,5.212030517578125,-0.2532329559326172,0.36337387561798096,0.10987256467342377
1683129278599870500,5.229870361328125,0.22977161407470703,-0.19214189052581787,-0.013197802007198334
1683129278617705700,5.247705810546875,-0.13356590270996094,0.32567262649536133,-0.015045717358589172
1683129278635530200,5.2655302734375,0.26134490966796875,-0.37081122398376465,-0.0177568718791008
1683129278653378300,5.28337841796875,-0.1989765167236328,0.40255212783813477,-0.07762137800455093
1683129278671217200,5.301217041015625,0.20189666748046875,-0.45135414600372314,0.03596708923578262
1683129278689057000,5.31905712890625,-0.3224153518676758,0.5836435556411743,0.012286191806197166
1683129278706885600,5.3368857421875,0.16774749755859375,-0.4220484495162964,0.095174141228199
1683129278724730400,5.35473046875,-0.23200321197509766,0.5732241868972778,0.010636705905199051
1683129278742565600,5.372565673828125,0.12471199035644531,-0.3855407238006592,0.10585124045610428
1683129278760404000,5.390404052734375,-0.18931961059570312,0.42323875427246094,-0.07910288125276566
1683129278778229500,5.4082294921875,0.08268165588378906,-0.43163830041885376,0.0748627707362175
1683129278796078600,5.42607861328125,-0.20516681671142578,0.36142468452453613,-0.056700289249420166
1683129278813901000,5.443901123046875,0.04177665710449219,-0.284126877784729,0.1657513976097107
1683129278831754500,5.46175439453125,-0.14763545989990234,0.25437653064727783,-0.09871469438076019
1683129278849590800,5.4795908203125,-0.08646965026855469,-0.1111377477645874,0.20488300919532776
1683129278867428000,5.497427978515625,-0.05795478820800781,0.13939249515533447,-0.18885987997055054
1683129278885262300,5.515262451171875,0.0025386810302734375,-0.09582912921905518,0.185235857963562
1683129278903103000,5.53310302734375,-0.03118133544921875,0.09341585636138916,-0.2110549509525299
1683129278920929800,5.5509296875,-0.16277694702148438,-0.033296823501586914,0.19994284212589264
1683129278938777600,5.568777587890625,0.023230552673339844,-0.06385111808776855,-0.22832530736923218
1683129278956615200,5.586615234375,-0.19554710388183594,0.22959554195404053,0.20117422938346863
1683129278974454000,5.6044541015625,0.15233993530273438,-0.08420383930206299,-0.15782727301120758
1683129278992290300,5.622290283203125,-0.07580184936523438,0.2010411024093628,0.1068105474114418
1683129279010127400,5.64012744140625,0.1554574966430664,-0.12830746173858643,-0.07169776409864426
1683129279027964400,5.65796435546875,-0.15815067291259766,0.23530030250549316,-0.01586371287703514
1683129279045801700,5.6758017578125,0.1810617446899414,-0.31742703914642334,-0.02990703098475933
1683129279063639600,5.6936396484375,-0.28405094146728516,0.5073860883712769,0.03339836373925209
1683129279081475800,5.711475830078125,0.2292003631591797,-0.3301422595977783,0.05352509766817093
1683129279099311400,5.729311279296875,-0.2595634460449219,0.5282063484191895,0.011393068358302116
1683129279117151500,5.7471513671875,0.19686222076416016,-0.3873862624168396,0.07363572716712952
1683129279134986200,5.764986328125,-0.17770957946777344,0.47506582736968994,-0.09183380752801895
1683129279152826600,5.78282666015625,0.19279861450195312,-0.5069188475608826,0.050570305436849594
1683129279170663400,5.800663330078125,-0.27704715728759766,0.49957549571990967,-0.03653620928525925
1683129279188501200,5.818501220703125,0.10306835174560547,-0.48324763774871826,0.09478361904621124
1683129279206338600,5.836338623046875,-0.2224750518798828,0.4695960283279419,-0.01614728383719921
1683129279224177200,5.85417724609375,0.040802955627441406,-0.25069594383239746,0.127820685505867
1683129279242016500,5.8720166015625,-0.113311767578125,0.33757996559143066,-0.10351867973804474
1683129279259850800,5.889850830078125,-0.034096717834472656,-0.24118995666503906,0.17255578935146332
1683129279277688000,5.90768798828125,-0.10797405242919922,0.20401883125305176,-0.1328260749578476
1683129279295519700,5.925519775390625,0.02165985107421875,-0.21909642219543457,0.16143013536930084
1683129279313363000,5.943363037109375,-0.07041549682617188,0.03126978874206543,-0.2198902666568756
1683129279331200500,5.961200439453125,-0.1490802764892578,0.04155433177947998,0.23647809028625488
1683129279349025800,5.97902587890625,0.06375980377197266,-0.024959921836853027,-0.2123529464006424
1683129279366872300,5.996872314453125,-0.07728958129882812,0.11310768127441406,0.22913743555545807
1683129279384712400,6.01471240234375,0.011887550354003906,0.031757473945617676,-0.19288498163223267
1683129279402550300,6.03255029296875,-0.109375,0.0645829439163208,0.10454351454973221
1683129279420375600,6.05037548828125,0.08605289459228516,-0.10734939575195312,-0.11581285297870636
1683129279438225000,6.068224853515625,-0.22870635986328125,0.2662968635559082,0.07314517349004745
1683129279456059400,6.086059326171875,0.10542011260986328,-0.27638423442840576,-0.0541943721473217
1683129279473899800,6.103899658203125,-0.16823101043701172,0.4420207738876343,0.09008954465389252
1683129279491735300,6.1217353515625,0.2346782684326172,-0.2632225751876831,0.025701845064759254
1683129279509563000,6.13956298828125,-0.2301321029663086,0.378481388092041,-0.07623229920864105
1683129279527399700,6.157399658203125,0.19524478912353516,-0.4122607111930847,0.04033992439508438
1683129279545252000,6.175252197265625,-0.23929500579833984,0.502629280090332,-0.05815161019563675
1683129279563084800,6.193084716796875,0.18601036071777344,-0.5148347616195679,0.05356330797076225
1683129279580924000,6.210923828125,-0.3155403137207031,0.5647211074829102,0.013691224157810211
1683129279598756400,6.22875634765625,0.13528728485107422,-0.38245725631713867,0.1161898523569107
1683129279616588800,6.2465888671875,-0.19859981536865234,0.47278106212615967,-0.027632644400000572
1683129279634436000,6.26443603515625,0.08405113220214844,-0.3716839551925659,0.07771481573581696
1683129279652262000,6.282261962890625,-0.17307281494140625,0.3890594244003296,-0.05447527766227722
1683129279670108700,6.300108642578125,0.07171344757080078,-0.3315502405166626,0.10083270072937012
1683129279687948800,6.31794873046875,-0.1702260971069336,0.21885454654693604,-0.10259677469730377
1683129279705789000,6.335788818359375,-0.03467845916748047,-0.14594995975494385,0.20674540102481842
1683129279723623400,6.35362353515625,-0.055171966552734375,0.11692321300506592,-0.15636633336544037
1683129279741460000,6.3714599609375,-0.04834461212158203,0.005594968795776367,0.25231945514678955
1683129279759298600,6.389298583984375,-0.0037336349487304688,0.11717140674591064,-0.19768956303596497
1683129279777135400,6.40713525390625,-0.032764434814453125,-0.08065176010131836,0.17271672189235687
1683129279794963200,6.424963134765625,-0.02336406707763672,0.02129948139190674,-0.21999838948249817
1683129279812814600,6.442814697265625,-0.18564796447753906,0.10268449783325195,0.14858385920524597
1683129279830644500,6.46064453125,0.08691024780273438,-0.10815954208374023,-0.1603671759366989
1683129279848485000,6.478485107421875,-0.19422531127929688,0.33377790451049805,0.16804280877113342
1683129279866322400,6.496322509765625,0.18091678619384766,-0.11668813228607178,-0.07593755424022675
1683129279884149500,6.5141494140625,-0.08570671081542969,0.2514069080352783,0.01671179197728634
1683129279901988900,6.53198876953125,0.22397708892822266,-0.24217724800109863,-0.03391538932919502
1683129279919829500,6.54982958984375,-0.1974496841430664,0.3331061601638794,-0.041298042982816696
1683129279937667300,6.567667236328125,0.19861221313476562,-0.3935234546661377,0.011316457763314247
1683129279955506400,6.58550634765625,-0.345550537109375,0.5729774236679077,0.024461323395371437
1683129279973350000,6.603349853515625,0.22231197357177734,-0.38444972038269043,0.07067503780126572
1683129279991183600,6.62118359375,-0.22403621673583984,0.5711814165115356,-0.00991211086511612
1683129280009022000,6.63902197265625,0.12115001678466797,-0.3859351873397827,0.0961429551243782
1683129280026859000,6.65685888671875,-0.1765308380126953,0.4409092664718628,-0.09497015178203583
1683129280044696300,6.6746962890625,0.1728496551513672,-0.49706119298934937,0.03425709158182144
1683129280062530300,6.6925302734375,-0.2748556137084961,0.4204152822494507,-0.047269634902477264
1683129280080371700,6.710371826171875,0.08390235900878906,-0.368316113948822,0.11127994954586029
1683129280098210300,6.728210205078125,-0.16381549835205078,0.33119094371795654,-0.066055066883564
1683129280116043300,6.746043212890625,-0.013906478881835938,-0.15907180309295654,0.17379292845726013
1683129280133885200,6.76388525390625,-0.11686992645263672,0.25070321559906006,-0.10825783759355545
1683129280151721500,6.781721435546875,0.02250194549560547,-0.21133756637573242,0.17739367485046387
1683129280169558500,6.79955859375,-0.07719039916992188,0.14539623260498047,-0.17164692282676697
1683129280187385000,6.817385009765625,-0.09043121337890625,-0.09399449825286865,0.20900462567806244
1683129280205221600,6.8352216796875,-0.02591228485107422,-0.02521967887878418,-0.23387756943702698
1683129280223071000,6.853071044921875,-0.18068408966064453,0.1731879711151123,0.25552383065223694
1683129280240906200,6.87090625,0.09849739074707031,0.0009398460388183594,-0.1893686205148697
1683129280258742300,6.8887421875,-0.061371803283691406,0.16503584384918213,0.18231526017189026
1683129280276583200,6.906583251953125,0.06499385833740234,-0.04929924011230469,-0.11602610349655151
1683129280294420700,6.924420654296875,-0.0825967788696289,0.17052006721496582,0.02433825470507145
1683129280312258300,6.94225830078125,0.15247154235839844,-0.24499595165252686,-0.07059270888566971
1683129280330095400,6.960095458984375,-0.32546043395996094,0.4155353307723999,0.04106030613183975
1683129280347933000,6.977932861328125,0.20205020904541016,-0.3177170753479004,0.02811511605978012
1683129280365755400,6.99575537109375,-0.18863582611083984,0.48028838634490967,0.05063899606466293
1683129280383605500,7.01360546875,0.23337364196777344,-0.33639007806777954,0.04850659519433975
1683129280401445000,7.031445068359375,-0.17259502410888672,0.4389861822128296,-0.08606190979480743
1683129280419282400,7.049282470703125,0.18142032623291016,-0.5203360319137573,0.030286170542240143
1683129280437120000,7.0671201171875,-0.2835254669189453,0.5330804586410522,-0.017651479691267014
1683129280454951400,7.084951416015625,0.1719808578491211,-0.4761882424354553,0.07049144059419632
1683129280472786200,7.1027861328125,-0.2407522201538086,0.5038224458694458,0.026725508272647858
1683129280490622200,7.120622314453125,0.07584857940673828,-0.303072452545166,0.12564274668693542
1683129280508469800,7.1384697265625,-0.1436443328857422,0.3549414873123169,-0.08148173242807388
1683129280526310000,7.156309814453125,0.039061546325683594,-0.3171161413192749,0.114442840218544
1683129280544144400,7.174144287109375,-0.1873016357421875,0.25587189197540283,-0.10226332396268845
1683129280561982200,7.191982177734375,0.08086109161376953,-0.31023895740509033,0.13231191039085388
1683129280579819500,7.209819580078125,-0.06125640869140625,0.08567619323730469,-0.161638081073761
1683129280597656800,7.22765673828125,-0.1251840591430664,-0.045299649238586426,0.26453202962875366
1683129280615494100,7.245494140625,0.0013589859008789062,0.006113886833190918,-0.22923660278320312
1683129280633323300,7.2633232421875,-0.0032453536987304688,0.049109697341918945,0.23339010775089264
1683129280651166500,7.28116650390625,0.030104637145996094,0.05309009552001953,-0.2013932466506958
1683129280669007000,7.299007080078125,-0.11105155944824219,0.017875194549560547,0.1447066217660904
1683129280686844000,7.316843994140625,0.03318500518798828,-0.08986234664916992,-0.15191468596458435
1683129280704680200,7.33468017578125,-0.20427703857421875,0.23469460010528564,0.10925431549549103
1683129280722517000,7.35251708984375,0.12642478942871094,-0.2412257194519043,-0.09222547709941864
1683129280740341200,7.37034130859375,-0.2036418914794922,0.3793809413909912,0.10869714617729187
1683129280758193700,7.388193603515625,0.2595977783203125,-0.22574150562286377,0.0055311620235443115
1683129280776031000,7.406031005859375,-0.1719980239868164,0.3340374231338501,-0.05058223754167557
1683129280793876700,7.423876708984375,0.17394447326660156,-0.4211322069168091,0.03317856043577194
1683129280811709400,7.44170947265625,-0.2153491973876953,0.48601508140563965,-0.05855751782655716
1683129280829543700,7.459543701171875,0.25005149841308594,-0.4881271719932556,0.0467924028635025
1683129280847381200,7.47738134765625,-0.3147897720336914,0.5398087501525879,0.01118936762213707
1683129280865218300,7.49521826171875,0.13033580780029297,-0.3815944790840149,0.12817205488681793
1683129280883056000,7.51305615234375,-0.17822742462158203,0.5119078159332275,-0.012801926583051682
1683129280900893400,7.5308935546875,0.08679580688476562,-0.40452778339385986,0.06955511122941971
1683129280918716000,7.5487158203125,-0.2202615737915039,0.40048229694366455,-0.06645794212818146
1683129280936572700,7.56657275390625,0.07886886596679688,-0.36680346727371216,0.08497674763202667
1683129280954402800,7.58440283203125,-0.1822795867919922,0.2328861951828003,-0.08297120034694672
1683129280972243200,7.6022431640625,-0.014233589172363281,-0.1873631477355957,0.17781341075897217
1683129280990080800,7.620080810546875,-0.0608673095703125,0.1410912275314331,-0.13345061242580414
1683129281007918000,7.63791796875,-0.060660362243652344,-0.05767953395843506,0.2520540952682495
1683129281025749500,7.65574951171875,-0.020897865295410156,0.13630914688110352,-0.20257391035556793
1683129281043574500,7.673574462890625,0.02326488494873047,-0.12896203994750977,0.1789899468421936
1683129281061430300,7.69143017578125,-0.07503509521484375,0.026912331581115723,-0.21038918197155
1683129281079269600,7.70926953125,-0.19001293182373047,0.05735337734222412,0.15570728480815887
1683129281097102300,7.727102294921875,0.0912313461303711,-0.11621356010437012,-0.17137646675109863
1683129281114939400,7.744939453125,-0.2007894515991211,0.29436683654785156,0.17230813205242157
1683129281132777500,7.762777587890625,0.1541767120361328,-0.13552546501159668,-0.07191118597984314
1683129281150617600,7.78061767578125,-0.0634918212890625,0.24028301239013672,0.033816806972026825
1683129281168454700,7.79845458984375,0.19466590881347656,-0.2529832124710083,-0.02890053577721119
1683129281186292500,7.81629248046875,-0.2285900115966797,0.3531923294067383,-0.054209642112255096
1683129281204121300,7.834121337890625,0.20790958404541016,-0.40653568506240845,-0.0015099402517080307
1683129281221968600,7.85196875,-0.33733463287353516,0.5696268081665039,0.049596402794122696
1683129281239805200,7.86980517578125,0.21660137176513672,-0.3916463255882263,0.08066920936107635
1683129281257645000,7.88764501953125,-0.17220687866210938,0.5449546575546265,-0.00456450879573822
1683129281275472600,7.90547265625,0.1507253646850586,-0.4204998016357422,0.08967339992523193
1683129281293317400,7.9233173828125,-0.22443103790283203,0.42807745933532715,-0.10316194593906403
1683129281311155000,7.941155029296875,0.1651782989501953,-0.4817243218421936,0.04231251776218414
1683129281328992300,7.9589921875,-0.2532215118408203,0.39505040645599365,-0.015376990661025047
1683129281346823700,7.97682373046875,0.04706859588623047,-0.35372447967529297,0.13284242153167725
1683129281364667100,7.994667236328125,-0.17919063568115234,0.288677453994751,-0.07892240583896637
1683129281382504700,8.012504638671874,0.009850502014160156,-0.1273670196533203,0.16881516575813293
1683129281400344800,8.0303447265625,-0.13684749603271484,0.19040989875793457,-0.1315142810344696
1683129281418179600,8.0481796875,-0.005627632141113281,-0.20273089408874512,0.17533496022224426
1683129281436017000,8.066016845703125,-0.06462287902832031,0.08775722980499268,-0.19015619158744812
1683129281453851400,8.083851318359375,-0.11068534851074219,-0.06579017639160156,0.21526934206485748
1683129281471694800,8.10169482421875,-0.03067493438720703,-0.06644892692565918,-0.23171623051166534
1683129281489517600,8.119517578125,-0.1903057098388672,0.1444340944290161,0.22765153646469116
1683129281507367000,8.137366943359375,0.16769027709960938,-0.0534130334854126,-0.17975138127803802
1683129281525190000,8.15518994140625,-0.04737281799316406,0.16045355796813965,0.15223713219165802
1683129281543030300,8.1730302734375,0.037369728088378906,-0.11429393291473389,-0.09777998924255371
1683129281560868600,8.19086865234375,-0.160614013671875,0.16676104068756104,-0.005544556304812431
1683129281578716700,8.208716552734375,0.15605449676513672,-0.29578959941864014,-0.05106930434703827
1683129281596541200,8.226541259765625,-0.3003253936767578,0.44318854808807373,0.038341984152793884
1683129281614391600,8.2443916015625,0.24863529205322266,-0.3414192795753479,0.06240983307361603
1683129281632229000,8.26222900390625,-0.2232036590576172,0.48391401767730713,0.02279306948184967
1683129281650066400,8.28006640625,0.22240447998046875,-0.3876768946647644,0.06610219180583954
1683129281667892000,8.29789208984375,-0.17135143280029297,0.4466710090637207,-0.0828017145395279
1683129281685740500,8.315740478515625,0.21303081512451172,-0.5403177738189697,0.03633694350719452
1683129281703578600,8.33357861328125,-0.2789325714111328,0.5098751783370972,-0.028485767543315887
1683129281721416400,8.35141650390625,0.1291513442993164,-0.46710723638534546,0.08713740855455399
1683129281739253800,8.369253662109376,-0.22693920135498047,0.46484172344207764,-0.008498333394527435
1683129281757091000,8.387091064453125,0.06529808044433594,-0.27960479259490967,0.14296981692314148
1683129281774920000,8.404919921875,-0.14476299285888672,0.3390759229660034,-0.07738807797431946
1683129281792764400,8.422764404296874,0.02249431610107422,-0.2786365747451782,0.14603659510612488
1683129281810603500,8.440603515625,-0.1598653793334961,0.21497690677642822,-0.1390320062637329
1683129281828441300,8.45844140625,0.054314613342285156,-0.2332521677017212,0.1717427372932434
1683129281846281200,8.47628125,-0.0720834732055664,0.04923880100250244,-0.1962788999080658
1683129281864114700,8.49411474609375,-0.14356517791748047,0.021561622619628906,0.25328099727630615
1683129281881953800,8.511953857421876,0.08751773834228516,-0.007270216941833496,-0.22932086884975433
1683129281899792100,8.529792236328126,-0.060059547424316406,0.06268489360809326,0.21431869268417358
1683129281917617000,8.547616943359374,0.022376060485839844,0.025797486305236816,-0.17035523056983948
1683129281935465500,8.565465576171874,-0.0965261459350586,0.041533589363098145,0.10161469131708145
1683129281953288400,8.583288330078124,0.03203773498535156,-0.1399627923965454,-0.10345709323883057
1683129281971141000,8.60114111328125,-0.21933841705322266,0.2920536994934082,0.0911274254322052
1683129281988973000,8.61897314453125,0.14340877532958984,-0.29456329345703125,-0.043944764882326126
1683129282006813000,8.63681298828125,-0.18413257598876953,0.3991200923919678,0.06996800750494003
1683129282024653600,8.654653564453126,0.26629638671875,-0.27249598503112793,0.033675551414489746
1683129282042491000,8.672490966796875,-0.20146751403808594,0.3778212070465088,-0.07717990130186081
1683129282060328000,8.690327880859375,0.19184589385986328,-0.45811277627944946,0.04694097116589546
1683129282078165800,8.708165771484374,-0.26885986328125,0.5293189287185669,-0.038298651576042175
1683129282095999700,8.725999755859375,0.22003173828125,-0.524925172328949,0.055373769253492355
1683129282113839400,8.74383935546875,-0.25648021697998047,0.55565345287323,0.03300914913415909
1683129282131665700,8.761665771484376,0.09287071228027344,-0.3428463935852051,0.1404140740633011
1683129282149517800,8.779517822265625,-0.17854022979736328,0.4401218891143799,-0.04274012893438339
1683129282167344400,8.797344482421876,0.11314201354980469,-0.362837553024292,0.07024569064378738
1683129282185191400,8.81519140625,-0.23319339752197266,0.36001622676849365,-0.08181005716323853
1683129282203028000,8.833028076171875,0.08176994323730469,-0.3494354486465454,0.10810364037752151
1683129282220865300,8.850865234375,-0.09897994995117188,0.1907939910888672,-0.11353880167007446
1683129282238698500,8.868698486328125,-0.14174270629882812,-0.12244081497192383,0.23741571605205536
1683129282256540200,8.8865400390625,-0.07728385925292969,0.06615281105041504,-0.17166778445243835
1683129282274374700,8.904374755859376,0.009059906005859375,0.0351639986038208,0.2728279232978821
1683129282292216600,8.922216552734374,0.005320549011230469,0.1005556583404541,-0.18211114406585693
1683129282310052900,8.940052978515626,-0.02854633331298828,-0.06406140327453613,0.15706971287727356
1683129282327890200,8.95789013671875,-0.014836311340332031,-0.007961153984069824,-0.19461795687675476
1683129282345727700,8.975727783203125,-0.20318031311035156,0.15935277938842773,0.12150879204273224
1683129282363564000,8.99356396484375,0.07468032836914062,-0.1935427188873291,-0.12764079868793488
1683129282381406700,9.01140673828125,-0.18230533599853516,0.3402465581893921,0.1465623378753662
1683129282399240000,9.029239990234375,0.18790149688720703,-0.1983330249786377,-0.003332337364554405
1683129282417067300,9.0470673828125,-0.10077476501464844,0.2972395420074463,-0.013367194682359695
1683129282434910500,9.064910400390625,0.23825645446777344,-0.37825119495391846,-0.006736747920513153
1683129282452755500,9.08275537109375,-0.2163705825805664,0.39799249172210693,-0.07868850231170654
1683129282470590000,9.10058984375,0.22089195251464844,-0.4827404022216797,0.03372892737388611
1683129282488427500,9.118427490234374,-0.28454113006591797,0.5826979875564575,0.028945188969373703
1683129282506263800,9.136263916015626,0.1955852508544922,-0.4156001806259155,0.10157131403684616
1683129282524105700,9.154105712890624,-0.19832324981689453,0.5200022459030151,-0.0020931530743837357
1683129282541940200,9.171940185546875,0.10780620574951172,-0.40877747535705566,0.07567109912633896
1683129282559765500,9.189765625,-0.22553730010986328,0.417194128036499,-0.049007147550582886
1683129282577615400,9.207615478515624,0.12669086456298828,-0.4490678310394287,0.07168900221586227
1683129282595452700,9.22545263671875,-0.20298004150390625,0.28837811946868896,-0.06656656414270401
1683129282613290000,9.2432900390625,0.005587577819824219,-0.26463329792022705,0.16924679279327393
1683129282631127300,9.261127197265624,-0.10363101959228516,0.1633152961730957,-0.0883311778306961
1683129282648964900,9.27896484375,-0.026510238647460938,-0.11463463306427002,0.21464042365550995
1683129282666802400,9.296802490234375,-0.050690650939941406,0.10466265678405762,-0.18116436898708344
1683129282684638700,9.314638671875,0.037265777587890625,-0.140907883644104,0.19760802388191223
1683129282702477600,9.3324775390625,-0.031523704528808594,0.02946758270263672,-0.20684093236923218
1683129282720315000,9.35031494140625,-0.1888265609741211,-0.03766894340515137,0.19568225741386414
1683129282738152400,9.36815234375,0.049393653869628906,-0.10729122161865234,-0.18708479404449463
1683129282755984000,9.38598388671875,-0.14607620239257812,0.25984323024749756,0.18500447273254395
1683129282773827300,9.403827392578124,0.16943073272705078,-0.1078331470489502,-0.1268043965101242
1683129282791664600,9.42166455078125,-0.049071311950683594,0.22204935550689697,0.09241816401481628
1683129282809502200,9.439502197265625,0.1687326431274414,-0.1943119764328003,-0.04572334885597229
1683129282827328300,9.457328369140624,-0.20449256896972656,0.28040122985839844,-0.027014482766389847
1683129282845164300,9.475164306640625,0.21656322479248047,-0.3986437916755676,0.013538811355829239
1683129282863014700,9.4930146484375,-0.29180049896240234,0.541330099105835,0.03624889627099037
1683129282880856600,9.510856689453124,0.24383068084716797,-0.37383830547332764,0.07804296910762787
1683129282898689800,9.528689697265625,-0.20306015014648438,0.5231937170028687,0.006933864206075668
1683129282916525000,9.546525146484376,0.15773487091064453,-0.3789494037628174,0.1195124015212059
1683129282934367500,9.564367431640624,-0.1874561309814453,0.4356811046600342,-0.08751560747623444
1683129282952203500,9.58220361328125,0.1719350814819336,-0.528298020362854,0.0331752635538578
1683129282970028500,9.600028564453124,-0.2533082962036133,0.4563727378845215,-0.028271067887544632
1683129282987880000,9.6178798828125,0.10503959655761719,-0.4014950394630432,0.12257374823093414
1683129283005708500,9.63570849609375,-0.20021629333496094,0.35379862785339355,-0.04474311321973801
1683129283023552300,9.65355224609375,0.004154205322265625,-0.18064570426940918,0.16345836222171783
1683129283041389800,9.671389892578125,-0.10807418823242188,0.24532842636108398,-0.10308146476745605
1683129283059227000,9.689226806640624,0.01128387451171875,-0.18164241313934326,0.18961137533187866
1683129283077059800,9.707059814453125,-0.0864419937133789,0.14777660369873047,-0.15855515003204346
1683129283094898700,9.724898681640624,-0.03623485565185547,-0.11383545398712158,0.21161088347434998
1683129283112738300,9.74273828125,-0.03204059600830078,-0.04373764991760254,-0.22559309005737305
1683129283130577200,9.7605771484375,-0.17047977447509766,0.1571286916732788,0.2564370334148407
1683129283148414500,9.77841455078125,0.07424354553222656,-0.037799835205078125,-0.18982362747192383
1683129283166249000,9.7962490234375,-0.04355621337890625,0.1478348970413208,0.18174096941947937
1683129283184089300,9.81408935546875,0.07487106323242188,-0.07290768623352051,-0.10953257232904434
1683129283201928200,9.83192822265625,-0.14252853393554688,0.12763512134552002,0.02890763245522976
1683129283219766000,9.84976611328125,0.16994380950927734,-0.2777496576309204,-0.0598280131816864
1683129283237602000,9.86760205078125,-0.27338123321533203,0.4092522859573364,0.03719679266214371
1683129283255439400,9.885439453125,0.1825084686279297,-0.34900951385498047,0.05042164772748947
1683129283273278200,9.9032783203125,-0.21484756469726562,0.48105597496032715,0.04014773294329643
1683129283291114500,9.921114501953125,0.29616832733154297,-0.35654962062835693,0.07253079116344452
1683129283308955000,9.938954833984376,-0.1425619125366211,0.44114625453948975,-0.07902579009532928
1683129283326787800,9.956787841796874,0.17880630493164062,-0.5390734672546387,0.053303319960832596
1683129283344625200,9.974625244140626,-0.2517738342285156,0.5193824768066406,0.005319805815815926
1683129283362464300,9.99246435546875,0.17162609100341797,-0.4959448575973511,0.0827956348657608
1683129283380299300,10.01029931640625,-0.24378108978271484,0.47818291187286377,0.009611090645194054
1683129283398134500,10.028134521484375,0.07268524169921875,-0.31162726879119873,0.1373613029718399
1683129283415974000,10.045973876953125,-0.10873031616210938,0.35284423828125,-0.07270266860723495
1683129283433814500,10.063814453125,0.05525779724121094,-0.3002007007598877,0.1261623054742813
1683129283451651000,10.081651123046875,-0.17681121826171875,0.23587191104888916,-0.10651195794343948
1683129283469489400,10.099489501953125,0.0629873275756836,-0.2914254665374756,0.1462598592042923
1683129283487318000,10.117318115234376,-0.08977794647216797,0.04856216907501221,-0.20173366367816925
1683129283505164300,10.135164306640625,-0.1582164764404297,0.008835196495056152,0.24634751677513123
1683129283523003000,10.1530029296875,0.06761646270751953,-0.034970760345458984,-0.2264207899570465
1683129283540824800,10.170824951171875,-0.03113555908203125,0.05588185787200928,0.24174880981445312
1683129283558665000,10.1886650390625,0.06784725189208984,0.042560696601867676,-0.18448111414909363
1683129283576517400,10.206517333984374,-0.0648183822631836,0.02508997917175293,0.13098271191120148
1683129283594353200,10.224353271484375,0.04497528076171875,-0.12893497943878174,-0.13062883913516998
1683129283612189400,10.242189453125,-0.2010955810546875,0.2394798994064331,0.10114943236112595
1683129283630026500,10.260026611328126,0.1216897964477539,-0.2977081537246704,-0.04915795847773552
1683129283647859500,10.277859375,-0.17113208770751953,0.40409719944000244,0.0915861427783966
1683129283665701600,10.29570166015625,0.2492837905883789,-0.2630879878997803,0.025445345789194107
1683129283683539200,10.313539306640624,-0.20146846771240234,0.33269762992858887,-0.07559046149253845
1683129283701376300,10.331376220703126,0.2306671142578125,-0.4219440221786499,0.0440346784889698
1683129283719214000,10.349214111328125,-0.21372222900390625,0.48586559295654297,-0.050343189388513565
1683129283737051600,10.3670517578125,0.19668960571289062,-0.5292576551437378,0.04917124658823013
1683129283754885400,10.384885498046875,-0.26505565643310547,0.5331356525421143,0.006392175331711769
1683129283772725200,10.402725341796875,0.1802349090576172,-0.4098780155181885,0.1316184401512146
1683129283790564000,10.420564208984375,-0.20830440521240234,0.47025132179260254,-0.003674941137433052
1683129283808401700,10.438401611328125,0.10954952239990234,-0.39958006143569946,0.0796540230512619
1683129283826239000,10.456239013671874,-0.19660282135009766,0.3820650577545166,-0.04566190391778946
1683129283844077800,10.474077880859374,0.05784034729003906,-0.35527294874191284,0.09756603837013245
1683129283861913900,10.491913818359375,-0.18497180938720703,0.16407513618469238,-0.09197592735290527
1683129283879751700,10.509751708984375,-0.032622337341308594,-0.16506636142730713,0.21766066551208496
1683129283897574000,10.527573974609375,-0.07081127166748047,0.11267566680908203,-0.1544061005115509
1683129283915427600,10.545427490234376,-0.022451400756835938,-0.025026559829711914,0.2562381625175476
1683129283933256200,10.563256103515625,0.0034971237182617188,0.09805786609649658,-0.20065245032310486
1683129283951098600,10.5810986328125,0.0006923675537109375,-0.0713801383972168,0.21819473803043365
1683129283968939500,10.598939453125,-0.03250598907470703,-0.008489012718200684,-0.2021261602640152
1683129283986776600,10.616776611328126,-0.21236324310302734,0.0953216552734375,0.14650002121925354
1683129284004614100,10.6346142578125,0.040177345275878906,-0.12864434719085693,-0.17145569622516632
1683129284022451700,10.65245166015625,-0.19045448303222656,0.3289140462875366,0.17283765971660614
1683129284040289300,10.670289306640624,0.1822805404663086,-0.12865591049194336,-0.06145457178354263
1683129284058126300,10.688126220703126,-0.05605888366699219,0.2573584318161011,0.04118409752845764
1683129284075963600,10.705963623046875,0.26958179473876953,-0.29046595096588135,-0.01955450139939785
1683129284093800400,10.723800537109375,-0.2109212875366211,0.3436161279678345,-0.06042170524597168
1683129284111640300,10.741640380859375,0.21645069122314453,-0.4393201470375061,0.029898369684815407
1683129284129476600,10.7594765625,-0.3034248352050781,0.5634933710098267,0.033659033477306366
1683129284147314000,10.77731396484375,0.25623607635498047,-0.4305912256240845,0.0910939872264862
1683129284165152000,10.795152099609375,-0.22761917114257812,0.5327898263931274,0.01158822700381279
1683129284182989000,10.812989013671874,0.13444805145263672,-0.4058877229690552,0.09554527699947357
1683129284200826400,10.830826416015626,-0.16889381408691406,0.43640172481536865,-0.09507603198289871
1683129284218664000,10.848663818359375,0.1427459716796875,-0.5148332715034485,0.039258942008018494
1683129284236501000,10.8665009765625,-0.23093795776367188,0.3954927921295166,-0.026800641790032387
1683129284254341600,10.884341552734375,0.0749349594116211,-0.36827272176742554,0.13396340608596802
1683129284272176600,10.9021767578125,-0.16302013397216797,0.2976565361022949,-0.08184678107500076
1683129284290014000,10.920013916015625,0.0076541900634765625,-0.167280912399292,0.16640642285346985
1683129284307851300,10.937851318359375,-0.1340780258178711,0.19412600994110107,-0.13725563883781433
1683129284325688600,10.9556884765625,0.03022480010986328,-0.20932090282440186,0.1796392947435379
1683129284343526100,10.973526123046875,-0.0714883804321289,0.08310055732727051,-0.1805100440979004
1683129284361361000,10.99136083984375,-0.07118606567382812,-0.09870707988739014,0.22900091111660004
1683129284379189500,11.009189453125,-0.013249397277832031,-0.06896603107452393,-0.23670855164527893
1683129284397039000,11.0270390625,-0.11340808868408203,0.17680299282073975,0.2477046251296997
1683129284414871300,11.044871337890624,0.10866641998291016,-0.0724635124206543,-0.19735418260097504
1683129284432711200,11.062711181640625,-0.06049346923828125,0.1574549674987793,0.16628815233707428
1683129284450548200,11.08054833984375,0.08845996856689453,-0.08833432197570801,-0.10905355960130692
1683129284468388900,11.098388916015624,-0.12973403930664062,0.128379225730896,-0.003283536061644554
1683129284486226200,11.11622607421875,0.1608905792236328,-0.27919912338256836,-0.06840869039297104
1683129284504063700,11.134063720703125,-0.2845315933227539,0.3829941749572754,0.03461760655045509
1683129284521901300,11.1519013671875,0.24068546295166016,-0.35033905506134033,0.044577986001968384
1683129284539739000,11.16973876953125,-0.20488452911376953,0.4769160747528076,0.04091957211494446
1683129284557574700,11.18757470703125,0.2935457229614258,-0.3780549168586731,0.05927937105298042
1683129284575413800,11.205413818359375,-0.15787410736083984,0.4196467399597168,-0.07937875390052795
1683129284593239800,11.22323974609375,0.19524097442626953,-0.5307913422584534,0.04675935581326485
1683129284611088600,11.241088623046876,-0.25359439849853516,0.4960310459136963,-0.01429029181599617
1683129284628926200,11.25892626953125,0.1539630889892578,-0.5025535821914673,0.08521372079849243
1683129284646763800,11.276763671875,-0.2466144561767578,0.4859957695007324,0.029768913984298706
1683129284664601000,11.29460107421875,0.09223079681396484,-0.3329068422317505,0.13656678795814514
1683129284682440000,11.31243994140625,-0.11828136444091797,0.3669828176498413,-0.07626421749591827
1683129284700276200,11.330276123046875,0.060875892639160156,-0.33197832107543945,0.10994996130466461
1683129284718113500,11.348113525390625,-0.18303680419921875,0.24438166618347168,-0.096018947660923
1683129284735945500,11.365945556640625,0.0938425064086914,-0.30096232891082764,0.14241723716259003
1683129284753789000,11.383788818359376,-0.10181808471679688,0.08104455471038818,-0.16495557129383087
1683129284771627300,11.401627197265626,-0.12646961212158203,-0.036156415939331055,0.2577756941318512
1683129284789463800,11.4194638671875,0.06233978271484375,-0.014439105987548828,-0.22894161939620972
1683129284807287000,11.437287109375,-0.007988929748535156,0.013817787170410156,0.23733998835086823
1683129284825138700,11.455138671875,0.007035255432128906,0.040581464767456055,-0.19090579450130463
1683129284842973200,11.47297314453125,-0.05541515350341797,-0.03843080997467041,0.14942409098148346
1683129284860810200,11.490810302734374,0.023097991943359375,-0.08673715591430664,-0.155836284160614
1683129284878651000,11.50865087890625,-0.20360565185546875,0.22910034656524658,0.10791556537151337
1683129284896486100,11.526486083984375,0.10946273803710938,-0.266925573348999,-0.07947924733161926
1683129284914326000,11.544325927734375,-0.1533832550048828,0.3546055555343628,0.11954312771558762
1683129284932162000,11.562162109375,0.2554779052734375,-0.2307051420211792,0.019622428342700005
1683129284949998300,11.579998291015626,-0.15951156616210938,0.31284427642822266,-0.05152870714664459
1683129284967838500,11.59783837890625,0.24625492095947266,-0.40127718448638916,0.02261251024901867
1683129284985675800,11.61567578125,-0.23019695281982422,0.42064952850341797,-0.06603805720806122
1683129285003514600,11.6335146484375,0.19281578063964844,-0.5041190385818481,0.05452148988842964
1683129285021351000,11.651350830078124,-0.23410701751708984,0.5689570903778076,0.02227524295449257
1683129285039188500,11.6691884765625,0.21525001525878906,-0.4365304708480835,0.11175627261400223
1683129285057021400,11.687021484375,-0.19729900360107422,0.5012944936752319,0.0010462235659360886
1683129285074860000,11.704860107421876,0.11836719512939453,-0.43636375665664673,0.07967957854270935
1683129285092700400,11.722700439453124,-0.20874500274658203,0.4050339460372925,-0.04972276836633682
1683129285110538500,11.74053857421875,0.10802841186523438,-0.4339185953140259,0.07170972228050232
1683129285128375800,11.758375732421875,-0.18531227111816406,0.2462559938430786,-0.06762546300888062
1683129285146213600,11.776213623046875,-0.003154754638671875,-0.25019609928131104,0.17369326949119568
1683129285164050700,11.79405078125,-0.10901260375976562,0.14793455600738525,-0.11383378505706787
1683129285181888500,11.811888427734376,-0.017614364624023438,-0.12245774269104004,0.22150985896587372
1683129285199729000,11.82972900390625,-0.03412437438964844,0.10532546043395996,-0.1994495987892151
1683129285217558300,11.847558349609375,0.03596305847167969,-0.14403414726257324,0.18949605524539948
1683129285235389200,11.86538916015625,-0.05904579162597656,-0.00446927547454834,-0.2261478751897812
1683129285253239600,11.883239501953126,-0.16358280181884766,-0.014334440231323242,0.20399299263954163
1683129285271076000,11.901076171875,0.04071807861328125,-0.09336411952972412,-0.17085880041122437
1683129285288913400,11.918913330078125,-0.13675594329833984,0.24145126342773438,0.18736526370048523
1683129285306753800,11.93675390625,0.17425918579101562,-0.10914981365203857,-0.11110882461071014
1683129285324591400,11.95459130859375,-0.044417381286621094,0.19812726974487305,0.0687992200255394
1683129285342429200,11.97242919921875,0.17975711822509766,-0.1977778673171997,-0.06022883579134941
1683129285360261000,11.99026123046875,-0.1908578872680664,0.26918864250183105,-0.014340978115797043
1683129285378096400,12.008096435546875,0.18645954132080078,-0.40219372510910034,0.0018672440201044083
1683129285395938300,12.025938232421876,-0.24886512756347656,0.5350905656814575,0.04610726609826088
1683129285413776000,12.04377587890625,0.2591705322265625,-0.3775172233581543,0.07495081424713135
1683129285431599600,12.061599609375,-0.2262554168701172,0.5104115009307861,-0.005541093647480011
1683129285449448400,12.079448486328126,0.18374252319335938,-0.4117087721824646,0.10890133678913116
1683129285467288300,12.097288330078126,-0.19671154022216797,0.4309673309326172,-0.08838954567909241
1683129285485122800,12.115122802734374,0.20314693450927734,-0.5606369972229004,0.03260606527328491
1683129285502962000,12.1329619140625,-0.2554044723510742,0.4410163164138794,-0.029341677203774452
1683129285520801000,12.150801025390624,0.08563423156738281,-0.4397556781768799,0.11215473711490631
1683129285538638300,12.168638427734376,-0.19000816345214844,0.38446521759033203,-0.03372669219970703
1683129285556461600,12.186461669921876,0.0217132568359375,-0.2536649703979492,0.1408378630876541
1683129285574301700,12.2043017578125,-0.16113948822021484,0.2740069627761841,-0.09274886548519135
1683129285592142600,12.222142578125,0.05207347869873047,-0.25608205795288086,0.15457597374916077
1683129285609988000,12.239988037109375,-0.0888519287109375,0.14783143997192383,-0.14153166115283966
1683129285627826000,12.257825927734375,-0.049213409423828125,-0.13732051849365234,0.2146642804145813
1683129285645661400,12.275661376953124,-0.014545440673828125,-0.047524452209472656,-0.2206907868385315
1683129285663500500,12.29350048828125,-0.07404708862304688,0.11022543907165527,0.27621105313301086
1683129285681327900,12.311327880859375,0.0784769058227539,-0.004093766212463379,-0.18898385763168335
1683129285699176000,12.329176025390625,-0.039406776428222656,0.09196305274963379,0.19542214274406433
1683129285717003000,12.3470029296875,0.06919574737548828,-0.023895978927612305,-0.13651345670223236
1683129285734839600,12.364839599609375,-0.09583568572998047,0.09044480323791504,0.05835238844156265
1683129285752680200,12.38268017578125,0.07174491882324219,-0.22567856311798096,-0.09611421078443527
1683129285770526000,12.40052587890625,-0.2828865051269531,0.3538447618484497,0.055401355028152466
1683129285788363800,12.41836376953125,0.19252777099609375,-0.30246078968048096,-0.014771435409784317
1683129285806200600,12.43620068359375,-0.1790781021118164,0.4342834949493408,0.06693629920482635
1683129285824040000,12.4540400390625,0.2792520523071289,-0.3399322032928467,0.032474711537361145
1683129285841875700,12.471875732421875,-0.190765380859375,0.3579140901565552,-0.09185854345560074
1683129285859716400,12.48971630859375,0.21617507934570312,-0.5016063451766968,0.039798177778720856
1683129285877549000,12.507549072265626,-0.2622232437133789,0.5284525156021118,-0.03555761277675629
1683129285895389200,12.52538916015625,0.21361923217773438,-0.5263121724128723,0.07994544506072998
1683129285913224400,12.543224365234375,-0.27338695526123047,0.5410598516464233,0.048309288918972015
1683129285931063000,12.56106298828125,0.08411312103271484,-0.36230599880218506,0.13141189515590668
1683129285948898000,12.57889794921875,-0.12894725799560547,0.40229225158691406,-0.0616898350417614
1683129285966738200,12.59673828125,0.12232494354248047,-0.37941408157348633,0.06918718665838242
1683129285984575500,12.614575439453125,-0.2179851531982422,0.3061542510986328,-0.07302968204021454
1683129286002413300,12.632413330078125,0.06762981414794922,-0.34275054931640625,0.114698126912117
1683129286020251000,12.6502509765625,-0.1084737777709961,0.1407867670059204,-0.12715765833854675
1683129286038088200,12.668088134765625,-0.09065818786621094,-0.09243690967559814,0.23170442879199982
1683129286055925500,12.685925537109375,-0.04411602020263672,0.04814481735229492,-0.18488924205303192
1683129286073762000,12.703761962890624,-0.0012598037719726562,-0.004997968673706055,0.2543623745441437
1683129286091601400,12.721601318359374,0.025384902954101562,0.07618045806884766,-0.18564997613430023
1683129286109438000,12.73943798828125,-0.013682365417480469,-0.08826994895935059,0.1844657063484192
1683129286127275500,12.757275634765625,-0.029005050659179688,-0.039401888847351074,-0.19368073344230652
1683129286145107000,12.77510693359375,-0.1675558090209961,0.1706240177154541,0.15305635333061218
1683129286162950700,12.79295068359375,0.06213665008544922,-0.1876387596130371,-0.14003843069076538
1683129286180788000,12.8107880859375,-0.1634969711303711,0.30747413635253906,0.16137106716632843
1683129286198625500,12.82862548828125,0.1869802474975586,-0.18194997310638428,-0.03253643587231636
1683129286216449500,12.846449462890625,-0.07320117950439453,0.23207104206085205,-0.022657375782728195
1683129286234296800,12.864296875,0.2555379867553711,-0.3839365243911743,-0.02401612140238285
1683129286252122600,12.88212255859375,-0.23809528350830078,0.37163102626800537,-0.06241210550069809
1683129286269975600,12.8999755859375,0.23836994171142578,-0.46320289373397827,0.023620737716555595
1683129286287812000,12.91781201171875,-0.2409343719482422,0.6009833812713623,0.04202023893594742
1683129286305650400,12.935650390625,0.23860836029052734,-0.4189649820327759,0.09242421388626099
1683129286323490800,12.95349072265625,-0.17362403869628906,0.5415043830871582,-0.012216102331876755
1683129286341325300,12.9713251953125,0.15439510345458984,-0.46119844913482666,0.07096531987190247
1683129286359164700,12.98916455078125,-0.2374258041381836,0.4147610664367676,-0.0880916565656662
1683129286377000400,13.00700048828125,0.18431377410888672,-0.4792971611022949,0.04833542928099632
1683129286394836000,13.0248359375,-0.21735763549804688,0.3613705635070801,-0.018267806619405746
1683129286412674600,13.042674560546875,0.02584075927734375,-0.32967400550842285,0.13042742013931274
1683129286430513000,13.060512939453124,-0.12310314178466797,0.30544912815093994,-0.06101646274328232
1683129286448347600,13.07834765625,0.016859054565429688,-0.1783057451248169,0.15906532108783722
1683129286466182000,13.096181884765626,-0.16605281829833984,0.199501633644104,-0.14161714911460876
1683129286484025300,13.114025390625,0.08207035064697266,-0.234979510307312,0.16980957984924316
1683129286501863000,13.13186279296875,-0.04667091369628906,0.08648300170898438,-0.1696062982082367
1683129286519700000,13.149699951171876,-0.15244197845458984,-0.08215653896331787,0.2484983503818512
1683129286537538000,13.1675380859375,-0.023637771606445312,-0.07135748863220215,-0.22739779949188232
1683129286555375600,13.185375732421875,-0.07322025299072266,0.13805699348449707,0.24571065604686737
1683129286573212700,13.203212646484374,0.10946369171142578,-0.05042684078216553,-0.1832193285226822
1683129286591050500,13.221050537109376,-0.035958290100097656,0.08177244663238525,0.13765119016170502
1683129286608887800,13.2388876953125,0.09553050994873047,-0.10216271877288818,-0.10953163355588913
1683129286626725400,13.256725341796875,-0.14691734313964844,0.14474797248840332,0.01699775457382202
1683129286644563000,13.27456298828125,0.12839889526367188,-0.2535351514816284,-0.061589427292346954
1683129286662401500,13.292401611328126,-0.30461883544921875,0.38964009284973145,0.06191204860806465
1683129286680239000,13.310239013671875,0.2498798370361328,-0.31610965728759766,0.03008081018924713
1683129286698075400,13.328075439453125,-0.15947628021240234,0.4275151491165161,0.027896106243133545
1683129286715912400,13.345912353515626,0.2939586639404297,-0.3833146095275879,0.04422004520893097
1683129286733750300,13.363750244140626,-0.18424415588378906,0.38299238681793213,-0.09304405003786087
1683129286751593200,13.38159326171875,0.2276935577392578,-0.5412470102310181,0.035696983337402344
1683129286769428500,13.399428466796875,-0.30017566680908203,0.5268127918243408,-0.020605122670531273
1683129286787259400,13.41725927734375,0.1630096435546875,-0.5055044293403625,0.0807349905371666
1683129286805097200,13.43509716796875,-0.23182296752929688,0.5189186334609985,0.04359272122383118
1683129286822937900,13.452937744140625,0.0768280029296875,-0.3491440415382385,0.11631181836128235
1683129286840775000,13.47077490234375,-0.11940670013427734,0.37327253818511963,-0.09492229670286179
1683129286858612500,13.488612548828126,0.11447525024414062,-0.4065347909927368,0.06086145341396332
1683129286876450000,13.506449951171875,-0.2319631576538086,0.2833728790283203,-0.08618966490030289
1683129286894288000,13.524287841796875,0.10275840759277344,-0.30796360969543457,0.13622571527957916
1683129286912125200,13.542125244140625,-0.1210317611694336,0.11804676055908203,-0.12719421088695526
1683129286929962500,13.55996240234375,-0.11968326568603516,-0.11493396759033203,0.2336379736661911
1683129286947797200,13.57779736328125,-0.027403831481933594,0.0464402437210083,-0.21485191583633423
1683129286965637400,13.595637451171875,0.05966472625732422,-0.04490363597869873,0.23361754417419434
1683129286983476000,13.61347607421875,-0.013585090637207031,0.06603848934173584,-0.1952471137046814
1683129287001309200,13.63130908203125,-0.08392620086669922,-0.0676569938659668,0.17270828783512115
1683129287019148800,13.649148681640625,0.04043292999267578,-0.06939780712127686,-0.20713408291339874
1683129287036982800,13.666982666015626,-0.1504983901977539,0.2023392915725708,0.16931384801864624
1683129287054821000,13.684821044921875,0.08028030395507812,-0.16839230060577393,-0.1425795704126358
1683129287072661500,13.70266162109375,-0.07865715026855469,0.2944986820220947,0.15194842219352722
1683129287090500000,13.7205,0.2005758285522461,-0.1690537929534912,-0.05835486203432083
1683129287108333000,13.7383330078125,-0.10637187957763672,0.22242426872253418,-0.03024180792272091
1683129287126174700,13.7561748046875,0.2362508773803711,-0.3889436721801758,-0.02329588495194912
1683129287144015000,13.77401513671875,-0.25846004486083984,0.38690972328186035,-0.04701351374387741
1683129287161850000,13.79185009765625,0.21528053283691406,-0.43663501739501953,0.03495084121823311
1683129287179683300,13.809683349609376,-0.3105964660644531,0.5276409387588501,0.041507817804813385
1683129287197524700,13.827524658203124,0.25981616973876953,-0.3930146098136902,0.09174368530511856
1683129287215359200,13.845359130859375,-0.1353292465209961,0.5132352113723755,-0.03283822536468506
1683129287233197000,13.863197021484375,0.14874649047851562,-0.49263572692871094,0.06257312744855881
1683129287251034600,13.88103466796875,-0.20419883728027344,0.43474841117858887,-0.07031736522912979
1683129287268875000,13.898875,0.18932723999023438,-0.5086913704872131,0.04231557995080948
1683129287286712300,13.91671240234375,-0.24695301055908203,0.35279154777526855,-0.024011816829442978
1683129287304550700,13.934550537109375,0.05830192565917969,-0.33554089069366455,0.16213832795619965
1683129287322386700,13.95238671875,-0.1332693099975586,0.32585692405700684,-0.06144680082798004
1683129287340224800,13.970224853515624,0.045867919921875,-0.2137601375579834,0.1440180540084839
1683129287358057500,13.988057373046875,-0.17342662811279297,0.21630573272705078,-0.1340121626853943
1683129287375899600,14.005899658203125,0.10499286651611328,-0.29940712451934814,0.14310094714164734
1683129287393737500,14.023737548828125,-0.08418083190917969,0.07736456394195557,-0.1799289584159851
1683129287411575600,14.041575439453124,-0.14481067657470703,-0.07297253608703613,0.25828471779823303
1683129287429412600,14.05941259765625,0.006064414978027344,-0.06694173812866211,-0.22053606808185577
1683129287447246800,14.077246826171875,-0.07268047332763672,0.10486555099487305,0.24939756095409393
1683129287465087000,14.0950869140625,0.11156558990478516,-0.02488696575164795,-0.18899205327033997
1683129287482923300,14.11292333984375,-0.01940155029296875,0.040363192558288574,0.13275796175003052
1683129287500765000,14.130764892578124,0.020755767822265625,-0.1058969497680664,-0.14025044441223145
1683129287518599700,14.148599609375,-0.18957233428955078,0.1492520570755005,0.03926664963364601
1683129287536439600,14.166439453125,0.11559677124023438,-0.2701878547668457,-0.08334628492593765
1683129287554273300,14.184273193359376,-0.2686195373535156,0.39326930046081543,0.10056248307228088
1683129287572100600,14.2021005859375,0.251129150390625,-0.27230703830718994,-0.0016603916883468628
1683129287589936000,14.21993603515625,-0.12714481353759766,0.3869818449020386,0.016137367114424706
1683129287607778800,14.23777880859375,0.2849464416503906,-0.38701319694519043,0.03590623289346695
1683129287625625600,14.25562548828125,-0.19907569885253906,0.3732210397720337,-0.10209102928638458
1683129287643462000,14.2734619140625,0.2535533905029297,-0.5138076543807983,0.03658174350857735
1683129287661290000,14.2912900390625,-0.2848825454711914,0.5354697704315186,-0.0050395578145980835
1683129287679137300,14.30913720703125,0.18268394470214844,-0.4793919324874878,0.09658311307430267
1683129287696971300,14.32697119140625,-0.2577953338623047,0.5328547954559326,0.04504397138953209
1683129287714808000,14.34480810546875,0.10964584350585938,-0.3838381767272949,0.11177325248718262
1683129287732647000,14.36264697265625,-0.14403820037841797,0.38307225704193115,-0.0912909060716629
1683129287750487300,14.3804873046875,0.11671066284179688,-0.4571951627731323,0.05146915838122368
1683129287768321500,14.398321533203125,-0.1739521026611328,0.2832680940628052,-0.08764556050300598
1683129287786162000,14.416161865234375,0.06497669219970703,-0.3058234453201294,0.12748217582702637
1683129287804001000,14.4340009765625,-0.15476417541503906,0.12894904613494873,-0.11780011653900146
1683129287821836800,14.4518369140625,0.000308990478515625,-0.10279297828674316,0.21165531873703003
1683129287839677200,14.46967724609375,-0.019231796264648438,0.055182456970214844,-0.20271041989326477
1683129287857512000,14.487511962890625,-0.008213996887207031,-0.08311283588409424,0.22387921810150146
1683129287875343000,14.505343017578125,0.030210494995117188,0.06631779670715332,-0.20442166924476624
1683129287893175000,14.523175048828126,-0.05603313446044922,-0.09599900245666504,0.17574045062065125
1683129287911024400,14.5410244140625,-0.011075973510742188,-0.07861542701721191,-0.2124820053577423
1683129287928861700,14.55886181640625,-0.17830657958984375,0.19022643566131592,0.1898004114627838
1683129287946696200,14.5766962890625,0.1280670166015625,-0.16507816314697266,-0.1518079936504364
1683129287964536600,14.59453662109375,-0.11067390441894531,0.24752092361450195,0.14110347628593445
1683129287982374400,14.61237451171875,0.1575336456298828,-0.18905508518218994,-0.0748106837272644
1683129288000211500,14.63021142578125,-0.12257957458496094,0.1926809549331665,-0.03740520030260086
1683129288018049000,14.648049072265625,0.2302408218383789,-0.3610011339187622,-0.03702009469270706
1683129288035880200,14.665880126953125,-0.3133544921875,0.37068307399749756,-0.0325038805603981
1683129288053727000,14.68372705078125,0.23932552337646484,-0.4106736183166504,0.0501529686152935
1683129288071558700,14.70155859375,-0.2853565216064453,0.5056841373443604,0.03553175553679466
1683129288089399000,14.71939892578125,0.22421741485595703,-0.4047873020172119,0.09127302467823029
1683129288107236600,14.737236572265624,-0.1322040557861328,0.48441553115844727,-0.03182368725538254
1683129288125071400,14.7550712890625,0.1710824966430664,-0.5309600830078125,0.04737537354230881
1683129288142911500,14.772911376953125,-0.20160865783691406,0.47158241271972656,-0.03883764147758484
1683129288160749000,14.7907490234375,0.1920318603515625,-0.5031032562255859,0.05717495083808899
1683129288178577400,14.808577392578124,-0.26912879943847656,0.37459516525268555,0.009301973506808281
1683129288196416300,14.826416259765624,0.07521629333496094,-0.34554529190063477,0.1509283185005188
1683129288214261200,14.84426123046875,-0.06678390502929688,0.3498786687850952,-0.04573997110128403
1683129288232096300,14.86209619140625,0.048707008361816406,-0.27730584144592285,0.11022673547267914
1683129288249936100,14.87993603515625,-0.15982627868652344,0.22217082977294922,-0.1236971765756607
1683129288267770400,14.897770263671875,0.1070394515991211,-0.30685174465179443,0.13367055356502533
1683129288285611000,14.915611083984375,-0.08388328552246094,0.08531308174133301,-0.1618097722530365
1683129288303448800,14.93344873046875,-0.13573837280273438,-0.06571030616760254,0.26332610845565796
1683129288321286100,14.9512861328125,0.031601905822753906,-0.057608842849731445,-0.22132748365402222
1683129288339123700,14.969123779296876,-0.017452239990234375,0.0785520076751709,0.26024046540260315
1683129288356961300,14.986961181640625,0.09372615814208984,0.02445816993713379,-0.19687648117542267
1683129288374795300,15.004795166015626,-0.027663230895996094,0.0024338960647583008,0.14126187562942505
1683129288392636700,15.02263671875,-0.0018663406372070312,-0.056783318519592285,-0.1520472764968872
1683129288410473700,15.0404736328125,-0.16872692108154297,0.11402666568756104,0.06311194598674774
1683129288428311000,15.05831103515625,0.1103963851928711,-0.24488580226898193,-0.0961020290851593
1683129288446141000,15.076140869140625,-0.26137256622314453,0.37272918224334717,0.10710209608078003
1683129288463986000,15.09398583984375,0.21390914916992188,-0.27643072605133057,-0.0035515092313289642
1683129288481823500,15.111823486328126,-0.13637828826904297,0.3368372917175293,-0.0062060169875621796
1683129288499661000,15.1296611328125,0.2996711730957031,-0.3916183114051819,-0.0021244287490844727
1683129288517493800,15.14749365234375,-0.20998764038085938,0.35337138175964355,-0.09321480989456177
1683129288535336200,15.165336181640624,0.24640750885009766,-0.499203622341156,0.027355076745152473
1683129288553173200,15.18317333984375,-0.2873697280883789,0.5485022068023682,0.009525395929813385
1683129288571010800,15.2010107421875,0.19659709930419922,-0.4960808753967285,0.09234006702899933
1683129288588848600,15.2188486328125,-0.20866870880126953,0.5527225732803345,0.04303629696369171
1683129288606685700,15.236685791015624,0.15068626403808594,-0.41636502742767334,0.08622860163450241
1683129288624523300,15.254523193359375,-0.15455055236816406,0.39634382724761963,-0.1185854971408844
1683129288642362400,15.2723623046875,0.10735893249511719,-0.502060055732727,0.03514149785041809
1683129288660198400,15.290198486328125,-0.1894693374633789,0.3039182424545288,-0.03949963301420212
1683129288678038800,15.308038818359375,0.10641860961914062,-0.3251394033432007,0.12632784247398376
1683129288695870500,15.325870361328125,-0.15676593780517578,0.1970747709274292,-0.10203849524259567
1683129288713711900,15.3437119140625,-0.031524658203125,-0.15552031993865967,0.19817687571048737
1683129288731549400,15.361549560546875,-0.04679679870605469,0.13261127471923828,-0.16177934408187866
1683129288749386000,15.379385986328124,0.038013458251953125,-0.14441299438476562,0.2100515365600586
1683129288767215900,15.3972158203125,-0.044104576110839844,0.06936156749725342,-0.1912403404712677
1683129288785060600,15.415060546875,-0.056969642639160156,-0.11276125907897949,0.19098998606204987
1683129288802898200,15.432898193359375,-0.0108489990234375,-0.0639653205871582,-0.22792942821979523
1683129288820735500,15.450735595703126,-0.1667308807373047,0.17029798030853271,0.2111908346414566
1683129288838568400,15.468568359375,0.1052083969116211,-0.0931694507598877,-0.19728587567806244
1683129288856410400,15.486410400390625,-0.037293434143066406,0.1963188648223877,0.16726896166801453
1683129288874248000,15.504248046875,0.059273719787597656,-0.13974213600158691,-0.11494190990924835
1683129288892085500,15.52208544921875,-0.12298202514648438,0.14537763595581055,-0.008986666798591614
1683129288909922800,15.5399228515625,0.21840763092041016,-0.302140474319458,-0.062471456825733185
1683129288927760400,15.557760498046875,-0.2965822219848633,0.3492802381515503,0.005311265587806702
1683129288945595000,15.575594970703126,0.21678447723388672,-0.37251144647598267,0.03657060116529465
1683129288963436300,15.593436279296874,-0.20979976654052734,0.47427308559417725,0.05198267847299576
1683129288981272600,15.6112724609375,0.28124237060546875,-0.3587348461151123,0.07134400308132172
1683129288999110100,15.629110107421875,-0.16969585418701172,0.4394690990447998,-0.07743804156780243
1683129289016936000,15.64693603515625,0.19996166229248047,-0.5306063890457153,0.03268325328826904
1683129289034774800,15.66477490234375,-0.20882701873779297,0.48975467681884766,-0.06896208971738815
1683129289052621800,15.682621826171875,0.17623329162597656,-0.4928269386291504,0.03165070712566376
1683129289070449700,15.70044970703125,-0.28800392150878906,0.4635723829269409,0.03258449584245682
1683129289088293000,15.718293212890625,0.13010692596435547,-0.3653947114944458,0.13464343547821045
1683129289106137900,15.736137939453124,-0.17357254028320312,0.40950775146484375,-0.0330343060195446
1683129289123975000,15.753974853515626,0.12559890747070312,-0.3433324098587036,0.06790918856859207
1683129289141813200,15.771813232421875,-0.17912769317626953,0.293687105178833,-0.0802253782749176
1683129289159649300,15.789649169921875,0.09457969665527344,-0.36964333057403564,0.1031629666686058
1683129289177484000,15.807484130859375,-0.11028480529785156,0.1379683017730713,-0.10777027904987335
1683129289195322400,15.825322265625,-0.0715341567993164,-0.13552343845367432,0.25223419070243835
1683129289213159000,15.843158935546874,-0.05222892761230469,0.030083537101745605,-0.17640769481658936
1683129289230997500,15.86099755859375,-0.010334014892578125,0.004339098930358887,0.2557900547981262
1683129289248834800,15.878834716796876,-0.0027713775634765625,0.04072690010070801,-0.23411238193511963
1683129289266672000,15.896672119140625,0.02862548828125,-0.08974528312683105,0.1991540640592575
1683129289284511500,15.914511474609375,-0.0027561187744140625,-0.03139686584472656,-0.21570980548858643
1683129289302347300,15.93234716796875,-0.22206878662109375,0.09351241588592529,0.14007872343063354
1683129289320184800,15.950184814453126,0.09866714477539062,-0.15850043296813965,-0.1626599282026291
1683129289338022400,15.9680224609375,-0.18730640411376953,0.2742016315460205,0.1569533497095108
1683129289355859500,15.985859375,0.18406009674072266,-0.1762409210205078,-0.06184043735265732
1683129289373697000,16.003697021484374,-0.03837299346923828,0.22643494606018066,0.028653139248490334
1683129289391535400,16.021535400390626,0.22188854217529297,-0.28067851066589355,-0.03206845372915268
1683129289409372200,16.0393720703125,-0.22536849975585938,0.2979733943939209,-0.05865021049976349
1683129289427209700,16.057209716796876,0.21855831146240234,-0.432834267616272,0.01330517791211605
1683129289445044200,16.075044189453124,-0.3001842498779297,0.5282988548278809,0.03579600155353546
1683129289462884400,16.09288427734375,0.21135711669921875,-0.3929479122161865,0.07221825420856476
1683129289480722000,16.110721923828127,-0.19705867767333984,0.49598586559295654,-0.010301055386662483
1683129289498559200,16.128559326171874,0.17316532135009766,-0.4149675965309143,0.09793059527873993
1683129289516396800,16.146396728515626,-0.18361568450927734,0.4067227840423584,-0.0845978856086731
1683129289534221600,16.1642216796875,0.18251800537109375,-0.5545461177825928,0.02734457142651081
1683129289552060200,16.18206005859375,-0.22150707244873047,0.43107032775878906,-0.020166879519820213
1683129289569897700,16.199897705078126,0.12682247161865234,-0.45375752449035645,0.08656705915927887
1683129289587732700,16.217732666015625,-0.20810890197753906,0.40496695041656494,-0.003515850752592087
1683129289605572600,16.235572509765625,0.06615829467773438,-0.2982224225997925,0.11041807383298874
1683129289623411000,16.253410888671876,-0.14013385772705078,0.3007298707962036,-0.0973399430513382
1683129289641259300,16.27125927734375,0.03093719482421875,-0.2993309497833252,0.14307647943496704
1683129289659096800,16.289096923828126,-0.12731170654296875,0.16986048221588135,-0.1440102905035019
1683129289676934400,16.306934326171874,0.04861259460449219,-0.23128390312194824,0.1691204458475113
1683129289694769000,16.324768798828124,-0.06185626983642578,-0.01210927963256836,-0.22489216923713684
1683129289712606700,16.342606689453124,-0.1424388885498047,-0.012691378593444824,0.24415495991706848
1683129289730443800,16.36044384765625,0.06064033508300781,-0.005804657936096191,-0.22968867421150208
1683129289748284700,16.37828466796875,-0.004254341125488281,0.0075876712799072266,0.23562823235988617
1683129289766118700,16.39611865234375,0.033473968505859375,0.04977822303771973,-0.17977041006088257
1683129289783959000,16.413958984375,-0.08256816864013672,-0.02359485626220703,0.12629616260528564
1683129289801794800,16.431794921875,0.08593368530273438,-0.12306439876556396,-0.1724204272031784
1683129289819634000,16.449634033203125,-0.20716094970703125,0.22991704940795898,0.11455060541629791
1683129289837471200,16.46747119140625,0.10860729217529297,-0.28772997856140137,-0.09150158613920212
1683129289855303000,16.485302978515627,-0.13191890716552734,0.3182518482208252,0.10904505848884583
1683129289873132000,16.503132080078124,0.261016845703125,-0.25980210304260254,-0.030112935230135918
1683129289890980900,16.52098095703125,-0.1474323272705078,0.2574082612991333,-0.07734885066747665
1683129289908821200,16.5388212890625,0.2677326202392578,-0.42295968532562256,-0.01417701318860054
1683129289926658600,16.556658447265626,-0.25536155700683594,0.417061448097229,-0.06865920126438141
1683129289944493300,16.574493408203125,0.1956768035888672,-0.4929323196411133,0.045229505747556686
1683129289962333700,16.592333740234373,-0.30057525634765625,0.5452886819839478,0.028921738266944885
1683129289980171000,16.6101708984375,0.2216787338256836,-0.4135535955429077,0.097248375415802
1683129289998008600,16.628008544921876,-0.15961265563964844,0.5067507028579712,-0.013095879927277565
1683129290015846100,16.64584619140625,0.15083980560302734,-0.46962493658065796,0.06028655916452408
1683129290033683500,16.663683349609375,-0.2281055450439453,0.41876769065856934,-0.04096052795648575
1683129290051521800,16.681521728515627,0.161590576171875,-0.4961487650871277,0.05342250317335129
1683129290069358300,16.6993583984375,-0.24790000915527344,0.33953380584716797,-0.03770624101161957
1683129290087184400,16.717184326171875,0.08033466339111328,-0.3474768400192261,0.13621242344379425
1683129290105021400,16.735021484375,-0.12251472473144531,0.2853125333786011,-0.06873980164527893
1683129290122860300,16.7528603515625,-0.0036945343017578125,-0.20489704608917236,0.153248131275177
1683129290140711400,16.77071142578125,-0.12487411499023438,0.17434227466583252,-0.14318901300430298
1683129290158545700,16.788545654296875,0.09846210479736328,-0.26844120025634766,0.15020009875297546
1683129290176380200,16.806380126953126,-0.07149028778076172,0.059865355491638184,-0.19104692339897156
1683129290194220800,16.824220703125,-0.12897205352783203,-0.11920475959777832,0.2509167492389679
1683129290212061000,16.84206103515625,0.02836132049560547,-0.04978740215301514,-0.22425588965415955
1683129290229892600,16.859892578125,-0.08020687103271484,0.10462343692779541,0.2630017101764679
1683129290247733000,16.87773291015625,0.08350658416748047,-0.004450798034667969,-0.20051899552345276
1683129290265570300,16.8955703125,-0.009491920471191406,0.05134224891662598,0.14720651507377625
1683129290283408000,16.913407958984376,0.06301403045654297,-0.06963145732879639,-0.1515936702489853
1683129290301245700,16.93124560546875,-0.13792705535888672,0.12893593311309814,0.03182123601436615
1683129290319083000,16.9490830078125,0.14779090881347656,-0.23721563816070557,-0.07753533124923706
1683129290336920300,16.96692041015625,-0.30150318145751953,0.3925034999847412,0.09532563388347626
1683129290354758100,16.984758056640626,0.18347930908203125,-0.26937174797058105,0.0049285609275102615
1683129290372595500,17.002595458984374,-0.10480403900146484,0.3654494285583496,0.027469776570796967
1683129290390432800,17.020432861328125,0.2821807861328125,-0.3542894124984741,0.02181125059723854
1683129290408270000,17.03827001953125,-0.17998409271240234,0.3583247661590576,-0.09011614322662354
1683129290426107600,17.056107666015624,0.24770545959472656,-0.5192184448242188,0.0384860634803772
1683129290443943200,17.073943115234375,-0.2937297821044922,0.5543512105941772,0.022099705412983894
1683129290461783000,17.091782958984375,0.17647171020507812,-0.4965348243713379,0.0823175460100174
1683129290479620000,17.1096201171875,-0.2595815658569336,0.5439704656600952,0.05040176585316658
1683129290497452800,17.127452880859376,0.1280689239501953,-0.37608957290649414,0.1175287514925003
1683129290515295000,17.145294921875,-0.18504810333251953,0.38275396823883057,-0.07602114230394363
1683129290533132500,17.163132568359377,0.1467294692993164,-0.47833138704299927,0.053570814430713654
1683129290550969900,17.180969970703124,-0.212249755859375,0.34295427799224854,-0.0648527666926384
1683129290568804600,17.1988046875,0.10392951965332031,-0.3805668354034424,0.0861881673336029
1683129290586644700,17.216644775390623,-0.1528644561767578,0.20892059803009033,-0.09787661582231522
1683129290604462800,17.234462890625,-0.0070934295654296875,-0.16801679134368896,0.1994820386171341
1683129290622318800,17.25231884765625,-0.04315662384033203,0.14170753955841064,-0.13805823028087616
1683129290640158200,17.270158203125,0.02222728729248047,-0.1311739683151245,0.22690477967262268
1683129290657997300,17.287997314453126,-0.053356170654296875,0.08792877197265625,-0.20540696382522583
1683129290675835000,17.3058349609375,0.007861137390136719,-0.14443016052246094,0.20098644495010376
1683129290693671000,17.3236708984375,-0.010423660278320312,-0.05354177951812744,-0.23889213800430298
1683129290711508700,17.3415087890625,-0.2237873077392578,0.10342442989349365,0.22024276852607727
1683129290729344300,17.35934423828125,0.1260547637939453,-0.09611475467681885,-0.19298039376735687
1683129290747181800,17.377181884765626,-0.06603145599365234,0.19575285911560059,0.1990591585636139
1683129290765008600,17.395008544921875,0.10220527648925781,-0.10526633262634277,-0.10566923022270203
1683129290782856700,17.412856689453125,-0.0626974105834961,0.1403191089630127,0.009816836565732956
1683129290800697000,17.430697021484374,0.17769336700439453,-0.23581743240356445,-0.0696025863289833
1683129290818527000,17.44852685546875,-0.2476215362548828,0.298134446144104,0.005849406123161316
1683129290836369200,17.466369140625,0.1811962127685547,-0.3685925602912903,0.017312034964561462
1683129290854206700,17.484206787109375,-0.2139291763305664,0.49950551986694336,0.08856144547462463
1683129290872034600,17.50203466796875,0.2986278533935547,-0.3077211380004883,0.07605688273906708
1683129290889881600,17.519881591796874,-0.18887996673583984,0.42533349990844727,-0.07556195557117462
1683129290907719000,17.537718994140626,0.16051483154296875,-0.4472648501396179,0.08188879489898682
1683129290925556200,17.55555615234375,-0.21468544006347656,0.45617783069610596,-0.07588369399309158
1683129290943391000,17.573390869140624,0.2016124725341797,-0.5448726415634155,0.04309484362602234
1683129290961231000,17.591231201171876,-0.2623729705810547,0.472770094871521,0.0026788096874952316
1683129290979069000,17.60906884765625,0.1200246810913086,-0.4299358129501343,0.12276367843151093
1683129290996906000,17.626906005859375,-0.19517135620117188,0.4304763078689575,-0.00557732954621315
1683129291014745000,17.6447451171875,0.1187429428100586,-0.35789012908935547,0.09687064588069916
1683129291032582700,17.662582763671875,-0.2138051986694336,0.33102214336395264,-0.053983159363269806
1683129291050418400,17.68041845703125,0.0938262939453125,-0.355057954788208,0.11413420736789703
1683129291068252000,17.698251953125,-0.134185791015625,0.16877377033233643,-0.10631527006626129
1683129291086093300,17.71609326171875,-0.0272979736328125,-0.2044384479522705,0.20780256390571594
1683129291103930400,17.733930419921876,-0.037156105041503906,0.0332028865814209,-0.1836126297712326
1683129291121768400,17.7517685546875,-0.03442573547363281,-0.029147744178771973,0.2685602903366089
1683129291139607600,17.769607666015624,0.02797985076904297,0.07353377342224121,-0.2218410074710846
1683129291157443300,17.787443359375,0.03734397888183594,-0.07879042625427246,0.1949288696050644
1683129291175280600,17.80528076171875,-0.03688335418701172,0.019867658615112305,-0.20036228001117706
1683129291193098200,17.82309814453125,-0.17421817779541016,0.0033539533615112305,0.14655712246894836
1683129291210958300,17.840958251953126,0.060555458068847656,-0.13570892810821533,-0.1612555980682373
1683129291228793000,17.85879296875,-0.18828201293945312,0.290543794631958,0.17457671463489532
1683129291246630100,17.876630126953124,0.16042041778564453,-0.20426404476165771,-0.0668930932879448
1683129291264466700,17.894466796875,-0.0487213134765625,0.24304020404815674,0.06950084120035172
1683129291282305500,17.912305419921875,0.2324962615966797,-0.2536485195159912,-0.03719785436987877
1683129291300142800,17.930142822265626,-0.2156839370727539,0.26732969284057617,-0.05507805198431015
1683129291317980400,17.94798046875,0.2487201690673828,-0.44321632385253906,0.016333166509866714
1683129291335817500,17.9658173828125,-0.23982715606689453,0.5182703733444214,0.022167010232806206
1683129291353655000,17.983655029296877,0.24007892608642578,-0.4299752712249756,0.07766671478748322
1683129291371493400,18.001493408203125,-0.2736854553222656,0.501561164855957,0.012714127078652382
1683129291389330000,18.019329833984376,0.20339107513427734,-0.4141044616699219,0.10136245936155319
1683129291407170000,18.037170166015624,-0.15939807891845703,0.42946696281433105,-0.08337265253067017
1683129291424993300,18.0549931640625,0.2000112533569336,-0.5295025110244751,0.03871706873178482
1683129291442839600,18.072839599609374,-0.24828338623046875,0.41752564907073975,-0.048951346427202225
1683129291460680000,18.090679931640626,0.13226985931396484,-0.4760932922363281,0.06454968452453613
1683129291478520300,18.108520263671874,-0.20687294006347656,0.35156071186065674,-0.035910822451114655
1683129291496354600,18.1263544921875,0.049826622009277344,-0.3092770576477051,0.12212108075618744
1683129291514191000,18.144191162109376,-0.10628414154052734,0.23791658878326416,-0.1195237934589386
1683129291532026600,18.162026611328123,0.006815910339355469,-0.23619091510772705,0.16669407486915588
1683129291549867300,18.1798671875,-0.12538433074951172,0.1407160758972168,-0.159518301486969
1683129291567701500,18.197701416015626,0.029329299926757812,-0.2525728940963745,0.17611050605773926
1683129291585536000,18.215535888671877,-0.0426177978515625,-0.0017906427383422852,-0.22277988493442535
1683129291603376600,18.233376708984373,-0.133514404296875,0.017462849617004395,0.2523183822631836
1683129291621205500,18.25120556640625,0.081512451171875,-0.03699660301208496,-0.23340025544166565
1683129291639043600,18.269043701171874,-0.03971385955810547,0.06896710395812988,0.23311485350131989
1683129291656894500,18.28689453125,0.07812881469726562,-0.011836647987365723,-0.16162876784801483
1683129291674729700,18.304729736328124,-0.05427074432373047,0.0332028865814209,0.09844425320625305
1683129291692568600,18.322568603515624,0.052715301513671875,-0.14227581024169922,-0.12593615055084229
1683129291710404000,18.340404052734375,-0.23032855987548828,0.1935875415802002,0.06683268398046494
1683129291728244200,18.358244140625,0.13039112091064453,-0.2888127565383911,-0.057758234441280365
1683129291746079000,18.376078857421874,-0.16321468353271484,0.3760873079299927,0.09659124165773392
1683129291763916300,18.393916259765625,0.2502708435058594,-0.31314778327941895,0.03005126491189003
1683129291781755400,18.41175537109375,-0.18846988677978516,0.31498849391937256,-0.06952469050884247
1683129291799590700,18.429590576171876,0.2792196273803711,-0.4394630193710327,0.03735463321208954
1683129291817428700,18.4474287109375,-0.2412891387939453,0.4308542013168335,-0.07406479120254517
1683129291835260200,18.46526025390625,0.1837148666381836,-0.5307329893112183,0.06653034687042236
1683129291853103600,18.483103515625,-0.2534599304199219,0.5286440849304199,0.005716215819120407
1683129291870941000,18.50094091796875,0.19302845001220703,-0.4505300521850586,0.1060594916343689
1683129291888778500,18.518778564453125,-0.2082233428955078,0.49434125423431396,0.024313081055879593
1683129291906610400,18.5366103515625,0.16339874267578125,-0.4153134822845459,0.06551557779312134
1683129291924453400,18.554453369140624,-0.18600177764892578,0.37241339683532715,-0.04084870219230652
1683129291942288100,18.5722880859375,0.09893131256103516,-0.4284309148788452,0.0788080170750618
1683129291960128300,18.590128173828123,-0.1717233657836914,0.2333751916885376,-0.0724322721362114
1683129291977965800,18.6079658203125,0.017218589782714844,-0.25647449493408203,0.1609530746936798
1683129291995803100,18.62580322265625,-0.12161827087402344,0.12165164947509766,-0.10514307022094727
1683129292013640700,18.643640625,0.009959220886230469,-0.1215815544128418,0.22437319159507751
1683129292031479000,18.66147900390625,-0.00933837890625,0.13245153427124023,-0.20394738018512726
1683129292049312500,18.6793125,0.023492813110351562,-0.13801348209381104,0.20271937549114227
1683129292067153200,18.697153076171876,-0.007760047912597656,0.030306458473205566,-0.21933239698410034
1683129292084987000,18.71498681640625,-0.14829540252685547,-0.04174458980560303,0.2058745175600052
1683129292102829000,18.7328291015625,0.02486419677734375,-0.12578809261322021,-0.20435598492622375
1683129292120661500,18.75066162109375,-0.14715099334716797,0.22370290756225586,0.1942080855369568
1683129292138503000,18.7685029296875,0.14656543731689453,-0.13050663471221924,-0.1496790200471878
1683129292156334300,18.786334228515624,-0.02872753143310547,0.15076375007629395,0.0920836478471756
1683129292174180000,18.80418017578125,0.09384536743164062,-0.18487465381622314,-0.06898600608110428
1683129292192015400,18.822015380859376,-0.1799449920654297,0.20572710037231445,-0.022379953414201736
1683129292209852700,18.839852783203124,0.22151756286621094,-0.37209373712539673,-0.018057353794574738
1683129292227685400,18.857685302734374,-0.30051326751708984,0.46917712688446045,0.027786528691649437
1683129292245527300,18.87552734375,0.2527608871459961,-0.37669670581817627,0.05743185430765152
1683129292263364900,18.89336474609375,-0.19828224182128906,0.47820985317230225,0.013803668320178986
1683129292281202400,18.911202392578126,0.24485301971435547,-0.40528404712677,0.08045779168605804
1683129292299039700,18.929039794921874,-0.1697702407836914,0.423642635345459,-0.07967144250869751
1683129292316877000,18.946876953125,0.24535179138183594,-0.5309908986091614,0.04731897637248039
1683129292334714600,18.964714599609376,-0.2428750991821289,0.46476662158966064,-0.05232187733054161
1683129292352539600,18.98253955078125,0.1629352569580078,-0.5157677531242371,0.05957520008087158
1683129292370389500,19.000389404296875,-0.22946548461914062,0.4164409637451172,0.0271283108741045
1683129292388215000,19.018215087890624,0.06860733032226562,-0.3454773426055908,0.111099012196064
1683129292406064400,19.036064453125,-0.13729000091552734,0.3134552240371704,-0.0888579860329628
1683129292423901400,19.0539013671875,0.05621051788330078,-0.32704710960388184,0.10722985118627548
1683129292441736400,19.071736328125,-0.17364025115966797,0.19310450553894043,-0.11116530001163483
1683129292459576600,19.08957666015625,0.051299095153808594,-0.3036658763885498,0.16490381956100464
1683129292477409300,19.1074091796875,-0.05166435241699219,0.03959167003631592,-0.15833193063735962
1683129292495254300,19.125254150390624,-0.08138656616210938,-0.055129408836364746,0.26805567741394043
1683129292513089000,19.143089111328123,0.06307697296142578,-0.005272865295410156,-0.24105851352214813
1683129292530930000,19.160929931640624,0.0012483596801757812,-0.010277748107910156,0.24190445244312286
1683129292548756500,19.178756591796876,0.053839683532714844,0.016092300415039062,-0.18226295709609985
1683129292566601500,19.1966015625,-0.07030391693115234,-0.03418469429016113,0.15378224849700928
1683129292584438300,19.214438232421877,0.02237701416015625,-0.11299800872802734,-0.16353552043437958
1683129292602276400,19.2322763671875,-0.18918991088867188,0.22844338417053223,0.12212163954973221
1683129292620113400,19.250113525390624,0.08852005004882812,-0.255287766456604,-0.09658776968717575
1683129292637951500,19.267951416015624,-0.1546792984008789,0.31480836868286133,0.1373569667339325
1683129292655788800,19.285788818359375,0.27199554443359375,-0.2450401782989502,-0.003729056566953659
1683129292673624600,19.30362451171875,-0.13241100311279297,0.2914447784423828,-0.0539114885032177
1683129292691463200,19.321463134765626,0.2745513916015625,-0.4382503628730774,-0.0012877397239208221
1683129292709301000,19.339301025390625,-0.221038818359375,0.42614316940307617,-0.06340618431568146
1683129292727138300,19.35713818359375,0.20532894134521484,-0.4917248487472534,0.06389819085597992
1683129292744974300,19.374974365234376,-0.26500415802001953,0.5466907024383545,0.02490256540477276
1683129292762815000,19.39281494140625,0.22114181518554688,-0.4318024516105652,0.10011908411979675
1683129292780650500,19.410650390625,-0.14473342895507812,0.5208740234375,0.003721339628100395
1683129292798483500,19.4284833984375,0.16727447509765625,-0.45557039976119995,0.051202669739723206
1683129292816325400,19.446325439453126,-0.22230815887451172,0.4167433977127075,-0.0400368832051754
1683129292834163000,19.464162841796874,0.12523174285888672,-0.48502129316329956,0.054518889635801315
1683129292851990500,19.481990478515623,-0.18375873565673828,0.2974439859390259,-0.04322096332907677
1683129292869837600,19.499837646484377,0.03534889221191406,-0.3283064365386963,0.1516575813293457
1683129292887675100,19.517675048828124,-0.15956974029541016,0.26486241817474365,-0.06774468719959259
1683129292905512200,19.53551220703125,0.0085296630859375,-0.17397356033325195,0.18773627281188965
1683129292923337000,19.5533369140625,-0.09302330017089844,0.16225719451904297,-0.14753390848636627
1683129292941184500,19.5711845703125,0.04432868957519531,-0.2391420602798462,0.1704234480857849
1683129292959025000,19.58902490234375,-0.037677764892578125,0.03272438049316406,-0.20658235251903534
1683129292976862500,19.606862548828126,-0.09947490692138672,-0.08217549324035645,0.24458317458629608
1683129292994701800,19.624701904296874,0.009142875671386719,-0.07423090934753418,-0.21723619103431702
1683129293012537300,19.642537353515625,-0.09968185424804688,0.1425565481185913,0.26250308752059937
1683129293030377500,19.66037744140625,0.16934490203857422,-0.038669466972351074,-0.1654033362865448
1683129293048211200,19.678211181640624,-0.020288467407226562,0.08997642993927002,0.11859538406133652
1683129293066049300,19.69604931640625,0.056189537048339844,-0.1321631669998169,-0.13581183552742004
1683129293083883800,19.7138837890625,-0.13663673400878906,0.1657341718673706,0.02656502090394497
1683129293101724400,19.731724365234374,0.136688232421875,-0.2971121072769165,-0.059669509530067444
1683129293119562000,19.74956201171875,-0.2989988327026367,0.4001225233078003,0.06080738455057144
1683129293137403400,19.7674033203125,0.2624235153198242,-0.30641067028045654,0.04293234646320343
1683129293155236400,19.785236328125,-0.15445899963378906,0.42720305919647217,0.03034147061407566
1683129293173074000,19.803073974609376,0.2745332717895508,-0.3976449966430664,0.04959540814161301
1683129293190908400,19.820908447265627,-0.16131305694580078,0.39166367053985596,-0.10325101763010025
1683129293208748500,19.83874853515625,0.23366260528564453,-0.540788471698761,0.04023699462413788
1683129293226586400,19.85658642578125,-0.25352954864501953,0.5240436792373657,0.003531280905008316
1683129293244422400,19.87442236328125,0.20220661163330078,-0.5041576623916626,0.06737260520458221
1683129293262261000,19.892260986328125,-0.25572967529296875,0.5017087459564209,0.05518249049782753
1683129293280098800,19.910098876953125,0.0944976806640625,-0.362776517868042,0.12383167445659637
1683129293297936100,19.92793603515625,-0.09590911865234375,0.3720521926879883,-0.07696765661239624
1683129293315767600,19.945767578125,0.11969661712646484,-0.4273601770401001,0.06077944114804268
1683129293333610800,19.96361083984375,-0.23657703399658203,0.26259350776672363,-0.06814832985401154
1683129293351448000,19.981447998046875,0.10955619812011719,-0.3110201358795166,0.1367669701576233
1683129293369285600,19.99928564453125,-0.12770557403564453,0.13963496685028076,-0.11552982032299042
1683129293387110100,20.017110107421875,-0.09574031829833984,-0.11745774745941162,0.2167011946439743
1683129293404956400,20.034956298828124,-0.010862350463867188,0.07488059997558594,-0.18282154202461243
1683129293422795000,20.052794921875,0.050136566162109375,-0.07085299491882324,0.2602342963218689
1683129293440632800,20.0706328125,0.03061199188232422,0.07863795757293701,-0.19006717205047607
1683129293458475800,20.088475830078124,-0.03125,-0.1347750425338745,0.16639380156993866
1683129293476314000,20.106314208984376,0.0073947906494140625,-0.04004549980163574,-0.2031155824661255
1683129293494139400,20.124139404296876,-0.18686866760253906,0.1571112871170044,0.18344363570213318
1683129293511986400,20.141986328125,0.09184741973876953,-0.18176865577697754,-0.15388822555541992
1683129293529825500,20.159825439453126,-0.09674644470214844,0.2572063207626343,0.15201306343078613
1683129293547660000,20.177659912109377,0.14722347259521484,-0.1823939085006714,-0.05251951515674591
1683129293565491200,20.1954912109375,-0.10507869720458984,0.19090116024017334,-0.009161185473203659
1683129293583335000,20.2133349609375,0.23089599609375,-0.35922712087631226,-0.031567979604005814
1683129293601172200,20.231172119140624,-0.2787513732910156,0.3764280080795288,-0.036246806383132935
1683129293619007000,20.249007080078126,0.1857738494873047,-0.42719101905822754,0.041303977370262146
1683129293636835600,20.266835693359376,-0.2822284698486328,0.5183595418930054,0.04112885147333145
1683129293654674000,20.284673828125,0.28101539611816406,-0.3909270763397217,0.08185276389122009
1683129293672522000,20.30252197265625,-0.18654632568359375,0.46173322200775146,-0.026326164603233337
1683129293690359600,20.320359619140625,0.17087173461914062,-0.5049591660499573,0.0484761968255043
1683129293708196900,20.33819677734375,-0.2067279815673828,0.43168628215789795,-0.06655006110668182
1683129293726034200,20.3560341796875,0.1962137222290039,-0.5349812507629395,0.035643070936203
1683129293743871700,20.373871826171875,-0.22203636169433594,0.41163837909698486,0.005663590505719185
1683129293761712400,20.39171240234375,0.08873748779296875,-0.3781379461288452,0.13474828004837036
1683129293779546400,20.40954638671875,-0.18929481506347656,0.37297022342681885,-0.03664012253284454
1683129293797384000,20.427384033203126,0.06247138977050781,-0.24799597263336182,0.1371125876903534
1683129293815221200,20.44522119140625,-0.14662551879882812,0.2573472261428833,-0.1053118109703064
1683129293833060400,20.463060302734377,0.06788444519042969,-0.307486891746521,0.14212925732135773
1683129293850896100,20.480896240234376,-0.08906078338623047,0.10001397132873535,-0.15508392453193665
1683129293868730600,20.498730712890627,-0.10930919647216797,-0.07722711563110352,0.26239895820617676
1683129293886565400,20.5165654296875,-0.025727272033691406,-0.03298747539520264,-0.2186911404132843
1683129293904397300,20.534397216796876,-0.04750633239746094,0.07255828380584717,0.27731144428253174
1683129293922246000,20.552245849609374,0.07445621490478516,0.022544026374816895,-0.1945255994796753
1683129293940070100,20.570070068359374,0.004543304443359375,0.02345740795135498,0.17118793725967407
1683129293957913300,20.587913330078123,0.029489517211914062,-0.0638575553894043,-0.1626192033290863
1683129293975758000,20.605758056640624,-0.16473770141601562,0.1409975290298462,0.06183261796832085
1683129293993596000,20.623595947265624,0.07551765441894531,-0.23545300960540771,-0.08711625635623932
1683129294011433500,20.64143359375,-0.2849750518798828,0.3714175224304199,0.10658764094114304
1683129294029271000,20.65927099609375,0.22929000854492188,-0.2591872215270996,0.008113577961921692
1683129294047108000,20.677108154296874,-0.06960773468017578,0.33626651763916016,0.014980269595980644
1683129294064938000,20.69493798828125,0.26161766052246094,-0.37741321325302124,0.012084957212209702
1683129294082781200,20.71278125,-0.18678569793701172,0.3454846143722534,-0.09275484830141068
1683129294100624100,20.7306240234375,0.24651622772216797,-0.5034022331237793,0.03778425604104996
1683129294118455800,20.748455810546876,-0.3375215530395508,0.5459866523742676,-0.012097453698515892
1683129294136297700,20.766297607421876,0.22031593322753906,-0.5173165798187256,0.06238970905542374
1683129294154133800,20.7841337890625,-0.2579078674316406,0.5122992992401123,0.0565444678068161
1683129294171970000,20.801969970703126,0.12034225463867188,-0.3944206237792969,0.08651940524578094
1683129294189807400,20.819807373046874,-0.13121509552001953,0.3956524133682251,-0.0725148618221283
1683129294207640800,20.837640869140625,0.15810585021972656,-0.4782726764678955,0.051574356853961945
1683129294225482000,20.85548193359375,-0.2668266296386719,0.33522355556488037,-0.03591133654117584
1683129294243319300,20.8733193359375,0.09202957153320312,-0.34884560108184814,0.1185745969414711
1683129294261157000,20.8911572265625,-0.14916515350341797,0.17195522785186768,-0.11029449105262756
1683129294278994400,20.908994384765624,-0.06025409698486328,-0.15549468994140625,0.20212692022323608
1683129294296832000,20.92683203125,-0.07885265350341797,0.10563194751739502,-0.16544683277606964
1683129294314669000,20.9446689453125,0.04775524139404297,-0.13907086849212646,0.2381761521100998
1683129294332506600,20.962506591796874,-0.022050857543945312,0.07859945297241211,-0.19271241128444672
1683129294350344200,20.98034423828125,-0.09430122375488281,-0.11845898628234863,0.20103386044502258
1683129294368181500,20.998181396484377,-0.0022516250610351562,-0.07325601577758789,-0.23093415796756744
1683129294386004500,21.01600439453125,-0.17489147186279297,0.15280282497406006,0.20973871648311615
1683129294403857700,21.033857666015624,0.07485580444335938,-0.12607860565185547,-0.16591602563858032
1683129294421696800,21.05169677734375,-0.07308101654052734,0.21487224102020264,0.1860249787569046
1683129294439527700,21.069527587890626,0.1593456268310547,-0.15068650245666504,-0.08425158262252808
1683129294457359400,21.087359375,-0.11080646514892578,0.1576935052871704,-0.009290724992752075
1683129294475207200,21.105207275390626,0.18471813201904297,-0.35666370391845703,-0.02681773528456688
1683129294493026600,21.123026611328125,-0.28824424743652344,0.3651787042617798,0.00983462855219841
1683129294510881000,21.140881103515625,0.19668006896972656,-0.423134982585907,0.050158895552158356
1683129294528717000,21.158717041015624,-0.25811195373535156,0.49101996421813965,0.042000651359558105
1683129294546558500,21.176558349609376,0.2877826690673828,-0.36992377042770386,0.09262468665838242
1683129294564396800,21.194396728515624,-0.13881397247314453,0.4625896215438843,-0.04703167825937271
1683129294582227700,21.212227783203126,0.16357994079589844,-0.5296776294708252,0.0505099892616272
1683129294600068000,21.230068115234374,-0.20143890380859375,0.4645254611968994,-0.060446083545684814
1683129294617902600,21.247902587890625,0.1641530990600586,-0.5189514756202698,0.046215616166591644
1683129294635742700,21.26574267578125,-0.2682380676269531,0.43068814277648926,0.02740647830069065
1683129294653579300,21.283579345703124,0.11899662017822266,-0.3623114824295044,0.12900738418102264
1683129294671417300,21.301417236328124,-0.15219688415527344,0.365026593208313,-0.035347968339920044
1683129294689255000,21.3192548828125,0.06916141510009766,-0.2922760248184204,0.11883655190467834
1683129294707091200,21.33709130859375,-0.1690235137939453,0.24225032329559326,-0.08936348557472229
1683129294724927500,21.354927490234374,0.10049152374267578,-0.3347737789154053,0.1315855234861374
1683129294742765000,21.37276513671875,-0.08475494384765625,0.10026693344116211,-0.14760853350162506
1683129294760604700,21.390604736328125,-0.11641597747802734,-0.10725080966949463,0.2760106921195984
1683129294778442200,21.408442138671877,-0.015442848205566406,-0.021891117095947266,-0.2018825113773346
1683129294796279300,21.426279296875,-0.0665435791015625,0.03674519062042236,0.2750631868839264
1683129294814116900,21.444116943359376,0.08150863647460938,0.016037464141845703,-0.1933894157409668
1683129294831954400,21.461954345703123,0.008433341979980469,-0.008682608604431152,0.1652638018131256
1683129294849792000,21.4797919921875,-0.00246429443359375,-0.04788219928741455,-0.1731044054031372
1683129294867629300,21.49762939453125,-0.1846332550048828,0.10664355754852295,0.08040325343608856
1683129294885454800,21.515454833984375,0.08076858520507812,-0.23211097717285156,-0.09585601091384888
1683129294903304000,21.533303955078125,-0.25536537170410156,0.34073328971862793,0.1100744679570198
1683129294921131300,21.55113134765625,0.21457767486572266,-0.2506767511367798,0.014992943033576012
1683129294938976000,21.56897607421875,-0.10461997985839844,0.33905887603759766,0.02269013039767742
1683129294956813000,21.58681298828125,0.3241395950317383,-0.37666332721710205,-0.004709973931312561
1683129294974652700,21.604652587890627,-0.21309661865234375,0.33830583095550537,-0.08406615257263184
1683129294992493800,21.622493896484375,0.22596454620361328,-0.47714507579803467,0.03849634900689125
1683129295010328600,21.64032861328125,-0.2895355224609375,0.5323758125305176,0.015389863401651382
1683129295028169500,21.65816943359375,0.2320413589477539,-0.4625113010406494,0.07637915760278702
1683129295046003000,21.6760029296875,-0.2246723175048828,0.5145400762557983,0.04390335455536842
1683129295063841800,21.693841796875,0.15120601654052734,-0.41515088081359863,0.09167588502168655
1683129295081678600,21.7116787109375,-0.17513275146484375,0.39249086380004883,-0.07964877039194107
1683129295099515600,21.729515625,0.1541738510131836,-0.516974925994873,0.049607500433921814
1683129295117355800,21.747355712890624,-0.20379352569580078,0.31866228580474854,-0.04197915270924568
1683129295135190300,21.765190185546874,0.0865182876586914,-0.35282444953918457,0.10719864070415497
1683129295153027800,21.78302783203125,-0.16724586486816406,0.20032823085784912,-0.09249885380268097
1683129295170865200,21.800865234375,0.0042591094970703125,-0.13990414142608643,0.2098749727010727
1683129295188702500,21.818702392578125,-0.04082775115966797,0.17257392406463623,-0.13978782296180725
1683129295206540300,21.836540283203124,0.04935646057128906,-0.18693602085113525,0.2112644463777542
