time,seconds_elapsed,z,y,x
1683129945194592500,0.097592529296875,-0.2528219223022461,-0.5204322338104248,0.12255200743675232
1683129945212429000,0.115428955078125,-0.05756568908691406,0.14288330078125,-0.10549353063106537
1683129945230282000,0.133281982421875,-0.01823711395263672,-0.048827290534973145,0.2225668728351593
1683129945248117200,0.1511171875,0.2620248794555664,-0.13574957847595215,-0.0510355681180954
1683129945265955600,0.16895556640625,-0.18328285217285156,0.2094970941543579,-0.049855250865221024
1683129945283793400,0.18679345703125,0.25438976287841797,-0.3877214193344116,0.032804109156131744
1683129945301631700,0.2046318359375,-0.10196590423583984,0.27796852588653564,-0.12870928645133972
1683129945319470800,0.222470947265625,-0.0007410049438476562,-0.4137195348739624,0.1472136676311493
1683129945337309000,0.240308837890625,-0.05093669891357422,0.1190652847290039,-0.1297328919172287
1683129945355147000,0.25814697265625,-0.044480323791503906,-0.10550522804260254,0.20476457476615906
1683129945372970000,0.275969970703125,0.06394195556640625,-0.09384036064147949,-0.1148420199751854
1683129945390825000,0.293824951171875,-0.028112411499023438,0.1063232421875,0.009680010378360748
1683129945408662300,0.311662353515625,0.18121337890625,-0.3388082981109619,0.057294875383377075
1683129945426500600,0.32950048828125,-0.1831531524658203,0.2844034433364868,-0.1210324615240097
1683129945444338700,0.347338623046875,0.1248617172241211,-0.4702877998352051,0.11116933822631836
1683129945462177000,0.365177001953125,-0.09787559509277344,0.19241547584533691,-0.13840320706367493
1683129945480016000,0.383015869140625,-0.06017589569091797,-0.19174575805664062,0.21380911767482758
1683129945497851100,0.40085107421875,0.0843038558959961,-0.10874855518341064,-0.12771975994110107
1683129945515695900,0.41869580078125,-0.047112464904785156,0.1040722131729126,0.03960416465997696
1683129945533529600,0.436529541015625,0.16974544525146484,-0.35108375549316406,0.03863026574254036
1683129945551369000,0.454368896484375,-0.17715167999267578,0.27474069595336914,-0.12965042889118195
1683129945569207000,0.47220703125,0.13092899322509766,-0.4517078399658203,0.11077142506837845
1683129945587045000,0.490045166015625,-0.10610103607177734,0.21779143810272217,-0.13106615841388702
1683129945604883500,0.507883544921875,-0.04888343811035156,-0.20864570140838623,0.22605454921722412
1683129945622722800,0.525722900390625,0.06483936309814453,-0.06571018695831299,-0.1287502944469452
1683129945640561200,0.54356103515625,-0.02691173553466797,0.09858047962188721,0.07074958831071854
1683129945658399000,0.56139892578125,0.1273937225341797,-0.269911527633667,0.049095842987298965
1683129945676237000,0.579237060546875,-0.13885879516601562,0.24315237998962402,-0.1513742208480835
1683129945694060800,0.597060791015625,0.13926124572753906,-0.4765979051589966,0.1241116002202034
1683129945711912700,0.61491259765625,-0.12915706634521484,0.24280357360839844,-0.11690068244934082
1683129945729756000,0.632755859375,-0.024827003479003906,-0.23067128658294678,0.20837406814098358
1683129945747590700,0.650590576171875,0.051230430603027344,-0.05636417865753174,-0.15279115736484528
1683129945765429000,0.668428955078125,-0.02325439453125,0.11870205402374268,0.09079454839229584
1683129945783266800,0.686266845703125,0.1342296600341797,-0.27759885787963867,0.04518646001815796
1683129945801108000,0.70410791015625,-0.14007949829101562,0.23616373538970947,-0.12712296843528748
1683129945818943500,0.721943603515625,0.13318252563476562,-0.4745156764984131,0.11870414018630981
1683129945836784400,0.739784423828125,-0.1064605712890625,0.2398167848587036,-0.12067283689975739
1683129945854614500,0.757614501953125,-0.023613929748535156,-0.25177979469299316,0.19216647744178772
1683129945872458500,0.77545849609375,-0.010212898254394531,-0.08659565448760986,-0.17908629775047302
1683129945890296600,0.793296630859375,-0.04653167724609375,0.09863805770874023,0.10417546331882477
1683129945908121600,0.81112158203125,0.15394973754882812,-0.25863349437713623,0.055864155292510986
1683129945925961700,0.828961669921875,-0.15182209014892578,0.22408854961395264,-0.1267058253288269
1683129945943811000,0.84681103515625,0.13930320739746094,-0.4634506106376648,0.11228238046169281
1683129945961649200,0.864649169921875,-0.13419151306152344,0.27058732509613037,-0.1132911890745163
1683129945979491600,0.88249169921875,-0.030546188354492188,-0.2662312984466553,0.18949149549007416
1683129945997326600,0.90032666015625,0.019439697265625,-0.06808304786682129,-0.18749448657035828
1683129946015164700,0.91816455078125,-0.0075550079345703125,0.10305464267730713,0.1303880512714386
1683129946033003300,0.936003173828125,0.145904541015625,-0.23195648193359375,0.04915916547179222
1683129946050844700,0.9538447265625,-0.1564044952392578,0.2072809934616089,-0.13212057948112488
1683129946068678100,0.97167822265625,0.1340017318725586,-0.4760100841522217,0.11049376428127289
1683129946086518000,0.98951806640625,-0.08242416381835938,0.26971423625946045,-0.11922667920589447
1683129946104356400,1.0073564453125,-0.026564598083496094,-0.2886427640914917,0.18124249577522278
1683129946122180000,1.02518017578125,-0.008504867553710938,-0.0633549690246582,-0.17777559161186218
1683129946140022500,1.0430224609375,-0.01507568359375,0.06929934024810791,0.13084273040294647
1683129946157873000,1.060872802734375,0.1454448699951172,-0.21894407272338867,0.044941842555999756
1683129946175704000,1.0787041015625,-0.15682315826416016,0.20710015296936035,-0.1414288729429245
1683129946193548000,1.096548095703125,0.1521587371826172,-0.48196184635162354,0.11212001740932465
1683129946211386400,1.114386474609375,-0.12538623809814453,0.2806054353713989,-0.1164654940366745
1683129946229224400,1.132224365234375,0.0049724578857421875,-0.2882096767425537,0.1730288863182068
1683129946247062800,1.150062744140625,0.016916275024414062,-0.039528608322143555,-0.1953481286764145
1683129946264904000,1.167904052734375,-0.07728290557861328,0.09079432487487793,0.1325024664402008
1683129946282736000,1.185736083984375,0.1554708480834961,-0.21634018421173096,0.05007679760456085
1683129946300578300,1.203578369140625,-0.13410663604736328,0.21510756015777588,-0.13347496092319489
1683129946318416000,1.221415771484375,0.13285064697265625,-0.4725974202156067,0.10703296959400177
1683129946336254500,1.23925439453125,-0.13762569427490234,0.2883692979812622,-0.1207566037774086
1683129946354078200,1.257078125,0.001049041748046875,-0.31554198265075684,0.17691123485565186
1683129946371931600,1.274931640625,0.0018758773803710938,-0.06580328941345215,-0.18227529525756836
1683129946389767400,1.292767333984375,-0.08672809600830078,0.09357380867004395,0.12255485355854034
1683129946407607600,1.310607666015625,0.17089462280273438,-0.23306000232696533,0.06005103141069412
1683129946425446000,1.32844580078125,-0.12845420837402344,0.23230087757110596,-0.11419440805912018
1683129946443284500,1.346284423828125,0.11388587951660156,-0.4528629183769226,0.11038430035114288
1683129946461119500,1.364119384765625,-0.11499595642089844,0.2753406763076782,-0.11431507021188736
1683129946478965000,1.381965087890625,0.04386138916015625,-0.29171037673950195,0.16128966212272644
1683129946496796200,1.399796142578125,-0.0025920867919921875,-0.051311492919921875,-0.19898927211761475
1683129946514636800,1.41763671875,-0.1101541519165039,0.09680831432342529,0.12126854062080383
1683129946532475400,1.435475341796875,0.2016315460205078,-0.23911404609680176,0.06518791615962982
1683129946550302700,1.453302734375,-0.14799880981445312,0.24041509628295898,-0.1179637461900711
1683129946568150300,1.471150390625,0.09758186340332031,-0.46661436557769775,0.11677468568086624
1683129946585989600,1.48898974609375,-0.1226034164428711,0.26168227195739746,-0.12046121060848236
1683129946603825400,1.506825439453125,0.005843162536621094,-0.31782233715057373,0.15661142766475677
1683129946621666600,1.52466650390625,-0.008877754211425781,-0.07889032363891602,-0.18189705908298492
1683129946639505200,1.542505126953125,-0.07410526275634766,0.0853261947631836,0.0936782956123352
1683129946657330700,1.56033056640625,0.1732625961303711,-0.27012622356414795,0.07608747482299805
1683129946675181800,1.578181884765625,-0.1552114486694336,0.26488518714904785,-0.13705526292324066
1683129946693011500,1.596011474609375,0.13632488250732422,-0.450614333152771,0.11415915191173553
1683129946710858000,1.61385791015625,-0.13973045349121094,0.26061344146728516,-0.12478794902563095
1683129946728696800,1.63169677734375,0.01678180694580078,-0.2801755666732788,0.158291757106781
1683129946746535200,1.64953515625,-0.018845558166503906,-0.06149697303771973,-0.17609913647174835
1683129946764374300,1.667374267578125,-0.09650993347167969,0.1373586654663086,0.09820303320884705
1683129946782207700,1.685207763671875,0.16483211517333984,-0.27141356468200684,0.06946398317813873
1683129946800048600,1.703048583984375,-0.13106346130371094,0.28673088550567627,-0.11608020961284637
1683129946817886700,1.72088671875,0.11323928833007812,-0.44381844997406006,0.11590149998664856
1683129946835726600,1.7387265625,-0.15658092498779297,0.25281214714050293,-0.13085272908210754
1683129946853565000,1.75656494140625,0.02579212188720703,-0.2777286767959595,0.16393712162971497
1683129946871403000,1.774403076171875,0.009868621826171875,-0.07249200344085693,-0.17271578311920166
1683129946889241300,1.792241455078125,-0.14400863647460938,0.11540484428405762,0.07519076764583588
1683129946907077600,1.81007763671875,0.17673110961914062,-0.2941218614578247,0.07206283509731293
1683129946924919800,1.827919921875,-0.10693836212158203,0.2860661745071411,-0.12381855398416519
1683129946942754800,1.8457548828125,0.0663299560546875,-0.4480997920036316,0.11175347864627838
1683129946960597200,1.86359716796875,-0.1423778533935547,0.25752830505371094,-0.13398045301437378
1683129946978433000,1.88143310546875,0.07334136962890625,-0.29808008670806885,0.1743806004524231
1683129946996271000,1.89927099609375,-0.02660846710205078,-0.07757604122161865,-0.17344197630882263
1683129947014110500,1.9171103515625,-0.1260814666748047,0.12762296199798584,0.07450511306524277
1683129947031950600,1.93495068359375,0.20891761779785156,-0.28663671016693115,0.080154649913311
1683129947049785900,1.952785888671875,-0.15714550018310547,0.29188573360443115,-0.10578692704439163
1683129947067624000,1.9706240234375,0.10321426391601562,-0.4419286251068115,0.11781060695648193
1683129947085462300,1.988462158203125,-0.14015769958496094,0.24718236923217773,-0.1433866322040558
1683129947103288800,2.006288818359375,0.031042098999023438,-0.28920626640319824,0.15936130285263062
1683129947121124600,2.02412451171875,0.008587837219238281,-0.08326947689056396,-0.14896969497203827
1683129947138966300,2.04196630859375,-0.12037277221679688,0.14241313934326172,0.0753621757030487
1683129947156815600,2.059815673828125,0.19104480743408203,-0.3020038604736328,0.09385798871517181
1683129947174653700,2.07765380859375,-0.135650634765625,0.2848198413848877,-0.10347910225391388
1683129947192494000,2.095494140625,0.0892190933227539,-0.41802525520324707,0.11808770895004272
1683129947210316300,2.11331640625,-0.13343334197998047,0.23577332496643066,-0.13397546112537384
1683129947228157200,2.1311572265625,0.03979969024658203,-0.2989029884338379,0.16804006695747375
1683129947245998600,2.14899853515625,-0.024959564208984375,-0.03989362716674805,-0.1506091058254242
1683129947263840500,2.166840576171875,-0.11948490142822266,0.10224401950836182,0.05153175815939903
1683129947281682700,2.1846826171875,0.20671558380126953,-0.316753625869751,0.07241711020469666
1683129947299524400,2.2025244140625,-0.1372995376586914,0.30468738079071045,-0.102532297372818
1683129947317360000,2.220360107421875,0.11721324920654297,-0.4141594171524048,0.13217994570732117
1683129947335198500,2.238198486328125,-0.12924957275390625,0.24856972694396973,-0.12692609429359436
1683129947353036500,2.25603662109375,0.014245986938476562,-0.3073234558105469,0.153254896402359
1683129947370870800,2.273870849609375,0.023260116577148438,-0.04504501819610596,-0.15642651915550232
1683129947388710400,2.29171044921875,-0.1243438720703125,0.09432542324066162,0.05351458862423897
1683129947406548500,2.309548583984375,0.18408489227294922,-0.3300527334213257,0.06588011980056763
1683129947424389600,2.3273896484375,-0.11880874633789062,0.3077094554901123,-0.07920819520950317
1683129947442225400,2.345225341796875,0.09893608093261719,-0.41224610805511475,0.13030804693698883
1683129947460066600,2.363066650390625,-0.13722896575927734,0.26009440422058105,-0.13303184509277344
1683129947477904600,2.380904541015625,0.0418853759765625,-0.31641578674316406,0.16185468435287476
1683129947495743000,2.398742919921875,-0.022216796875,-0.004526019096374512,-0.16734620928764343
1683129947513583000,2.4165830078125,-0.10832595825195312,0.08602821826934814,0.055047329515218735
1683129947531420000,2.434419921875,0.17772293090820312,-0.3011850118637085,0.0595463365316391
1683129947549257700,2.4522578125,-0.15709400177001953,0.3070816993713379,-0.07051197439432144
1683129947567092700,2.4700927734375,0.1758108139038086,-0.42112302780151367,0.12181934714317322
1683129947584928500,2.487928466796875,-0.13606643676757812,0.26501381397247314,-0.15817931294441223
1683129947602772200,2.505772216796875,0.04919719696044922,-0.34383630752563477,0.15087513625621796
1683129947620611600,2.523611572265625,-0.013119697570800781,-0.021899938583374023,-0.1879471242427826
1683129947638452000,2.541451904296875,-0.12926483154296875,0.055320024490356445,0.0879136398434639
1683129947656287500,2.55928759765625,0.14998817443847656,-0.3036738634109497,0.05038249120116234
1683129947674125600,2.57712548828125,-0.08528900146484375,0.29396629333496094,-0.06478962302207947
1683129947691964000,2.5949638671875,0.14742088317871094,-0.41270148754119873,0.12094014883041382
1683129947709808000,2.61280810546875,-0.17261028289794922,0.28032350540161133,-0.14788629114627838
1683129947727640600,2.630640625,0.060314178466796875,-0.3321918249130249,0.16022449731826782
1683129947745478000,2.648477783203125,-0.05188560485839844,0.009404778480529785,-0.1802675575017929
1683129947763317000,2.66631689453125,-0.15742778778076172,-0.038285017013549805,0.12284298241138458
1683129947781156600,2.684156494140625,0.10338687896728516,-0.2275235652923584,-0.013451498001813889
1683129947798993700,2.70199365234375,-0.12894248962402344,0.28559792041778564,-0.042325567454099655
1683129947816831700,2.719831787109375,0.18788719177246094,-0.39281368255615234,0.11414223164319992
1683129947834664200,2.737664306640625,-0.1150827407836914,0.31446313858032227,-0.15140682458877563
1683129947852511700,2.75551171875,0.044142723083496094,-0.38594257831573486,0.145530104637146
1683129947870346800,2.7733466796875,-0.07867050170898438,0.05970466136932373,-0.17660357058048248
1683129947888185300,2.791185302734375,-0.018083572387695312,-0.11388123035430908,0.15164518356323242
1683129947906018600,2.8090185546875,0.044974327087402344,-0.15513849258422852,-0.05213569849729538
1683129947923857700,2.826857666015625,-0.09468460083007812,0.2264195680618286,-0.002457205206155777
1683129947941698000,2.844697998046875,0.20448875427246094,-0.3574185371398926,0.10011821985244751
1683129947959536400,2.862536376953125,-0.16449356079101562,0.3018152713775635,-0.1464548259973526
1683129947977376500,2.88037646484375,0.10954475402832031,-0.4160447120666504,0.11185871809720993
1683129947995214800,2.89821484375,-0.13182353973388672,0.14755284786224365,-0.1637919694185257
1683129948013053000,2.916052978515625,-0.049239158630371094,-0.18020033836364746,0.1821056604385376
1683129948030894000,2.93389404296875,0.06323623657226562,-0.13806307315826416,-0.09061041474342346
1683129948048729900,2.951729736328125,-0.042677879333496094,0.21760976314544678,0.021217651665210724
1683129948066570800,2.96957080078125,0.1481771469116211,-0.3501030206680298,0.07100849598646164
1683129948084406000,2.987406005859375,-0.17988872528076172,0.317172646522522,-0.12286335229873657
1683129948102245600,3.00524560546875,0.1459341049194336,-0.4377082586288452,0.11175791919231415
1683129948120082400,3.02308251953125,-0.1451396942138672,0.19253778457641602,-0.13421522080898285
1683129948137908700,3.04090869140625,-0.027182579040527344,-0.2219867706298828,0.19703978300094604
1683129948155746000,3.05874609375,0.024657249450683594,-0.11631107330322266,-0.12313123792409897
1683129948173594600,3.0765947265625,-0.08624458312988281,0.15710723400115967,0.012518242001533508
1683129948191435800,3.094435791015625,0.16804790496826172,-0.35080575942993164,0.06256728619337082
1683129948209277000,3.11227685546875,-0.1591320037841797,0.2946491241455078,-0.12081792950630188
1683129948227105000,3.13010498046875,0.12371826171875,-0.4578166604042053,0.12281982600688934
1683129948244950800,3.14795068359375,-0.11819267272949219,0.23595809936523438,-0.1322391927242279
1683129948262777000,3.165777099609375,0.0019016265869140625,-0.23265409469604492,0.19725576043128967
1683129948280627000,3.183626953125,0.0057964324951171875,-0.05695080757141113,-0.14576420187950134
1683129948298462200,3.201462158203125,-0.09923839569091797,0.1725301742553711,0.05867046117782593
1683129948316303600,3.2193037109375,0.14233875274658203,-0.3213376998901367,0.08110687881708145
1683129948334141400,3.237141357421875,-0.10894966125488281,0.30290937423706055,-0.11419820785522461
1683129948351978800,3.254978759765625,0.14038753509521484,-0.44717133045196533,0.1001284196972847
1683129948369818600,3.272818603515625,-0.12407970428466797,0.2254267930984497,-0.1387452930212021
1683129948387656700,3.29065673828125,-0.024094581604003906,-0.24957454204559326,0.18954195082187653
1683129948405495600,3.30849560546875,0.027779579162597656,-0.07948195934295654,-0.15829390287399292
1683129948423334100,3.326334228515625,-0.11555767059326172,0.16419947147369385,0.06991620361804962
1683129948441171500,3.34417138671875,0.15703296661376953,-0.3056058883666992,0.08389713615179062
1683129948459009800,3.362009765625,-0.12723922729492188,0.29120898246765137,-0.13798069953918457
1683129948476836000,3.379836181640625,0.1165170669555664,-0.4416298270225525,0.08977697044610977
1683129948494674400,3.39767431640625,-0.113433837890625,0.23945963382720947,-0.12412065267562866
1683129948512526600,3.415526611328125,0.009139060974121094,-0.239754319190979,0.1834980845451355
1683129948530363000,3.43336279296875,-0.049902915954589844,-0.07232558727264404,-0.16301941871643066
1683129948548200200,3.4512001953125,-0.07584571838378906,0.14479458332061768,0.07521924376487732
1683129948566039600,3.46903955078125,0.18362045288085938,-0.26872456073760986,0.09515678882598877
1683129948583874000,3.4868740234375,-0.13486957550048828,0.2780252695083618,-0.12501686811447144
1683129948601718000,3.504718017578125,0.14363479614257812,-0.4341236352920532,0.09866753220558167
1683129948619557400,3.522557373046875,-0.13983535766601562,0.2338554859161377,-0.12181385606527328
1683129948637393200,3.54039306640625,0.022950172424316406,-0.28729844093322754,0.18076491355895996
1683129948655231200,3.558231201171875,-0.013972282409667969,-0.07634139060974121,-0.17520354688167572
1683129948673055000,3.576054931640625,-0.09366035461425781,0.1465611457824707,0.07425573468208313
1683129948690907600,3.59390771484375,0.15766048431396484,-0.2919827699661255,0.09268331527709961
1683129948708734500,3.611734375,-0.13225555419921875,0.2833789587020874,-0.11989295482635498
1683129948726584000,3.629583984375,0.13500499725341797,-0.4335591793060303,0.11310428380966187
1683129948744425000,3.647425048828125,-0.1311330795288086,0.23325908184051514,-0.1326214224100113
1683129948762260500,3.665260498046875,0.009797096252441406,-0.29240381717681885,0.1595691293478012
1683129948780098800,3.683098876953125,-0.03638648986816406,-0.07701361179351807,-0.17178955674171448
1683129948797932300,3.700932373046875,-0.1028127670288086,0.11983227729797363,0.08745186030864716
1683129948815764200,3.71876416015625,0.13322925567626953,-0.2876993417739868,0.07853071391582489
1683129948833616400,3.736616455078125,-0.1088266372680664,0.31327176094055176,-0.11643712222576141
1683129948851453000,3.754452880859375,0.1418743133544922,-0.4326319098472595,0.10682912170886993
1683129948869290200,3.772290283203125,-0.15384960174560547,0.25164854526519775,-0.12705236673355103
1683129948887128300,3.79012841796875,0.047875404357910156,-0.2801777124404907,0.14906775951385498
1683129948904966700,3.807966552734375,-0.05046367645263672,-0.08123743534088135,-0.1792370229959488
1683129948922806800,3.825806884765625,-0.1314077377319336,0.1269298791885376,0.0663599744439125
1683129948940644600,3.84364453125,0.17103958129882812,-0.2958742380142212,0.0914689153432846
1683129948958474800,3.861474853515625,-0.14010143280029297,0.2944619655609131,-0.11098544299602509
1683129948976317400,3.8793173828125,0.12017345428466797,-0.41899657249450684,0.10667453706264496
1683129948994152200,3.897152099609375,-0.1395111083984375,0.2487807273864746,-0.1235896646976471
1683129949011996200,3.91499609375,0.048137664794921875,-0.29498279094696045,0.15062928199768066
1683129949029834800,3.932834716796875,-0.05090045928955078,-0.04735922813415527,-0.15269698202610016
1683129949047658200,3.950658203125,-0.12774944305419922,0.13554668426513672,0.04861320182681084
1683129949065511400,3.968511474609375,0.13746356964111328,-0.3169670104980469,0.08681987971067429
1683129949083349500,3.986349609375,-0.15464401245117188,0.3188823461532593,-0.10246235132217407
1683129949101187800,4.004187744140625,0.12547683715820312,-0.426971435546875,0.10625267028808594
1683129949119026200,4.022026123046875,-0.14184188842773438,0.2560783624649048,-0.1422450840473175
1683129949136864500,4.039864501953125,0.01657867431640625,-0.288846492767334,0.14906342327594757
1683129949154705400,4.057705322265625,-0.038916587829589844,-0.06188809871673584,-0.14719247817993164
1683129949172543700,4.075543701171875,-0.11698627471923828,0.10839056968688965,0.03713509812951088
1683129949190379000,4.09337890625,0.16002845764160156,-0.3297426700592041,0.09615617990493774
1683129949208217900,4.1112177734375,-0.17179584503173828,0.33625495433807373,-0.0959431380033493
1683129949226053000,4.12905322265625,0.09592533111572266,-0.4205451011657715,0.10819416493177414
1683129949243883300,4.14688330078125,-0.1294393539428711,0.24467182159423828,-0.1370643675327301
1683129949261721000,4.16472119140625,0.03653907775878906,-0.2649726867675781,0.15483585000038147
1683129949279570200,4.182570068359375,-0.034816741943359375,-0.037185072898864746,-0.1477735936641693
1683129949297411800,4.200411865234375,-0.14190006256103516,0.14342546463012695,0.0335262231528759
1683129949315242500,4.218242431640625,0.18836212158203125,-0.3222215175628662,0.09666185081005096
1683129949333083000,4.236082763671875,-0.14149093627929688,0.3400990962982178,-0.07937666773796082
1683129949350924000,4.253924072265625,0.10528755187988281,-0.4021875858306885,0.13031607866287231
1683129949368763400,4.271763427734375,-0.15357589721679688,0.24930763244628906,-0.1363876312971115
1683129949386600200,4.28960009765625,0.023561477661132812,-0.28579676151275635,0.1426168978214264
1683129949404435700,4.307435791015625,-0.039025306701660156,-0.04788947105407715,-0.12781992554664612
1683129949422277000,4.325277099609375,-0.12919235229492188,0.12171649932861328,0.04460946470499039
1683129949440117500,4.343117431640625,0.14745426177978516,-0.3563927412033081,0.10037244111299515
1683129949457956400,4.360956298828125,-0.17622947692871094,0.33223676681518555,-0.08436425775289536
1683129949475792000,4.3787919921875,0.13058853149414062,-0.39834892749786377,0.12422588467597961
1683129949493630200,4.396630126953125,-0.13802528381347656,0.2201993465423584,-0.13069894909858704
1683129949511454700,4.414454833984375,0.01592540740966797,-0.27986180782318115,0.15914714336395264
1683129949529297000,4.432296875,0.0015592575073242188,-0.05060446262359619,-0.1332325041294098
1683129949547142000,4.450141845703125,-0.14286231994628906,0.10674929618835449,0.03428961709141731
1683129949564977400,4.467977294921875,0.13811683654785156,-0.3535038232803345,0.08285456895828247
1683129949582821600,4.485821533203125,-0.16614055633544922,0.3383427858352661,-0.07232517004013062
1683129949600661500,4.50366162109375,0.11228275299072266,-0.39071476459503174,0.11347195506095886
1683129949618497800,4.521497802734375,-0.14192962646484375,0.24275696277618408,-0.15056690573692322
1683129949636330200,4.539330322265625,0.05128955841064453,-0.2902243137359619,0.15233305096626282
1683129949654172400,4.55717236328125,-0.033684730529785156,-0.026284337043762207,-0.13430023193359375
1683129949672016100,4.57501611328125,-0.15972614288330078,0.0938183069229126,0.02586311474442482
1683129949689847000,4.592846923828125,0.16083812713623047,-0.37500572204589844,0.07126282155513763
1683129949707689200,4.610689208984375,-0.1769237518310547,0.34819042682647705,-0.07517991960048676
1683129949725515800,4.628515869140625,0.08617019653320312,-0.38728809356689453,0.1272362470626831
1683129949743353300,4.646353271484375,-0.1344461441040039,0.23979878425598145,-0.1431296318769455
1683129949761202700,4.66420263671875,0.03826904296875,-0.27149319648742676,0.16237756609916687
1683129949779042300,4.682042236328125,-0.06996345520019531,-0.02733004093170166,-0.1568089723587036
1683129949796881000,4.699880859375,-0.12991619110107422,0.07016026973724365,0.028692342340946198
1683129949814705200,4.717705078125,0.1650838851928711,-0.3561360836029053,0.07197963446378708
1683129949832558600,4.73555859375,-0.18922901153564453,0.35605084896087646,-0.05068465322256088
1683129949850395600,4.753395751953125,0.12288475036621094,-0.36993956565856934,0.13032549619674683
1683129949868233000,4.77123291015625,-0.13495635986328125,0.26688647270202637,-0.1514008641242981
1683129949886070300,4.7890703125,0.038773536682128906,-0.2829751968383789,0.17268246412277222
1683129949903910000,4.806909912109375,-0.07552146911621094,0.017352581024169922,-0.1640624850988388
1683129949921745200,4.8247451171875,-0.15071678161621094,0.037247300148010254,0.023316871374845505
1683129949939587300,4.84258740234375,0.12133979797363281,-0.33159971237182617,0.055323775857686996
1683129949957408500,4.860408447265625,-0.1899728775024414,0.3399064540863037,-0.03969794884324074
1683129949975261200,4.87826123046875,0.14818954467773438,-0.3716554641723633,0.1330854892730713
1683129949993102300,4.896102294921875,-0.10753345489501953,0.27161312103271484,-0.15411436557769775
1683129950010940200,4.913940185546875,0.039175987243652344,-0.30130136013031006,0.16171398758888245
1683129950028778800,4.93177880859375,-0.043735504150390625,0.019649028778076172,-0.19193261861801147
1683129950046617000,4.9496171875,-0.11063098907470703,-0.004858255386352539,0.07977534085512161
1683129950064455200,4.967455078125,0.062084197998046875,-0.26301896572113037,0.028231536969542503
1683129950082294300,4.985294189453125,-0.16310691833496094,0.3205440044403076,-0.02689129114151001
1683129950100136200,5.00313623046875,0.18038463592529297,-0.37246668338775635,0.1226663887500763
1683129950117970200,5.02097021484375,-0.1410512924194336,0.2770305871963501,-0.13107366859912872
1683129950135808500,5.03880859375,0.07432746887207031,-0.32732832431793213,0.157443106174469
1683129950153647600,5.056647705078125,-0.08774280548095703,0.051511287689208984,-0.1903059035539627
1683129950171474200,5.07447412109375,-0.13468551635742188,-0.11537373065948486,0.0974978357553482
1683129950189328100,5.092328125,0.05375099182128906,-0.2090517282485962,-0.010765299201011658
1683129950207157000,5.110156982421875,-0.13315296173095703,0.29821503162384033,0.01044122502207756
1683129950224999400,5.12799951171875,0.1900768280029297,-0.3747899532318115,0.12642161548137665
1683129950242838000,5.145838134765625,-0.1610879898071289,0.31618762016296387,-0.13439133763313293
1683129950260675600,5.163675537109375,0.09076499938964844,-0.3345080614089966,0.09703674912452698
1683129950278514700,5.1815146484375,-0.12478446960449219,0.09363341331481934,-0.18879416584968567
1683129950296352800,5.199352783203125,-0.06402969360351562,-0.16746878623962402,0.13854773342609406
1683129950314194000,5.21719384765625,0.02415752410888672,-0.14643633365631104,-0.06440562009811401
1683129950332031200,5.23503125,-0.1090402603149414,0.2885768413543701,0.02975166216492653
1683129950349867800,5.25286767578125,0.20764732360839844,-0.3638138771057129,0.0919603556394577
1683129950367694300,5.2706943359375,-0.17583179473876953,0.3371312618255615,-0.12478144466876984
1683129950385536800,5.288536865234375,0.10366630554199219,-0.4063624143600464,0.08910681307315826
1683129950403380500,5.30638037109375,-0.138885498046875,0.15553796291351318,-0.15136489272117615
1683129950421220900,5.324220947265625,-0.05895709991455078,-0.185766339302063,0.17825865745544434
1683129950439059500,5.3420595703125,-0.0013055801391601562,-0.16327548027038574,-0.09377658367156982
1683129950456897500,5.3598974609375,-0.13093852996826172,0.2549622058868408,-0.0020531490445137024
1683129950474736400,5.377736328125,0.1920309066772461,-0.391959547996521,0.08099567890167236
1683129950492574500,5.395574462890625,-0.17962074279785156,0.33448588848114014,-0.09077697992324829
1683129950510413300,5.413413330078125,0.11341571807861328,-0.40846312046051025,0.0774545967578888
1683129950528253400,5.43125341796875,-0.13642597198486328,0.19173085689544678,-0.13848084211349487
1683129950546086100,5.449086181640625,-0.008352279663085938,-0.2238166332244873,0.18889223039150238
1683129950563923700,5.466923828125,-0.02291584014892578,-0.07886683940887451,-0.11698766052722931
1683129950581764000,5.48476416015625,-0.14537429809570312,0.21471261978149414,0.015348207205533981
1683129950599592000,5.502592041015625,0.1797504425048828,-0.34316956996917725,0.07930117845535278
1683129950617442000,5.520442138671875,-0.18011951446533203,0.33466923236846924,-0.10597183555364609
1683129950635281400,5.538281494140625,0.14074230194091797,-0.4342132806777954,0.07641555368900299
1683129950653117700,5.55611767578125,-0.1324901580810547,0.21766304969787598,-0.12967827916145325
1683129950670954200,5.573954345703125,0.0012617111206054688,-0.23879015445709229,0.16633060574531555
1683129950688795400,5.59179541015625,-0.04470062255859375,-0.06382107734680176,-0.10873568058013916
1683129950706633700,5.6096337890625,-0.12987041473388672,0.2055046558380127,0.03604337200522423
1683129950724472300,5.627472412109375,0.1748943328857422,-0.3497692346572876,0.099941685795784
1683129950742310000,5.645309814453125,-0.18239974975585938,0.3290438652038574,-0.10511035472154617
1683129950760148700,5.663148681640625,0.12790393829345703,-0.41871947050094604,0.09248287975788116
1683129950777987000,5.680987060546875,-0.12648391723632812,0.20781302452087402,-0.13882167637348175
1683129950795813600,5.698813720703125,-0.021612167358398438,-0.24439823627471924,0.16430610418319702
1683129950813652200,5.71665234375,-0.0350799560546875,-0.09884393215179443,-0.16588187217712402
1683129950831503400,5.73450341796875,-0.13083934783935547,0.1799156665802002,0.03454659506678581
1683129950849340700,5.752340576171875,0.1633625030517578,-0.3474963903427124,0.09721729904413223
1683129950867178500,5.770178466796875,-0.15519046783447266,0.32721853256225586,-0.0844465047121048
1683129950885019400,5.788019287109375,0.14593982696533203,-0.3965277671813965,0.0886402428150177
1683129950902858000,5.80585791015625,-0.1526784896850586,0.2063380479812622,-0.13073554635047913
1683129950920696300,5.8236962890625,0.046013832092285156,-0.2647521495819092,0.1744491159915924
1683129950938532900,5.841532958984375,-0.03139305114746094,-0.05309140682220459,-0.1320587396621704
1683129950956368600,5.85936865234375,-0.15388011932373047,0.15920960903167725,0.047500431537628174
1683129950974203100,5.877203125,0.14157676696777344,-0.3113783597946167,0.10057102888822556
1683129950992043500,5.89504345703125,-0.15409469604492188,0.334112286567688,-0.09091422706842422
1683129951009882400,5.91288232421875,0.1360330581665039,-0.4085702896118164,0.10362613946199417
1683129951027711500,5.93071142578125,-0.11364459991455078,0.23776578903198242,-0.12335788458585739
1683129951045560300,5.948560302734375,0.004276275634765625,-0.264867901802063,0.16581693291664124
1683129951063400000,5.96639990234375,-0.05875873565673828,-0.06375384330749512,-0.14876244962215424
1683129951081238300,5.98423828125,-0.14257335662841797,0.13980865478515625,0.02639036253094673
1683129951099076400,6.002076416015625,0.13825702667236328,-0.3297775983810425,0.08793393522500992
1683129951116914700,6.019914794921875,-0.16233348846435547,0.33655548095703125,-0.09822523593902588
1683129951134752800,6.037752685546875,0.1278209686279297,-0.3846724033355713,0.1158352866768837
1683129951152594000,6.055593994140625,-0.10866928100585938,0.24953484535217285,-0.11472375690937042
1683129951170433500,6.07343359375,0.029242515563964844,-0.2812025547027588,0.1417570859193802
1683129951188265000,6.091264892578125,-0.05750083923339844,-0.050024986267089844,-0.16238585114479065
1683129951206106000,6.109106201171875,-0.1462383270263672,0.12524425983428955,0.02192898467183113
1683129951223939800,6.12693994140625,0.10080337524414062,-0.3608872890472412,0.08423049002885818
1683129951241769200,6.144769287109375,-0.17445659637451172,0.3356882333755493,-0.08818107843399048
1683129951259609300,6.162609375,0.13777446746826172,-0.3976782560348511,0.10687464475631714
1683129951277448200,6.1804482421875,-0.13441753387451172,0.2328505516052246,-0.12105152010917664
1683129951295296000,6.1982958984375,0.004481315612792969,-0.22814428806304932,0.15777799487113953
1683129951313135900,6.216135986328125,-0.03888130187988281,-0.03800380229949951,-0.12912538647651672
1683129951330974200,6.23397412109375,-0.1497640609741211,0.10685694217681885,0.01983073726296425
1683129951348812800,6.251812744140625,0.11653900146484375,-0.3418715000152588,0.09780588746070862
1683129951366646000,6.26964599609375,-0.14362621307373047,0.37358546257019043,-0.07720453292131424
1683129951384486400,6.287486328125,0.12063789367675781,-0.3798867464065552,0.10950997471809387
1683129951402327600,6.30532763671875,-0.13356971740722656,0.2398127317428589,-0.12838491797447205
1683129951420166100,6.323166259765625,0.025644302368164062,-0.26717710494995117,0.14656394720077515
1683129951438004200,6.341004150390625,-0.05725860595703125,-0.07391321659088135,-0.14949873089790344
1683129951455845600,6.358845703125,-0.1804485321044922,0.13568639755249023,-0.0019011162221431732
1683129951473681000,6.376680908203125,0.10326576232910156,-0.3889559507369995,0.07918316125869751
1683129951491516000,6.394515869140625,-0.17818737030029297,0.3553053140640259,-0.06323104351758957
1683129951509347800,6.412347900390625,0.12474250793457031,-0.3671325445175171,0.11541419476270676
1683129951527196000,6.43019580078125,-0.11314678192138672,0.2187286615371704,-0.12621967494487762
1683129951545034200,6.4480341796875,0.007100105285644531,-0.22681283950805664,0.17820405960083008
1683129951562873300,6.465873291015625,-0.045561790466308594,-0.02430129051208496,-0.11895070225000381
1683129951580698400,6.483698486328125,-0.16571807861328125,0.13634133338928223,-0.0028141848742961884
1683129951598549200,6.50154931640625,0.1216421127319336,-0.37278831005096436,0.09808476269245148
1683129951616382500,6.519382568359375,-0.1811847686767578,0.39947354793548584,-0.049928341060876846
1683129951634225400,6.537225341796875,0.10780906677246094,-0.33319342136383057,0.13109904527664185
1683129951652063700,6.555063720703125,-0.12682819366455078,0.2064882516860962,-0.14227241277694702
1683129951669899500,6.5728994140625,0.021453857421875,-0.2206515073776245,0.15900903940200806
1683129951687740400,6.590740478515625,-0.027268409729003906,-0.054062485694885254,-0.13007661700248718
1683129951705576000,6.608575927734375,-0.18619251251220703,0.1322031021118164,-0.027557827532291412
1683129951723419100,6.626419189453125,0.09166336059570312,-0.4113891124725342,0.10577645897865295
1683129951741255700,6.644255615234375,-0.218170166015625,0.36259496212005615,-0.04067675769329071
1683129951759093800,6.66209375,0.11229228973388672,-0.3410087823867798,0.11181377619504929
1683129951776935200,6.67993505859375,-0.12199592590332031,0.2001655101776123,-0.13971519470214844
1683129951794767000,6.69776708984375,0.00395965576171875,-0.21520447731018066,0.1906280517578125
1683129951812607700,6.715607666015625,-0.022306442260742188,-0.04372513294219971,-0.09444093704223633
1683129951830447000,6.733447021484375,-0.18974018096923828,0.13984668254852295,-0.03241739049553871
1683129951848285400,6.751285400390625,0.1081838607788086,-0.4005378484725952,0.09178942441940308
1683129951866126600,6.769126708984375,-0.23189067840576172,0.3841841220855713,-0.06426235288381577
1683129951883958300,6.786958251953125,0.09997081756591797,-0.34289371967315674,0.10494443029165268
1683129951901803500,6.804803466796875,-0.1031484603881836,0.18981289863586426,-0.13070356845855713
1683129951919638800,6.822638671875,0.012303352355957031,-0.19403791427612305,0.1802375614643097
1683129951937475000,6.84047509765625,-0.033713340759277344,-0.05474269390106201,-0.10083183646202087
1683129951955315200,6.858315185546875,-0.19989681243896484,0.13802683353424072,-0.04904130473732948
1683129951973153500,6.876153564453125,0.11182594299316406,-0.4074723720550537,0.09204807877540588
1683129951990992100,6.8939921875,-0.2171010971069336,0.3792688846588135,-0.05141095817089081
1683129952008824600,6.911824462890625,0.09533882141113281,-0.34381425380706787,0.12532319128513336
1683129952026656300,6.92965625,-0.11935997009277344,0.20247244834899902,-0.1339675784111023
1683129952044505900,6.947505859375,0.02635955810546875,-0.17166519165039062,0.17424985766410828
1683129952062344000,6.965343994140625,-0.06819343566894531,-0.0321120023727417,-0.09847792983055115
1683129952080183600,6.98318359375,-0.18477821350097656,0.14589440822601318,-0.04134535416960716
1683129952098021600,7.001021728515625,0.09971904754638672,-0.4176256060600281,0.1092311441898346
1683129952115857200,7.018857177734375,-0.24026775360107422,0.3848186731338501,-0.05282453075051308
1683129952133699800,7.036699951171875,0.09694576263427734,-0.3117070198059082,0.13887695968151093
1683129952151538400,7.054538330078125,-0.1091318130493164,0.18419623374938965,-0.15785780549049377
1683129952169375000,7.072375,0.06704902648925781,-0.1681758165359497,0.18304039537906647
1683129952187213300,7.09021337890625,-0.049922943115234375,-0.025147199630737305,-0.10487277060747147
1683129952205039900,7.108039794921875,-0.2135753631591797,0.12208807468414307,-0.058124229311943054
1683129952222890000,7.125889892578125,0.11383247375488281,-0.427423357963562,0.08096139878034592
1683129952240724500,7.143724365234375,-0.2123403549194336,0.4016737937927246,-0.06019273400306702
1683129952258563800,7.161563720703125,0.07832622528076172,-0.3271418809890747,0.13887327909469604
1683129952276405000,7.179405029296875,-0.09570884704589844,0.1957153081893921,-0.13149261474609375
1683129952294243000,7.1972431640625,0.039132118225097656,-0.1376558542251587,0.1985342800617218
1683129952312080400,7.215080322265625,-0.04075050354003906,-0.0483098030090332,-0.11200207471847534
1683129952329920300,7.232920166015625,-0.19009780883789062,0.13332271575927734,-0.04604630172252655
1683129952347755300,7.25075537109375,0.10360145568847656,-0.42282456159591675,0.0864989385008812
1683129952365597200,7.26859716796875,-0.2266826629638672,0.3771156072616577,-0.05014016106724739
1683129952383434000,7.28643408203125,0.09339237213134766,-0.3255571126937866,0.1452430635690689
1683129952401274400,7.3042744140625,-0.09963512420654297,0.2012317180633545,-0.11456266790628433
1683129952419111400,7.322111328125,0.07477283477783203,-0.1562880277633667,0.19112974405288696
1683129952436938200,7.339938232421875,-0.008758544921875,-0.007088184356689453,-0.11089159548282623
1683129952454785000,7.357784912109375,-0.1869974136352539,0.07336103916168213,-0.048416439443826675
1683129952472626400,7.37562646484375,0.10858821868896484,-0.3993493318557739,0.08646899461746216
1683129952490464000,7.393464111328125,-0.21835994720458984,0.3997924327850342,-0.05125957727432251
1683129952508303400,7.411303466796875,0.08150386810302734,-0.35789716243743896,0.14693856239318848
1683129952526141200,7.42914111328125,-0.10481452941894531,0.22679388523101807,-0.12185751646757126
1683129952543982300,7.446982421875,0.08324718475341797,-0.17419672012329102,0.20329596102237701
1683129952561819000,7.46481884765625,-0.03859138488769531,0.022171974182128906,-0.14386704564094543
1683129952579659800,7.48265966796875,-0.16054248809814453,0.041211485862731934,-0.01927102357149124
1683129952597495000,7.5004951171875,0.12501239776611328,-0.38765084743499756,0.05857737362384796
1683129952615333400,7.51833349609375,-0.2340240478515625,0.3847271203994751,-0.03695707395672798
1683129952633170200,7.536170166015625,0.10291385650634766,-0.38546836376190186,0.1298040896654129
1683129952650995700,7.55399560546875,-0.0699758529663086,0.24287927150726318,-0.09776632487773895
1683129952668848000,7.57184814453125,0.053333282470703125,-0.18905365467071533,0.2146306037902832
1683129952686688000,7.58968798828125,-0.06755447387695312,0.007472515106201172,-0.16173310577869415
1683129952704521200,7.607521240234375,-0.10091495513916016,0.018196702003479004,-0.002313368022441864
1683129952722363100,7.625363037109375,0.064910888671875,-0.3153284788131714,0.044900067150592804
1683129952740201500,7.643201416015625,-0.2535362243652344,0.34026098251342773,-0.0578213632106781
1683129952758039600,7.66103955078125,0.18271160125732422,-0.375699520111084,0.15132960677146912
1683129952775872300,7.678872314453125,-0.1417684555053711,0.2916322946548462,-0.08622357994318008
1683129952793714000,7.6967138671875,0.07664966583251953,-0.23581969738006592,0.1913817673921585
1683129952811552000,7.714552001953125,-0.038097381591796875,0.054335951805114746,-0.19335252046585083
1683129952829394700,7.732394775390625,-0.12432289123535156,-0.05385720729827881,0.03611770644783974
1683129952847234300,7.750234375,0.04357433319091797,-0.24882078170776367,-0.004564706236124039
1683129952865069600,7.768069580078125,-0.2047719955444336,0.34236109256744385,-0.03799942880868912
1683129952882908200,7.785908203125,0.13651371002197266,-0.3976273536682129,0.14203393459320068
1683129952900747500,7.80374755859375,-0.19233036041259766,0.3325459957122803,-0.08800826966762543
1683129952918585600,7.821585693359375,0.11415767669677734,-0.27178239822387695,0.1183059960603714
1683129952936421000,7.839421142578125,-0.10299873352050781,0.05526316165924072,-0.2108844518661499
1683129952954255400,7.85725537109375,-0.11621952056884766,-0.07669734954833984,0.11199647188186646
1683129952972099600,7.875099609375,0.00165557861328125,-0.19189023971557617,-0.03908705338835716
1683129952989924400,7.89292431640625,-0.19949913024902344,0.3160442113876343,-0.0405292771756649
1683129953007760100,7.910760009765625,0.16653728485107422,-0.39871060848236084,0.12461620569229126
1683129953025611300,7.928611328125,-0.17936992645263672,0.37296438217163086,-0.05092965438961983
1683129953043453200,7.946453125,0.1400432586669922,-0.2914317846298218,0.0971640795469284
1683129953061291500,7.96429150390625,-0.12795448303222656,0.09560716152191162,-0.17702844738960266
1683129953079129600,7.982129638671875,-0.009844779968261719,-0.14782392978668213,0.1634187251329422
1683129953096967700,7.9999677734375,-0.018431663513183594,-0.14270365238189697,-0.055128633975982666
1683129953114809300,8.017809326171875,-0.2238483428955078,0.2790515422821045,-0.05464128777384758
1683129953132640500,8.035640625,0.18543052673339844,-0.39870262145996094,0.1010245531797409
1683129953150481200,8.053481201171875,-0.23271751403808594,0.39384377002716064,-0.04760380834341049
1683129953168321300,8.0713212890625,0.12729167938232422,-0.3270148038864136,0.09257131814956665
1683129953186159600,8.08915966796875,-0.1224355697631836,0.14897632598876953,-0.1729908287525177
1683129953203986200,8.106986083984374,-0.007391929626464844,-0.17394602298736572,0.15833036601543427
1683129953221836800,8.1248369140625,-0.04624748229980469,-0.09977996349334717,-0.08480000495910645
1683129953239675000,8.1426748046875,-0.18726348876953125,0.22234058380126953,-0.031591467559337616
1683129953257514800,8.1605146484375,0.15582275390625,-0.41409432888031006,0.11988311260938644
1683129953275339300,8.17833935546875,-0.22859859466552734,0.3787447214126587,-0.037928253412246704
1683129953293177600,8.196177490234374,0.1358966827392578,-0.34484565258026123,0.10129805654287338
1683129953311031000,8.214031005859376,-0.09221363067626953,0.17987048625946045,-0.1565266102552414
1683129953328863500,8.231863525390626,0.007531166076660156,-0.21897268295288086,0.18426774442195892
1683129953346700000,8.249699951171875,-0.03560161590576172,-0.054531097412109375,-0.10040555894374847
1683129953364531000,8.267531005859375,-0.1713104248046875,0.18111467361450195,-0.02791959047317505
1683129953382381300,8.28538134765625,0.1011190414428711,-0.39037513732910156,0.10447316616773605
1683129953400219600,8.3032197265625,-0.21032142639160156,0.38435065746307373,-0.06803907454013824
1683129953418058200,8.321058349609375,0.1386709213256836,-0.33360111713409424,0.12940889596939087
1683129953435896300,8.338896240234375,-0.12897968292236328,0.20455098152160645,-0.1348513960838318
1683129953453735000,8.35673486328125,0.034397125244140625,-0.20434176921844482,0.16691365838050842
1683129953471577300,8.374577392578125,-0.039096832275390625,-0.04441642761230469,-0.1303785890340805
1683129953489412000,8.392412109375,-0.17534637451171875,0.12267613410949707,-0.006475858390331268
1683129953507251000,8.4102509765625,0.10423755645751953,-0.3725879192352295,0.09330248832702637
1683129953525088000,8.428087890625,-0.21328163146972656,0.3914719820022583,-0.05993591994047165
1683129953542927400,8.44592724609375,0.11513519287109375,-0.3359643220901489,0.13026268780231476
1683129953560753000,8.4637529296875,-0.10976696014404297,0.24140584468841553,-0.14053386449813843
1683129953578590200,8.481590087890625,0.019583702087402344,-0.21148991584777832,0.16312536597251892
1683129953596433700,8.49943359375,-0.05119514465332031,-0.03639876842498779,-0.15227487683296204
1683129953614277600,8.517277587890625,-0.17178821563720703,0.11463356018066406,-0.015812166035175323
1683129953632118000,8.535117919921875,0.09203720092773438,-0.3835703134536743,0.09624875336885452
1683129953649956600,8.55295654296875,-0.1850900650024414,0.3894442319869995,-0.05718587711453438
1683129953667790000,8.5707900390625,0.11128616333007812,-0.3390082120895386,0.11038978397846222
1683129953685633300,8.58863330078125,-0.11297607421875,0.2433631420135498,-0.12308688461780548
1683129953703471900,8.606471923828124,0.02406787872314453,-0.20029497146606445,0.17965422570705414
1683129953721313000,8.62431298828125,-0.032828330993652344,-0.005912065505981445,-0.14334625005722046
1683129953739148000,8.64214794921875,-0.18182659149169922,0.0875999927520752,-0.020542286336421967
1683129953756986400,8.659986328125,0.0689535140991211,-0.37914788722991943,0.07372012734413147
1683129953774825000,8.677824951171875,-0.19105815887451172,0.3872063159942627,-0.05938810482621193
1683129953792650200,8.695650146484375,0.10042095184326172,-0.34113597869873047,0.12959907948970795
1683129953810509600,8.713509521484376,-0.09569644927978516,0.229331374168396,-0.12851372361183167
1683129953828348200,8.73134814453125,0.06531047821044922,-0.20444560050964355,0.17802073061466217
1683129953846178600,8.749178466796875,-0.07153606414794922,0.012557148933410645,-0.1470436453819275
1683129953864006100,8.767006103515625,-0.18436908721923828,0.08540856838226318,-0.009607873857021332
1683129953881855000,8.78485498046875,0.07871818542480469,-0.37347412109375,0.06504592299461365
1683129953899684400,8.802684326171875,-0.1779613494873047,0.39867138862609863,-0.034818265587091446
1683129953917526800,8.82052685546875,0.11003971099853516,-0.3543245792388916,0.12909896671772003
1683129953935370200,8.838370361328124,-0.11091136932373047,0.2470763921737671,-0.1409904509782791
1683129953953208300,8.856208251953126,0.08525943756103516,-0.225510835647583,0.17798225581645966
1683129953971051000,8.874051025390624,-0.03564929962158203,0.04593801498413086,-0.17186647653579712
1683129953988885200,8.89188525390625,-0.2002878189086914,0.03915905952453613,0.002864774316549301
1683129954006723000,8.90972314453125,0.08814144134521484,-0.3601408004760742,0.041870951652526855
1683129954024564000,8.92756396484375,-0.1714315414428711,0.37767493724823,-0.028243813663721085
1683129954042395600,8.945395751953125,0.07673168182373047,-0.35963213443756104,0.14216762781143188
1683129954060238300,8.96323828125,-0.12773799896240234,0.2645752429962158,-0.11477886140346527
1683129954078076700,8.98107666015625,0.11053943634033203,-0.2382206916809082,0.18245282769203186
1683129954095912200,8.998912109375,-0.061102867126464844,0.03076183795928955,-0.16948302090168
1683129954113752000,9.016751953125,-0.1548318862915039,-0.008180618286132812,0.027331646531820297
1683129954131591700,9.034591796875,0.07156753540039062,-0.2754647731781006,0.02754485420882702
1683129954149430000,9.052429931640624,-0.21219921112060547,0.3445131778717041,-0.02685539424419403
1683129954167268400,9.070268310546876,0.14855384826660156,-0.3753715753555298,0.1224948987364769
1683129954185103400,9.088103271484375,-0.0933980941772461,0.3025559186935425,-0.10576772689819336
1683129954202945000,9.105945068359375,0.08958053588867188,-0.2791299819946289,0.1550557017326355
1683129954220780500,9.123780517578124,-0.0805521011352539,0.04546654224395752,-0.182287335395813
1683129954238622000,9.1416220703125,-0.10794258117675781,-0.07843482494354248,0.07408846914768219
1683129954256460000,9.1594599609375,0.02381134033203125,-0.2097768783569336,-0.020491745322942734
1683129954274298400,9.17729833984375,-0.1619396209716797,0.3211320638656616,-0.028438415378332138
1683129954292125200,9.195125244140625,0.17807579040527344,-0.3851194381713867,0.13404172658920288
1683129954309972200,9.21297216796875,-0.1263580322265625,0.3341892957687378,-0.10025672614574432
1683129954327813000,9.230813232421875,0.14867496490478516,-0.28804683685302734,0.11052589118480682
1683129954345651700,9.248651611328125,-0.15557384490966797,0.06806862354278564,-0.17429088056087494
1683129954363488800,9.26648876953125,-0.06451892852783203,-0.1288456916809082,0.14704559743404388
1683129954381328400,9.284328369140624,0.0279998779296875,-0.16092145442962646,-0.06183507293462753
1683129954399166700,9.302166748046876,-0.23066997528076172,0.2829359769821167,-0.036851413547992706
1683129954417005300,9.32000537109375,0.2006845474243164,-0.36325860023498535,0.11281318962574005
1683129954434837500,9.33783740234375,-0.1855449676513672,0.36174046993255615,-0.05833697319030762
1683129954452681500,9.355681396484375,0.13488483428955078,-0.345967173576355,0.08467482030391693
1683129954470520800,9.373520751953125,-0.1341238021850586,0.14619028568267822,-0.1656905710697174
1683129954488354600,9.3913544921875,-0.04763984680175781,-0.1901935338973999,0.14475099742412567
1683129954506196700,9.40919677734375,-0.015061378479003906,-0.12531507015228271,-0.11470150947570801
1683129954524024300,9.4270244140625,-0.16605186462402344,0.2552952766418457,0.001458294689655304
1683129954541873400,9.444873291015625,0.17220592498779297,-0.37201499938964844,0.09736135601997375
1683129954559700500,9.462700439453124,-0.19693851470947266,0.34237492084503174,-0.06412605196237564
1683129954577550300,9.48055029296875,0.17353248596191406,-0.38065481185913086,0.07855075597763062
1683129954595388400,9.498388427734374,-0.12669849395751953,0.1966254711151123,-0.12839755415916443
1683129954613226800,9.516226806640624,-0.047493934631347656,-0.24204552173614502,0.16174158453941345
1683129954631066400,9.53406640625,-0.03811168670654297,-0.040500760078430176,-0.13193373382091522
1683129954648900600,9.551900634765625,-0.13419151306152344,0.1587280035018921,0.02197883650660515
1683129954666742000,9.569741943359375,0.1266641616821289,-0.3255798816680908,0.07962068915367126
1683129954684572400,9.587572509765625,-0.15445518493652344,0.37352800369262695,-0.08997922390699387
1683129954702418400,9.60541845703125,0.14941978454589844,-0.3911665678024292,0.10007135570049286
1683129954720253200,9.623253173828125,-0.1504659652709961,0.2468583583831787,-0.12171048671007156
1683129954738095000,9.64109521484375,0.044078826904296875,-0.2858377695083618,0.14120329916477203
1683129954755928800,9.6589287109375,-0.042144775390625,-0.037709832191467285,-0.16160398721694946
1683129954773775400,9.676775390625,-0.15298080444335938,0.11894571781158447,0.03673834726214409
1683129954791609300,9.694609375,0.11753273010253906,-0.3273000717163086,0.074896439909935
1683129954809450000,9.712449951171875,-0.14686870574951172,0.3440748453140259,-0.068515345454216
1683129954827284200,9.7302841796875,0.12992382049560547,-0.3712005615234375,0.13499103486537933
1683129954845125000,9.748125,-0.10670852661132812,0.2787599563598633,-0.11267313361167908
1683129954862963700,9.765963623046876,0.04820728302001953,-0.2768815755844116,0.14006371796131134
1683129954880804900,9.783804931640624,-0.08333969116210938,0.009775042533874512,-0.19446001946926117
1683129954898640400,9.801640380859375,-0.13637351989746094,0.08257186412811279,0.0694071426987648
1683129954916478500,9.819478515625,0.10430145263671875,-0.3162883520126343,0.03958861529827118
1683129954934316500,9.837316650390624,-0.15134334564208984,0.34646105766296387,-0.06604257225990295
1683129954952156400,9.855156494140624,0.162750244140625,-0.3948352336883545,0.09536277502775192
1683129954969993700,9.87299365234375,-0.1351156234741211,0.2723844051361084,-0.13412629067897797
1683129954987831600,9.89083154296875,0.07670783996582031,-0.297383189201355,0.15406811237335205
1683129955005664500,9.90866455078125,-0.05146503448486328,0.017237067222595215,-0.17230820655822754
1683129955023508700,9.9265087890625,-0.11035442352294922,0.0568995475769043,0.09633830189704895
1683129955041347300,9.944347412109375,0.06324195861816406,-0.27948474884033203,0.018827270716428757
1683129955059188200,9.962188232421875,-0.14284610748291016,0.32920074462890625,-0.048342157155275345
1683129955077019000,9.980018798828125,0.1624584197998047,-0.3732067346572876,0.10730597376823425
1683129955094865000,9.997864990234374,-0.13782024383544922,0.2946435213088989,-0.13201434910297394
1683129955112700400,10.015700439453125,0.03519153594970703,-0.3135305643081665,0.12353582680225372
1683129955130541600,10.03354150390625,-0.08213329315185547,0.04426169395446777,-0.195459246635437
1683129955148366600,10.05136669921875,-0.07509994506835938,-0.05156993865966797,0.12461882084608078
1683129955166215700,10.069215576171874,0.04069232940673828,-0.20539343357086182,-0.008775334805250168
1683129955184052700,10.087052734375,-0.13131141662597656,0.29945945739746094,-0.008031647652387619
1683129955201893000,10.10489306640625,0.22955322265625,-0.37853455543518066,0.10965465754270554
1683129955219729000,10.12272900390625,-0.19254589080810547,0.3153502941131592,-0.1519472301006317
1683129955237565700,10.140565673828124,0.055881500244140625,-0.36563730239868164,0.10929010808467865
1683129955255407400,10.158407470703125,-0.09740638732910156,0.10116982460021973,-0.1509687602519989
1683129955273246500,10.17624658203125,-0.08318614959716797,-0.1227501630783081,0.17003265023231506
1683129955291071700,10.19407177734375,-0.00311279296875,-0.15496349334716797,-0.05842890962958336
1683129955308911000,10.2119111328125,-0.09111785888671875,0.256991982460022,0.017838966101408005
1683129955326758700,10.229758544921875,0.23609161376953125,-0.3353036642074585,0.09358425438404083
1683129955344598500,10.2475986328125,-0.17636680603027344,0.32141149044036865,-0.12632004916667938
1683129955362437400,10.265437255859375,0.08796882629394531,-0.40384984016418457,0.06102248653769493
1683129955380275500,10.283275390625,-0.12894153594970703,0.18142306804656982,-0.1269645243883133
1683129955398114000,10.301114013671874,-0.07123947143554688,-0.17719435691833496,0.19629740715026855
1683129955415952000,10.318951904296876,0.036327362060546875,-0.11003005504608154,-0.1177455484867096
1683129955433787100,10.336787109375,-0.0795583724975586,0.2383720874786377,0.02772555500268936
1683129955451628000,10.3546279296875,0.1754779815673828,-0.3542858362197876,0.07255875319242477
1683129955469450200,10.3724501953125,-0.1517200469970703,0.3453986644744873,-0.1147109717130661
1683129955487305200,10.39030517578125,0.16087627410888672,-0.42588168382644653,0.06472279131412506
1683129955505143800,10.408143798828124,-0.13007545471191406,0.22911953926086426,-0.11570245027542114
1683129955522983000,10.42598291015625,-0.05908012390136719,-0.2081892490386963,0.1760808676481247
1683129955540818200,10.443818115234375,0.014902114868164062,-0.041840553283691406,-0.15072664618492126
1683129955558658800,10.461658935546875,-0.05259227752685547,0.2041468620300293,0.08065412938594818
1683129955576497400,10.479497314453125,0.1355915069580078,-0.3122830390930176,0.05932982638478279
1683129955594336800,10.497336669921875,-0.08723640441894531,0.3035149574279785,-0.13258987665176392
1683129955612174000,10.515174072265625,0.19065570831298828,-0.42160916328430176,0.08761462569236755
1683129955630012200,10.53301220703125,-0.13909053802490234,0.2756286859512329,-0.11791564524173737
1683129955647845600,10.550845703125,-0.018179893493652344,-0.2686237096786499,0.1539100706577301
1683129955665674200,10.56867431640625,-0.025557518005371094,-0.027358174324035645,-0.20127087831497192
1683129955683527400,10.58652734375,-0.08973503112792969,0.1730571985244751,0.09799022227525711
1683129955701366500,10.604366455078125,0.13518619537353516,-0.254574179649353,0.046512626111507416
1683129955719203600,10.62220361328125,-0.07083415985107422,0.2886613607406616,-0.12340948730707169
1683129955737043500,10.64004345703125,0.16962242126464844,-0.4132727384567261,0.1128850132226944
1683129955754880300,10.65788037109375,-0.1730804443359375,0.2786499261856079,-0.1143261194229126
1683129955772717800,10.6757177734375,0.02020549774169922,-0.29035043716430664,0.1134108379483223
1683129955790558200,10.69355810546875,-0.03117656707763672,-0.015194296836853027,-0.20524002611637115
1683129955808395500,10.7113955078125,-0.06816768646240234,0.10106015205383301,0.1464526206254959
1683129955826234000,10.729234130859375,0.10060691833496094,-0.24411916732788086,0.03393537178635597
1683129955844073200,10.7470732421875,-0.05490684509277344,0.26994597911834717,-0.1245848536491394
1683129955861910300,10.76491015625,0.1636648178100586,-0.4213881492614746,0.10467733442783356
1683129955879748900,10.782748779296876,-0.18576622009277344,0.30300629138946533,-0.12981101870536804
1683129955897587000,10.8005869140625,0.054442405700683594,-0.31181633472442627,0.10643111914396286
1683129955915425500,10.818425537109375,-0.08942604064941406,0.004417061805725098,-0.19110536575317383
1683129955933264000,10.836263916015625,-0.05662345886230469,0.08404314517974854,0.1652160882949829
1683129955951102500,10.8541025390625,0.08537769317626953,-0.20638000965118408,-0.0011859796941280365
1683129955968929800,10.8719296875,-0.08275127410888672,0.2634495496749878,-0.0948953777551651
1683129955986779100,10.889779052734376,0.2156839370727539,-0.40609681606292725,0.08478483557701111
1683129956004617500,10.907617431640626,-0.18513107299804688,0.3381568193435669,-0.16195029020309448
1683129956022455600,10.92545556640625,0.03470611572265625,-0.3612326383590698,0.08632779121398926
1683129956040294000,10.9432939453125,-0.07999515533447266,0.057451725006103516,-0.16553060710430145
1683129956058132500,10.961132568359375,-0.046975135803222656,0.0015265941619873047,0.2011163830757141
1683129956075970800,10.978970703125,0.07647514343261719,-0.1773662567138672,-0.031793415546417236
1683129956093804800,10.9968046875,-0.03707313537597656,0.23914635181427002,-0.06821303069591522
1683129956111646500,11.014646484375,0.22167301177978516,-0.38607728481292725,0.0680965781211853
1683129956129482800,11.032482666015625,-0.1909189224243164,0.32176005840301514,-0.16963262856006622
1683129956147326500,11.050326416015626,0.03580951690673828,-0.38825368881225586,0.11110711097717285
1683129956165150000,11.06814990234375,-0.11455440521240234,0.12617075443267822,-0.13232862949371338
1683129956183000800,11.086000732421875,0.014374732971191406,-0.0698397159576416,0.2214907705783844
1683129956200836400,11.10383642578125,0.04425334930419922,-0.11108207702636719,-0.10306718200445175
1683129956218677500,11.121677490234376,0.01606464385986328,0.18597161769866943,0.016136324033141136
1683129956236515800,11.139515869140626,0.20613384246826172,-0.3364119529724121,0.04672672227025032
1683129956254353700,11.157353759765625,-0.25199222564697266,0.28873932361602783,-0.16880640387535095
1683129956272192300,11.175192138671875,0.11701583862304688,-0.4278187155723572,0.1079435795545578
1683129956290031900,11.193031982421875,-0.13497161865234375,0.20291996002197266,-0.07850316166877747
1683129956307869000,11.210868896484374,-0.0703887939453125,-0.18177080154418945,0.21569344401359558
1683129956325707500,11.22870751953125,0.08699798583984375,-0.06827795505523682,-0.16356933116912842
1683129956343545600,11.246545654296876,0.016626358032226562,0.14976167678833008,0.05801871046423912
1683129956361385500,11.264385498046876,0.09071636199951172,-0.30167973041534424,0.028698980808258057
1683129956379222000,11.282221923828125,-0.13759803771972656,0.2859210968017578,-0.17258471250534058
1683129956397060900,11.300060791015625,0.14037704467773438,-0.4096261262893677,0.10100136697292328
1683129956414893300,11.317893310546875,-0.14840316772460938,0.2722715139389038,-0.10479883849620819
1683129956432737300,11.3357373046875,-0.06229114532470703,-0.22667324542999268,0.17499001324176788
1683129956450576600,11.35357666015625,0.042522430419921875,-0.02396857738494873,-0.1830914169549942
1683129956468407300,11.3714072265625,0.01275634765625,0.1147376298904419,0.12453386187553406
1683129956486252300,11.389252197265625,0.09920215606689453,-0.24418997764587402,0.018489181995391846
1683129956504079400,11.407079345703124,-0.1108102798461914,0.25272154808044434,-0.1762874573469162
1683129956521929000,11.424928955078125,0.18132400512695312,-0.4455563426017761,0.1186942458152771
1683129956539759000,11.442759033203124,-0.14592933654785156,0.31246495246887207,-0.09080927073955536
1683129956557606100,11.460606201171874,-0.013533592224121094,-0.27431249618530273,0.14937609434127808
1683129956575447000,11.478447021484374,-0.04980659484863281,-0.013121485710144043,-0.19422666728496552
1683129956593282600,11.496282470703125,0.009959220886230469,0.06967103481292725,0.1684059500694275
1683129956611123700,11.514123779296876,0.11279010772705078,-0.17638182640075684,0.006740991026163101
1683129956628947500,11.531947509765626,-0.12390995025634766,0.20118951797485352,-0.1481737196445465
1683129956646800000,11.5497998046875,0.20627880096435547,-0.441356897354126,0.11451931297779083
1683129956664635400,11.567635498046876,-0.17318439483642578,0.35658907890319824,-0.1166723370552063
1683129956682475300,11.585475341796876,0.014093399047851562,-0.31375205516815186,0.11572115123271942
1683129956700315400,11.6033154296875,-0.048709869384765625,0.04917192459106445,-0.17555639147758484
1683129956718151000,11.62115087890625,0.018579483032226562,0.04968881607055664,0.2107037603855133
1683129956735984600,11.638984619140626,0.0884866714477539,-0.15558409690856934,-0.02661321684718132
1683129956753823700,11.65682373046875,-0.06292152404785156,0.18028151988983154,-0.12444354593753815
1683129956771665000,11.674664794921876,0.18264102935791016,-0.4338342547416687,0.09889273345470428
1683129956789492500,11.692492431640625,-0.207733154296875,0.35731804370880127,-0.13475342094898224
1683129956807342300,11.71034228515625,0.05012702941894531,-0.36132776737213135,0.09613260626792908
1683129956825180400,11.728180419921875,-0.11623096466064453,0.09064924716949463,-0.1356540024280548
1683129956843018800,11.746018798828125,0.021737098693847656,-0.015360355377197266,0.22210165858268738
1683129956860857600,11.763857666015625,0.10259532928466797,-0.10685622692108154,-0.08126392960548401
1683129956878695700,11.78169580078125,-0.031978607177734375,0.16502141952514648,-0.08778062462806702
1683129956896533800,11.79953369140625,0.16266918182373047,-0.4099361300468445,0.06829790771007538
1683129956914372000,11.8173720703125,-0.2253398895263672,0.37061429023742676,-0.12952663004398346
1683129956932211700,11.835211669921875,0.044989585876464844,-0.4114532470703125,0.09127359092235565
1683129956950050600,11.853050537109375,-0.14574050903320312,0.1752249002456665,-0.11107900738716125
1683129956967887000,11.87088720703125,0.017282485961914062,-0.07213973999023438,0.22265276312828064
1683129956985714000,11.8887138671875,0.061377525329589844,-0.021059036254882812,-0.12634584307670593
1683129957003565000,11.90656494140625,0.019005775451660156,0.07425248622894287,-0.045184601098299026
1683129957021402400,11.92440234375,0.12654972076416016,-0.33576977252960205,0.042565587908029556
1683129957039230700,11.942230712890625,-0.2471923828125,0.3383598327636719,-0.1148897111415863
1683129957057067000,11.96006689453125,0.09909820556640625,-0.41990184783935547,0.13918739557266235
1683129957074919400,11.97791943359375,-0.10296249389648438,0.26738154888153076,-0.07675526291131973
1683129957092758800,11.9957587890625,0.025094032287597656,-0.15554845333099365,0.1850791871547699
1683129957110595000,12.013594970703124,0.043473243713378906,-0.001508474349975586,-0.17671899497509003
1683129957128424000,12.031423828125,0.042609214782714844,0.06015598773956299,0.05559120327234268
1683129957146270700,12.049270751953125,0.03411102294921875,-0.24384582042694092,0.011935163289308548
1683129957164110300,12.0671103515625,-0.21680545806884766,0.2784154415130615,-0.15448631346225739
1683129957181945900,12.08494580078125,0.08352470397949219,-0.41839683055877686,0.14410126209259033
1683129957199788500,12.10278857421875,-0.11459922790527344,0.3321584463119507,-0.07632243633270264
1683129957217621000,12.12062109375,0.07756233215332031,-0.23241305351257324,0.15523843467235565
1683129957235462400,12.13846240234375,-0.0160369873046875,0.016836166381835938,-0.19592128694057465
1683129957253301800,12.1563017578125,0.07143688201904297,0.041850924491882324,0.14474636316299438
1683129957271139000,12.17413916015625,0.012758255004882812,-0.1847020387649536,-0.004612773656845093
1683129957288977400,12.191977294921875,-0.19338321685791016,0.2172490358352661,-0.15951356291770935
1683129957306804000,12.209803955078126,0.14636707305908203,-0.432700514793396,0.13318155705928802
1683129957324642800,12.227642822265626,-0.18742942810058594,0.35341060161590576,-0.09943610429763794
1683129957342483500,12.2454833984375,0.03643512725830078,-0.2800394296646118,0.15846507251262665
1683129957360330500,12.26333056640625,-0.04633045196533203,0.07495856285095215,-0.17028364539146423
1683129957378169000,12.281169189453125,0.07199382781982422,-0.036400556564331055,0.1904403567314148
1683129957396011000,12.299010986328126,0.037634849548339844,-0.10044848918914795,-0.03751572594046593
1683129957413841700,12.316841552734376,-0.17150592803955078,0.1921241283416748,-0.13250701129436493
1683129957431682800,12.334682861328124,0.12377357482910156,-0.4385465383529663,0.1084848940372467
1683129957449522200,12.352522216796874,-0.21384239196777344,0.38070154190063477,-0.08187726885080338
1683129957467360500,12.370360595703126,0.027210235595703125,-0.319324254989624,0.14781464636325836
1683129957485198800,12.38819873046875,-0.07167339324951172,0.14872074127197266,-0.156779944896698
1683129957503036000,12.406035888671875,0.08147907257080078,-0.044644832611083984,0.21648643910884857
1683129957520875300,12.423875244140625,0.0027942657470703125,-0.03820300102233887,-0.07827234268188477
1683129957538703400,12.441703369140624,-0.16838741302490234,0.12742161750793457,-0.09751369059085846
1683129957556552200,12.45955224609375,0.14015579223632812,-0.4041932225227356,0.07323659956455231
1683129957574379800,12.4773798828125,-0.22967147827148438,0.39082396030426025,-0.07973412424325943
1683129957592217600,12.495217529296875,0.004283905029296875,-0.3756958246231079,0.10976530611515045
1683129957610067200,12.513067138671875,-0.06503772735595703,0.18171358108520508,-0.09600986540317535
1683129957627894000,12.53089404296875,0.07680130004882812,-0.07806050777435303,0.23720455169677734
1683129957645746000,12.548745849609375,0.0027341842651367188,0.0026662349700927734,-0.1259680688381195
1683129957663582200,12.566582275390624,-0.09487533569335938,0.05779004096984863,-0.07212459295988083
1683129957681419300,12.584419189453126,0.11873149871826172,-0.37035322189331055,0.03853335231542587
1683129957699255600,12.602255615234375,-0.2766256332397461,0.40123796463012695,-0.09354481101036072
1683129957717097000,12.620096923828125,0.08653068542480469,-0.39753472805023193,0.1344422698020935
1683129957734933200,12.637933349609375,-0.13332843780517578,0.2862788438796997,-0.06921358406543732
1683129957752772600,12.655772705078125,0.08037185668945312,-0.16595959663391113,0.20863787829875946
1683129957770612700,12.67361279296875,0.006218910217285156,0.04016268253326416,-0.17138537764549255
1683129957788450300,12.6914501953125,-0.06809329986572266,0.011420249938964844,0.00595325231552124
1683129957806288600,12.70928857421875,0.07601356506347656,-0.2863197326660156,0.01918807625770569
1683129957824120800,12.727120849609374,-0.22527217864990234,0.3663468360900879,-0.07148858159780502
1683129957841965000,12.744965087890625,0.11334419250488281,-0.4068669080734253,0.15661241114139557
1683129957859803400,12.762803466796875,-0.1332874298095703,0.3601614236831665,-0.06027783825993538
1683129957877642000,12.78064208984375,0.14897918701171875,-0.22277629375457764,0.14387525618076324
1683129957895480300,12.798480224609374,-0.05319786071777344,0.05756664276123047,-0.21378159523010254
1683129957913318400,12.816318359375,-0.014113426208496094,-0.06828057765960693,0.11478044092655182
1683129957931147000,12.83414697265625,-0.030504226684570312,-0.1702491044998169,-0.023675646632909775
1683129957948995000,12.8519951171875,-0.26094627380371094,0.281391978263855,-0.12160161137580872
1683129957966833400,12.86983349609375,0.1731863021850586,-0.40448588132858276,0.14462153613567352
1683129957984671700,12.887671630859375,-0.2091827392578125,0.37766826152801514,-0.045107822865247726
1683129958002498300,12.905498291015626,0.12135124206542969,-0.2953610420227051,0.09889262914657593
1683129958020348200,12.92334814453125,-0.100006103515625,0.10718679428100586,-0.1916506588459015
1683129958038186800,12.941186767578126,0.05222892761230469,-0.12433040142059326,0.15778326988220215
1683129958056025600,12.959025634765625,-0.06073760986328125,-0.09403586387634277,-0.087553009390831
1683129958073851000,12.976850830078124,-0.22509479522705078,0.2341703176498413,-0.07630717754364014
1683129958091701000,12.994700927734375,0.18001747131347656,-0.4139108657836914,0.10737427324056625
1683129958109539800,13.012539794921874,-0.21933364868164062,0.3825875520706177,-0.06486678123474121
1683129958127378400,13.03037841796875,0.12466239929199219,-0.31421542167663574,0.12265442311763763
1683129958145213400,13.04821337890625,-0.053806304931640625,0.19990742206573486,-0.12898798286914825
1683129958163054800,13.066054931640625,-0.0026388168334960938,-0.15302252769470215,0.17898890376091003
1683129958180894000,13.08389404296875,-0.06118965148925781,-0.0007090568542480469,-0.110295370221138
1683129958198734800,13.10173486328125,-0.17136287689208984,0.11265873908996582,-0.03842071816325188
1683129958216573700,13.11957373046875,0.0816497802734375,-0.3581249713897705,0.08058801293373108
1683129958234408000,13.137407958984374,-0.20005035400390625,0.3894002437591553,-0.06845882534980774
1683129958252244700,13.15524462890625,0.1381826400756836,-0.3456687927246094,0.11609423160552979
1683129958270084600,13.173084716796875,-0.07224369049072266,0.25856268405914307,-0.12810546159744263
1683129958287923000,13.1909228515625,0.04981422424316406,-0.2049318552017212,0.17786937952041626
1683129958305761000,13.208760986328125,-0.05159950256347656,0.037777066230773926,-0.14101368188858032
1683129958323601000,13.226600830078125,-0.165283203125,0.07076370716094971,0.008066453039646149
1683129958341439000,13.24443896484375,0.0786590576171875,-0.3293569087982178,0.026232384145259857
1683129958359276000,13.262276123046876,-0.18404579162597656,0.36146509647369385,-0.043506041169166565
1683129958377114400,13.2801142578125,0.1484966278076172,-0.34763669967651367,0.12901344895362854
1683129958394946800,13.29794677734375,-0.09144783020019531,0.29674530029296875,-0.11073280870914459
1683129958412791000,13.315791015625,0.08277416229248047,-0.24026191234588623,0.15077269077301025
1683129958430630400,13.33363037109375,-0.09355640411376953,0.06639933586120605,-0.184453547000885
1683129958448467700,13.3514677734375,-0.10562801361083984,-0.004938960075378418,0.050992563366889954
1683129958466301400,13.369301513671875,0.03615379333496094,-0.20582008361816406,0.00239650160074234
1683129958484141300,13.387141357421875,-0.19022083282470703,0.31896424293518066,-0.013050496578216553
1683129958501982500,13.404982421875,0.2308979034423828,-0.3490365743637085,0.12545551359653473
1683129958519810800,13.422810791015625,-0.17456722259521484,0.34656763076782227,-0.13845294713974
1683129958537656300,13.44065625,0.09358787536621094,-0.312894344329834,0.08995841443538666
1683129958555497200,13.458497314453124,-0.08641433715820312,0.09571802616119385,-0.18298962712287903
1683129958573335600,13.47633544921875,-0.12003326416015625,-0.09249222278594971,0.13344773650169373
1683129958591174100,13.494174072265626,-0.025136947631835938,-0.1657041311264038,-0.03863253444433212
1683129958609015300,13.512015380859374,-0.12013912200927734,0.2987743616104126,-0.00452171266078949
1683129958626853600,13.529853515625,0.2402515411376953,-0.3528369665145874,0.10307183861732483
1683129958644692000,13.54769189453125,-0.168975830078125,0.3591121435165405,-0.07892419397830963
1683129958662528500,13.565528564453125,0.1679544448852539,-0.3301957845687866,0.05257145315408707
1683129958680366800,13.583366943359374,-0.11838340759277344,0.1460965871810913,-0.14579740166664124
1683129958698204000,13.601203857421876,-0.057312965393066406,-0.17456626892089844,0.18202877044677734
1683129958716040700,13.619040771484375,0.025557518005371094,-0.0737910270690918,-0.12571625411510468
1683129958733877200,13.636877197265624,-0.14679813385009766,0.22984743118286133,-0.02073955535888672
1683129958751718000,13.6547177734375,0.19797611236572266,-0.3318638801574707,0.0910741537809372
1683129958769557200,13.67255712890625,-0.18685054779052734,0.39249682426452637,-0.0941755473613739
1683129958787390700,13.690390625,0.18578815460205078,-0.39086878299713135,0.06496851146221161
1683129958805233700,13.708233642578126,-0.17007923126220703,0.23874115943908691,-0.11668239533901215
1683129958823072000,13.726072021484375,-0.01573467254638672,-0.234275221824646,0.14924508333206177
1683129958840910300,13.743910400390625,0.00009632110595703125,-0.038416385650634766,-0.16463513672351837
1683129958858748700,13.761748779296875,-0.11998271942138672,0.18658757209777832,0.06375309824943542
1683129958876587300,13.779587158203125,0.12507343292236328,-0.31377649307250977,0.07071460783481598
1683129958894425000,13.797425048828124,-0.1065826416015625,0.3508164882659912,-0.11370201408863068
1683129958912262400,13.815262451171876,0.16758346557617188,-0.3839607238769531,0.09016555547714233
1683129958930102000,13.83310205078125,-0.14392471313476562,0.2699704170227051,-0.12197907269001007
1683129958947940400,13.8509404296875,0.03454303741455078,-0.2694246768951416,0.12144909799098969
1683129958965778400,13.8687783203125,-0.08079338073730469,0.0015518665313720703,-0.20630018413066864
1683129958983615000,13.886614990234374,-0.09459877014160156,0.10887455940246582,0.09750031679868698
1683129959001454000,13.9044541015625,0.13120460510253906,-0.2529486417770386,0.03691255301237106
1683129959019293400,13.92229345703125,-0.08475971221923828,0.3171110153198242,-0.08676953613758087
1683129959037124000,13.9401240234375,0.1682147979736328,-0.3925093412399292,0.11754107475280762
1683129959054969600,13.957969482421875,-0.12485122680664062,0.30613958835601807,-0.1407991498708725
1683129959072805600,13.9758056640625,0.05035972595214844,-0.3170374631881714,0.1091117411851883
1683129959090647800,13.993647705078125,-0.09954357147216797,0.01290273666381836,-0.20219483971595764
1683129959108484900,14.01148486328125,-0.08504962921142578,0.021700263023376465,0.15083034336566925
1683129959126323200,14.0293232421875,0.04174518585205078,-0.2184133529663086,-0.00922619178891182
1683129959144161000,14.0471611328125,-0.08720111846923828,0.298292875289917,-0.05789848789572716
1683129959161998600,14.06499853515625,0.2270641326904297,-0.37065696716308594,0.09524531662464142
1683129959179838000,14.082837890625,-0.1677703857421875,0.31892943382263184,-0.16941924393177032
1683129959197676300,14.10067626953125,0.05117988586425781,-0.34257805347442627,0.10665349662303925
1683129959215514600,14.1185146484375,-0.0847024917602539,0.11332428455352783,-0.1592564582824707
1683129959233350100,14.13635009765625,-0.07502460479736328,-0.08802199363708496,0.18582816421985626
1683129959251188700,14.154188720703125,0.02288341522216797,-0.1337430477142334,-0.08618175238370895
1683129959269026600,14.172026611328125,0.0030956268310546875,0.23849523067474365,-0.004834625869989395
1683129959286871600,14.18987158203125,0.1988849639892578,-0.34342098236083984,0.07324199378490448
1683129959304705800,14.207705810546875,-0.19183349609375,0.33153343200683594,-0.16450783610343933
1683129959322530000,14.225530029296875,0.13185405731201172,-0.4065582752227783,0.07875842601060867
1683129959340371200,14.24337109375,-0.12497234344482422,0.21317577362060547,-0.103385791182518
1683129959358223600,14.2612236328125,-0.032077789306640625,-0.1388915777206421,0.20866574347019196
1683129959376059400,14.279059326171875,0.029730796813964844,-0.07206416130065918,-0.14995011687278748
1683129959393894100,14.29689404296875,-0.02147197723388672,0.1977444887161255,0.054814308881759644
1683129959411734800,14.31473486328125,0.16774272918701172,-0.2906637191772461,0.04567170888185501
1683129959429574400,14.332574462890625,-0.15208816528320312,0.3217564821243286,-0.1552208662033081
1683129959447412500,14.35041259765625,0.13510513305664062,-0.42005324363708496,0.08665589988231659
1683129959465239000,14.368239013671875,-0.10967254638671875,0.28783702850341797,-0.10372975468635559
1683129959483091200,14.38609130859375,-0.035758018493652344,-0.21528422832489014,0.15959882736206055
1683129959500911900,14.403911865234376,0.0053539276123046875,-0.03804326057434082,-0.19646766781806946
1683129959518765300,14.421765380859375,-0.019788742065429688,0.1657567024230957,0.10796969383955002
1683129959536604000,14.43960400390625,0.1220541000366211,-0.24492895603179932,0.05169466510415077
1683129959554436000,14.45743603515625,-0.1284656524658203,0.2722707986831665,-0.16769374907016754
1683129959572280000,14.475280029296876,0.1678314208984375,-0.4233360290527344,0.09054961055517197
1683129959590118700,14.49311865234375,-0.14058589935302734,0.31427621841430664,-0.11061479151248932
1683129959607957000,14.51095703125,0.006077766418457031,-0.2638413906097412,0.12131832540035248
1683129959625795000,14.528795166015625,-0.07053565979003906,0.005066514015197754,-0.20055261254310608
1683129959643636700,14.54663671875,0.010594367980957031,0.07434594631195068,0.18260911107063293
1683129959661472000,14.564471923828124,0.11930561065673828,-0.17943215370178223,0.01740949973464012
1683129959679310000,14.58231005859375,-0.08864784240722656,0.21724319458007812,-0.1587810218334198
1683129959697148400,14.6001484375,0.21613693237304688,-0.4291912317276001,0.10342894494533539
1683129959714986800,14.61798681640625,-0.19986724853515625,0.3424440622329712,-0.11936409771442413
1683129959732825000,14.6358251953125,0.024886131286621094,-0.3236936330795288,0.08595339208841324
1683129959750665500,14.65366552734375,-0.07451438903808594,0.05297350883483887,-0.18649137020111084
1683129959768502000,14.671501953125,0.005370140075683594,0.05773890018463135,0.21134905517101288
1683129959786339800,14.68933984375,0.12245845794677734,-0.15130102634429932,-0.042356282472610474
1683129959804171800,14.707171875,-0.06691169738769531,0.20171022415161133,-0.10944531112909317
1683129959822016300,14.725016357421875,0.22246646881103516,-0.39884525537490845,0.08188134431838989
1683129959839854300,14.742854248046875,-0.17737960815429688,0.3467012643814087,-0.14213909208774567
1683129959857693200,14.760693115234375,0.0011796951293945312,-0.3670768737792969,0.08641678094863892
1683129959875525400,14.778525390625,-0.1294708251953125,0.12968194484710693,-0.14738892018795013
1683129959893369600,14.79636962890625,0.0167083740234375,-0.04289877414703369,0.22283805906772614
1683129959911207700,14.814207763671876,0.07333087921142578,-0.07901132106781006,-0.08308939635753632
1683129959929036300,14.832036376953125,0.018296241760253906,0.1654958724975586,-0.06495171785354614
1683129959946884400,14.84988427734375,0.1407003402709961,-0.37355315685272217,0.042206961661577225
1683129959964722400,14.867722412109375,-0.24261760711669922,0.34012627601623535,-0.1520577073097229
1683129959982560500,14.885560546875,0.09460639953613281,-0.39754265546798706,0.10220463573932648
1683129960000399000,14.903399169921874,-0.12134075164794922,0.21397066116333008,-0.07989539206027985
1683129960018237700,14.92123779296875,0.014970779418945312,-0.11247050762176514,0.2073560655117035
1683129960036074800,14.93907470703125,0.06655597686767578,-0.01979541778564453,-0.15708035230636597
1683129960053910500,14.95691064453125,0.05007743835449219,0.08894240856170654,0.018021924421191216
1683129960071750400,14.97475048828125,0.14910316467285156,-0.3104289770126343,0.009286947548389435
1683129960089590500,14.992590576171875,-0.2004070281982422,0.3173675537109375,-0.16763664782047272
1683129960107428600,15.0104287109375,0.069976806640625,-0.4193626642227173,0.1293189823627472
1683129960125255700,15.028255615234375,-0.11931133270263672,0.2779906988143921,-0.06325657665729523
1683129960143105300,15.046105224609375,0.013835906982421875,-0.19894862174987793,0.18242831528186798
1683129960160943600,15.063943603515625,0.04879474639892578,0.008777856826782227,-0.19027510285377502
1683129960178781700,15.08178173828125,0.06664466857910156,0.06120753288269043,0.10163469612598419
1683129960196615400,15.099615478515625,0.056133270263671875,-0.23048794269561768,-0.010500699281692505
1683129960214458400,15.117458251953124,-0.1546192169189453,0.23876380920410156,-0.17823027074337006
1683129960232297200,15.135297119140626,0.08390140533447266,-0.4263516068458557,0.14466287195682526
1683129960250132000,15.153132080078125,-0.1460418701171875,0.3381803035736084,-0.10006240755319595
1683129960267970300,15.17097021484375,0.03295612335205078,-0.24860894680023193,0.12363022565841675
1683129960285811200,15.188811279296875,-0.054668426513671875,0.04039287567138672,-0.1989094614982605
1683129960303649800,15.20664990234375,0.04515647888183594,0.007521271705627441,0.16860798001289368
1683129960321489200,15.2244892578125,0.0627288818359375,-0.11614513397216797,-0.007082533091306686
1683129960339326200,15.242326171875,-0.17691707611083984,0.21259760856628418,-0.14192402362823486
1683129960357164300,15.260164306640625,0.15325927734375,-0.4520747661590576,0.10974438488483429
1683129960375002400,15.27800244140625,-0.2143869400024414,0.34746527671813965,-0.09679143130779266
1683129960392842500,15.295842529296875,0.0228271484375,-0.32000303268432617,0.13380421698093414
1683129960410680000,15.31368017578125,-0.07258224487304688,0.10550951957702637,-0.14362449944019318
1683129960428517600,15.331517578125,0.07929611206054688,-0.021437644958496094,0.22000686824321747
1683129960446351000,15.34935107421875,0.06236839294433594,-0.07461071014404297,-0.0516679584980011
1683129960464193800,15.36719384765625,-0.14668941497802734,0.16936421394348145,-0.12481443583965302
1683129960482032400,15.385032470703125,0.15365886688232422,-0.41967618465423584,0.10242057591676712
1683129960499870500,15.402870361328125,-0.2038717269897461,0.3765733242034912,-0.09444277733564377
1683129960517704200,15.4207041015625,0.004466056823730469,-0.37935495376586914,0.11866727471351624
1683129960535547100,15.438547119140624,-0.06401634216308594,0.1536424160003662,-0.11018399149179459
1683129960553385200,15.45638525390625,0.0639944076538086,-0.0347212553024292,0.24627989530563354
1683129960571223800,15.474223876953126,0.026996612548828125,-0.03279769420623779,-0.112228624522686
1683129960589062000,15.492061767578125,-0.09325027465820312,0.10434985160827637,-0.07912726700305939
1683129960606897400,15.5098974609375,0.1620769500732422,-0.38417917490005493,0.06544232368469238
1683129960624720000,15.527719970703124,-0.2807464599609375,0.40280771255493164,-0.08928652107715607
1683129960642577700,15.54557763671875,0.059177398681640625,-0.3909522294998169,0.10538119077682495
1683129960660415000,15.5634150390625,-0.07858848571777344,0.26272428035736084,-0.0690070167183876
1683129960678253600,15.581253662109376,0.07949161529541016,-0.11571276187896729,0.25543588399887085
1683129960696092700,15.5990927734375,0.016837120056152344,0.020328640937805176,-0.15439169108867645
1683129960713927700,15.616927734375,-0.04579734802246094,0.043555617332458496,-0.039693765342235565
1683129960731768600,15.6347685546875,0.10286331176757812,-0.32615792751312256,0.012890700250864029
1683129960749603300,15.652603271484375,-0.29147815704345703,0.3932325839996338,-0.10515385866165161
1683129960767440000,15.67043994140625,0.09980201721191406,-0.4106496572494507,0.12332439422607422
1683129960785282000,15.688281982421875,-0.10022640228271484,0.3311084508895874,-0.08537745475769043
1683129960803121200,15.70612109375,0.06055927276611328,-0.17660808563232422,0.17449283599853516
1683129960820958500,15.72395849609375,-0.07051753997802734,0.058934688568115234,-0.2008197009563446
1683129960838797800,15.7417978515625,-0.009661674499511719,-0.0038340091705322266,0.048349931836128235
1683129960856635600,15.7596357421875,0.0065364837646484375,-0.22231876850128174,-0.02465430274605751
1683129960874462700,15.777462646484375,-0.2437915802001953,0.3153945207595825,-0.13441064953804016
1683129960892311600,15.7953115234375,0.11590576171875,-0.42657268047332764,0.15052634477615356
1683129960910150700,15.813150634765625,-0.16504764556884766,0.37220847606658936,-0.059174545109272
1683129960927989000,15.830989013671875,0.13318920135498047,-0.25757789611816406,0.1163594201207161
1683129960945827000,15.8488271484375,-0.03914165496826172,0.08459711074829102,-0.19863379001617432
1683129960963668000,15.86666796875,0.004851341247558594,-0.047428011894226074,0.15508316457271576
1683129960981503700,15.884503662109376,-0.046502113342285156,-0.15254127979278564,-0.05064918473362923
1683129960999341800,15.902341796875,-0.24068260192871094,0.2622406482696533,-0.11790066212415695
1683129961017180400,15.920180419921875,0.1434650421142578,-0.41650915145874023,0.1357462853193283
1683129961035018500,15.9380185546875,-0.2145376205444336,0.4106849431991577,-0.06727113574743271
1683129961052856600,15.955856689453125,0.0968923568725586,-0.2985568046569824,0.1095556691288948
1683129961070697700,15.97369775390625,-0.0902090072631836,0.1611562967300415,-0.1614198088645935
1683129961088533200,15.991533203125,0.05585479736328125,-0.10379993915557861,0.16349782049655914
1683129961106357200,16.009357177734376,-0.02627086639404297,-0.08078432083129883,-0.08990857005119324
1683129961124194800,16.02719482421875,-0.2000293731689453,0.21476316452026367,-0.06352560222148895
1683129961142048000,16.045048095703127,0.1200113296508789,-0.40963566303253174,0.09843698889017105
1683129961159874600,16.06287451171875,-0.25019168853759766,0.3831905126571655,-0.07316707074642181
1683129961177724700,16.080724609375,0.07465171813964844,-0.3126823902130127,0.12245513498783112
1683129961195565600,16.098565673828126,-0.061682701110839844,0.20004820823669434,-0.11267857253551483
1683129961213401300,16.1164013671875,0.05041027069091797,-0.11681008338928223,0.18790048360824585
1683129961231241700,16.13424169921875,-0.050434112548828125,-0.0024253129959106445,-0.11665480583906174
1683129961249074400,16.152074462890624,-0.15953350067138672,0.11644184589385986,-0.02983461692929268
1683129961266915800,16.169915771484376,0.12732601165771484,-0.37363767623901367,0.09434352070093155
1683129961284753700,16.187753662109376,-0.23614788055419922,0.39468348026275635,-0.05114240571856499
1683129961302580500,16.20558056640625,0.11846160888671875,-0.32657361030578613,0.13177083432674408
1683129961320430300,16.223430419921876,-0.04648113250732422,0.2553287744522095,-0.10965603590011597
1683129961338254600,16.241254638671876,0.08838081359863281,-0.17380964756011963,0.19009461998939514
1683129961356096000,16.259095947265624,-0.07044029235839844,0.0404205322265625,-0.16278846561908722
1683129961373944000,16.276944091796874,-0.11218929290771484,0.05311274528503418,0.00034504756331443787
1683129961391781600,16.29478173828125,0.06294536590576172,-0.32347142696380615,0.03615240752696991
1683129961409621500,16.31262158203125,-0.2578001022338867,0.38968074321746826,-0.05454949289560318
1683129961427459800,16.3304599609375,0.15638160705566406,-0.347831130027771,0.13254816830158234
1683129961445298200,16.348298095703125,-0.10730552673339844,0.31314265727996826,-0.10000331699848175
1683129961463136800,16.36613671875,0.09032249450683594,-0.21876907348632812,0.17491590976715088
1683129961480976100,16.38397607421875,-0.0684976577758789,0.06727397441864014,-0.19179131090641022
1683129961498813400,16.4018134765625,-0.0836019515991211,-0.001532435417175293,0.027783699333667755
1683129961516651500,16.419651611328124,0.03698444366455078,-0.24054241180419922,0.0005743987858295441
1683129961534483500,16.4374833984375,-0.23686885833740234,0.33193743228912354,-0.03786744177341461
1683129961552327200,16.4553271484375,0.19559383392333984,-0.36987483501434326,0.12628576159477234
1683129961570170000,16.473170166015624,-0.14376354217529297,0.35222768783569336,-0.08244679123163223
1683129961588003800,16.49100390625,0.1339120864868164,-0.2602236270904541,0.11003711819648743
1683129961605835500,16.50883544921875,-0.10228824615478516,0.09598374366760254,-0.19616051018238068
1683129961623673600,16.526673583984376,-0.10395526885986328,-0.1005779504776001,0.12017087638378143
1683129961641517800,16.544517822265625,-0.01488494873046875,-0.16515278816223145,-0.04444172605872154
1683129961659357200,16.562357177734373,-0.1944732666015625,0.32223987579345703,-0.009916923940181732
1683129961677198600,16.580198486328126,0.2103118896484375,-0.36906611919403076,0.1093268096446991
1683129961695033900,16.598033935546876,-0.17250823974609375,0.36386656761169434,-0.06752638518810272
1683129961712872400,16.61587255859375,0.18319416046142578,-0.30914413928985596,0.0725119560956955
1683129961730711000,16.6337109375,-0.13150882720947266,0.15051376819610596,-0.16890192031860352
1683129961748551000,16.651551025390624,-0.02759265899658203,-0.16134357452392578,0.15982113778591156
1683129961766384400,16.66938427734375,0.000934600830078125,-0.09812915325164795,-0.10030589997768402
1683129961784224500,16.687224609375,-0.18546581268310547,0.27932071685791016,0.0009331293404102325
1683129961802061000,16.70506103515625,0.17544269561767578,-0.34662961959838867,0.1160593181848526
1683129961819901400,16.7229013671875,-0.1995401382446289,0.3913581371307373,-0.06215294077992439
1683129961837736700,16.74073681640625,0.1915302276611328,-0.34240078926086426,0.07935307919979095
1683129961855572000,16.758572021484376,-0.12998008728027344,0.2226719856262207,-0.11950530111789703
1683129961873415700,16.776415771484373,-0.03095722198486328,-0.20856928825378418,0.13946858048439026
1683129961891254500,16.794254638671877,0.00872039794921875,-0.03215670585632324,-0.1569591462612152
1683129961909092400,16.81209228515625,-0.1522541046142578,0.17541050910949707,0.027464009821414948
1683129961926931000,16.829930908203124,0.09267044067382812,-0.32019031047821045,0.08873287588357925
1683129961944768800,16.847768798828124,-0.12238883972167969,0.3809208869934082,-0.07669515907764435
1683129961962607000,16.865607177734375,0.1767406463623047,-0.3554579019546509,0.1003948226571083
1683129961980445400,16.883445556640623,-0.14715957641601562,0.2772650718688965,-0.12280631810426712
1683129961998283500,16.901283447265627,0.03655433654785156,-0.25257349014282227,0.12928266823291779
1683129962016121900,16.919121826171875,-0.0723733901977539,0.00713348388671875,-0.19455038011074066
1683129962033955600,16.93695556640625,-0.1436309814453125,0.1190791130065918,0.04805268347263336
1683129962051800000,16.954800048828126,0.11103534698486328,-0.30068838596343994,0.05519779771566391
1683129962069636900,16.972636962890626,-0.1497631072998047,0.3785712718963623,-0.08360664546489716
1683129962087474700,16.990474609375,0.16074562072753906,-0.36672282218933105,0.10294819623231888
1683129962105301200,17.00830126953125,-0.11768531799316406,0.2989920377731323,-0.14555813372135162
1683129962123152600,17.026152587890625,0.03144264221191406,-0.2649502754211426,0.11017590761184692
1683129962140996400,17.043996337890626,-0.1044321060180664,0.04375600814819336,-0.21255862712860107
1683129962158828300,17.061828369140624,-0.09194087982177734,0.06953108310699463,0.09891320765018463
1683129962176664000,17.0796640625,0.051054954528808594,-0.22750401496887207,0.019297702237963676
1683129962194504200,17.097504150390623,-0.12352561950683594,0.32519352436065674,-0.05230526253581047
1683129962212345300,17.115345458984375,0.21715164184570312,-0.35959112644195557,0.12080700695514679
1683129962230180600,17.1331806640625,-0.13464832305908203,0.319368839263916,-0.1598820984363556
1683129962248021800,17.151021728515627,0.05405139923095703,-0.311728835105896,0.11168467998504639
1683129962265854200,17.168854248046873,-0.07042407989501953,0.07249116897583008,-0.1782945692539215
1683129962283695600,17.186695556640625,-0.07566452026367188,-0.045140862464904785,0.13583418726921082
1683129962301533700,17.20453369140625,0.009592056274414062,-0.16244614124298096,-0.05228200554847717
1683129962319371500,17.22237158203125,-0.04319953918457031,0.31275856494903564,-0.008120272308588028
1683129962337209900,17.2402099609375,0.21415233612060547,-0.3350362777709961,0.10563790798187256
1683129962355048200,17.258048095703124,-0.21447277069091797,0.3502373695373535,-0.15435293316841125
1683129962372887600,17.275887451171876,0.11054134368896484,-0.3579367399215698,0.07109003514051437
1683129962390721800,17.2937216796875,-0.11455821990966797,0.15788674354553223,-0.15229763090610504
1683129962408562700,17.311562744140623,-0.07007026672363281,-0.13644874095916748,0.1851854920387268
1683129962426401300,17.3294013671875,0.030279159545898438,-0.14140546321868896,-0.10970768332481384
1683129962444240400,17.347240478515626,-0.09459304809570312,0.23801195621490479,0.025032151490449905
1683129962462077400,17.365077392578126,0.20079708099365234,-0.3523460626602173,0.053423892706632614
1683129962479915800,17.382915771484374,-0.1668872833251953,0.34372591972351074,-0.1355823427438736
1683129962497749500,17.40074951171875,0.1329793930053711,-0.4128151535987854,0.0488782599568367
1683129962515592400,17.418592529296873,-0.11843109130859375,0.2513265609741211,-0.10374052822589874
1683129962533430800,17.4364306640625,-0.03613758087158203,-0.17921090126037598,0.1976276934146881
1683129962551268900,17.454268798828124,0.041794776916503906,-0.04702770709991455,-0.16486293077468872
1683129962569094400,17.472094482421873,-0.05045604705810547,0.22919750213623047,0.07237254083156586
1683129962586945300,17.4899453125,0.1468820571899414,-0.2879682779312134,0.04208866134285927
1683129962604783000,17.507783203125,-0.12131786346435547,0.33133721351623535,-0.1457652747631073
1683129962622620400,17.525620361328127,0.21017837524414062,-0.41835474967956543,0.09028162062168121
1683129962640456400,17.54345654296875,-0.14864540100097656,0.2865821123123169,-0.11169508099555969
1683129962658298600,17.561298583984374,-0.03046417236328125,-0.24737966060638428,0.12982916831970215
1683129962676139500,17.579139404296875,-0.016991615295410156,-0.043627142906188965,-0.2214648723602295
1683129962693970200,17.59697021484375,-0.03357982635498047,0.1567847728729248,0.11973267793655396
1683129962711812600,17.6148125,0.12989234924316406,-0.2290705442428589,0.054198089987039566
1683129962729655600,17.632655517578126,-0.073211669921875,0.2870292663574219,-0.1510513424873352
1683129962747492000,17.6504921875,0.21883583068847656,-0.4086877107620239,0.10804209113121033
1683129962765327000,17.6683271484375,-0.17861652374267578,0.2997075319290161,-0.12396411597728729
1683129962783165700,17.686165771484376,0.014454841613769531,-0.2704155445098877,0.09476061165332794
1683129962801004000,17.704004150390624,-0.04604625701904297,0.0025902986526489258,-0.21342170238494873
1683129962818842400,17.72184228515625,-0.0677194595336914,0.1273435354232788,0.14892563223838806
1683129962836680400,17.739680419921875,0.1240530014038086,-0.20620834827423096,0.012265644967556
1683129962854518300,17.757518310546875,-0.05518627166748047,0.26067018508911133,-0.12978115677833557
1683129962872353500,17.775353515625,0.20627593994140625,-0.3840794563293457,0.08051155507564545
1683129962890195000,17.79319482421875,-0.17916011810302734,0.32010316848754883,-0.14885394275188446
1683129962908033300,17.811033203125,0.06180000305175781,-0.30146312713623047,0.0787668228149414
1683129962925871400,17.828871337890625,-0.1282205581665039,0.047345757484436035,-0.1895093023777008
1683129962943708400,17.84670849609375,-0.06243896484375,0.054439663887023926,0.1890600323677063
1683129962961549000,17.864549072265625,0.0970773696899414,-0.15024244785308838,-0.04348344728350639
1683129962979386000,17.88238623046875,-0.06860637664794922,0.2567102909088135,-0.11179065704345703
1683129962997224200,17.90022412109375,0.21204185485839844,-0.3756675124168396,0.08019248396158218
1683129963015062000,17.91806201171875,-0.16936111450195312,0.3416973352432251,-0.15935972332954407
1683129963032900900,17.93590087890625,0.021924972534179688,-0.34504902362823486,0.0925663560628891
1683129963050739000,17.953739013671875,-0.11032962799072266,0.1361255645751953,-0.1528129130601883
1683129963068569000,17.971569091796876,0.026292800903320312,-0.035628318786621094,0.20054922997951508
1683129963086415400,17.989415283203126,0.06191825866699219,-0.1083669662475586,-0.0924997627735138
1683129963104252700,18.007252685546874,-0.005475044250488281,0.2125009298324585,-0.03261275961995125
1683129963122091800,18.025091796875,0.2385854721069336,-0.33078062534332275,0.06096744164824486
1683129963139927300,18.04292724609375,-0.23064327239990234,0.32181620597839355,-0.15655946731567383
1683129963157768200,18.060768310546877,0.03821849822998047,-0.4100320339202881,0.08854053914546967
1683129963175607000,18.07860693359375,-0.07981300354003906,0.2191174030303955,-0.07968504726886749
1683129963193443600,18.096443603515624,-0.008769989013671875,-0.1162947416305542,0.21945185959339142
1683129963211285200,18.11428515625,0.05182170867919922,-0.06562507152557373,-0.14162538945674896
1683129963229120800,18.132120849609375,0.07807350158691406,0.14970076084136963,0.02894613891839981
1683129963246962000,18.1499619140625,0.11597061157226562,-0.2908412218093872,0.028557997196912766
1683129963264791600,18.16779150390625,-0.1726694107055664,0.32011139392852783,-0.18296249210834503
1683129963282635800,18.1856357421875,0.10400199890136719,-0.415820837020874,0.10297679156064987
1683129963300474400,18.203474365234374,-0.12834835052490234,0.2611851692199707,-0.09322957694530487
1683129963318312200,18.221312255859374,-0.035976409912109375,-0.20785093307495117,0.18654944002628326
1683129963336145700,18.239145751953124,0.026729583740234375,-0.028608083724975586,-0.1916150152683258
1683129963353980000,18.25697998046875,0.044574737548828125,0.13476336002349854,0.10342471301555634
1683129963371815200,18.274815185546874,0.09954643249511719,-0.24625146389007568,0.016026601195335388
1683129963389653500,18.292653564453126,-0.1795482635498047,0.2662785053253174,-0.17650747299194336
1683129963407502800,18.3105029296875,0.1301250457763672,-0.414996862411499,0.12000242620706558
1683129963425341200,18.328341064453124,-0.09373855590820312,0.3235992193222046,-0.10395132005214691
1683129963443179500,18.346179443359375,-0.017182350158691406,-0.25373339653015137,0.1269034445285797
1683129963461019100,18.36401904296875,-0.035186767578125,0.0018781423568725586,-0.1800222396850586
1683129963478856000,18.38185595703125,0.05024147033691406,0.07837092876434326,0.17582173645496368
1683129963496694300,18.3996943359375,0.09116172790527344,-0.16937875747680664,0.002750162035226822
1683129963514526200,18.417526123046876,-0.11127948760986328,0.21238458156585693,-0.18535058200359344
1683129963532370400,18.435370361328125,0.1833333969116211,-0.41677093505859375,0.10675516724586487
1683129963550208800,18.453208740234373,-0.1874370574951172,0.34824657440185547,-0.10414046794176102
1683129963568043800,18.471043701171876,-0.0054340362548828125,-0.3032320737838745,0.10823577642440796
1683129963585879600,18.488879638671875,-0.05013084411621094,0.05116736888885498,-0.1758391261100769
1683129963603720400,18.506720458984375,0.04502296447753906,0.04295802116394043,0.19945667684078217
1683129963621560800,18.524560791015624,0.0856313705444336,-0.1169745922088623,-0.046768758445978165
1683129963639396600,18.542396728515627,-0.09399795532226562,0.1986236572265625,-0.13790784776210785
1683129963657238000,18.560238037109375,0.20920753479003906,-0.42925703525543213,0.11195601522922516
1683129963675075800,18.578075927734375,-0.23282623291015625,0.3632277250289917,-0.11386394500732422
1683129963692910600,18.59591064453125,0.025514602661132812,-0.3625824451446533,0.08298537135124207
1683129963710752500,18.61375244140625,-0.10041618347167969,0.11313104629516602,-0.13345426321029663
1683129963728590800,18.6315908203125,0.0516510009765625,0.0046433210372924805,0.2374362349510193
1683129963746429000,18.649428955078125,0.09479808807373047,-0.09016907215118408,-0.07477933168411255
1683129963764258300,18.66725830078125,-0.048804283142089844,0.16870462894439697,-0.08780109882354736
1683129963782106600,18.685106689453125,0.1980152130126953,-0.40078216791152954,0.057329390197992325
1683129963799934700,18.702934814453126,-0.27603816986083984,0.3746892213821411,-0.1376669853925705
1683129963817782000,18.720781982421876,0.022054672241210938,-0.3984493017196655,0.0909329503774643
1683129963835614000,18.738614013671874,-0.09017562866210938,0.1890096664428711,-0.1003541350364685
1683129963853458400,18.75645849609375,0.029143333435058594,-0.0715416669845581,0.25916796922683716
1683129963871296300,18.774296142578127,0.06343841552734375,-0.022964119911193848,-0.1412561684846878
1683129963889134600,18.792134521484375,0.0050811767578125,0.09382164478302002,-0.06173780560493469
1683129963906968300,18.80996826171875,0.1296539306640625,-0.3479682207107544,0.03072381019592285
1683129963924810800,18.827810791015626,-0.2623004913330078,0.3814963102340698,-0.11443659663200378
1683129963942637000,18.845636962890627,0.09957027435302734,-0.41602593660354614,0.1371818631887436
1683129963960488400,18.863488525390625,-0.12201213836669922,0.2883265018463135,-0.06679476052522659
1683129963978325500,18.881325439453125,0.06211662292480469,-0.15993309020996094,0.1941496729850769
1683129963996164400,18.899164306640625,0.047799110412597656,0.047155022621154785,-0.18002009391784668
1683129964013990100,18.916990234375,0.01052093505859375,0.040137290954589844,0.04096316546201706
1683129964031839200,18.934839111328124,0.05516815185546875,-0.23117244243621826,0.014541776850819588
1683129964049678300,18.95267822265625,-0.1958456039428711,0.3256477117538452,-0.16318318247795105
1683129964067516700,18.9705166015625,0.07575321197509766,-0.4074944257736206,0.1329345405101776
1683129964085354500,18.9883544921875,-0.19362831115722656,0.33256781101226807,-0.09354288130998611
1683129964103193900,19.00619384765625,0.08148574829101562,-0.22529196739196777,0.15223821997642517
1683129964121031200,19.02403125,-0.007012367248535156,0.0440288782119751,-0.19610635936260223
1683129964138866700,19.04186669921875,0.022478103637695312,0.012076020240783691,0.11892277002334595
1683129964156703000,19.059702880859376,0.021753311157226562,-0.1764082908630371,-0.027119696140289307
1683129964174545400,19.07754541015625,-0.18980693817138672,0.2548825740814209,-0.15511512756347656
1683129964192372000,19.0953720703125,0.09230709075927734,-0.42675864696502686,0.15554147958755493
1683129964210222000,19.11322216796875,-0.16286659240722656,0.37903082370758057,-0.07854994386434555
1683129964228055600,19.1310556640625,0.08749866485595703,-0.23473238945007324,0.15530245006084442
1683129964245898200,19.148898193359376,-0.05929088592529297,0.1003868579864502,-0.1754295825958252
1683129964263736800,19.16673681640625,0.08348751068115234,-0.0469743013381958,0.17048239707946777
1683129964281574100,19.18457421875,-0.011102676391601562,-0.11036145687103271,-0.05182407423853874
1683129964299413000,19.2024130859375,-0.19816970825195312,0.2325066328048706,-0.135992169380188
1683129964317251000,19.2202509765625,0.11464309692382812,-0.40138715505599976,0.11225050687789917
1683129964335089200,19.238089111328126,-0.2449626922607422,0.38130879402160645,-0.1051466315984726
1683129964352926500,19.255926513671874,0.07433891296386719,-0.2889033555984497,0.11003930866718292
1683129964370753800,19.27375390625,-0.04467201232910156,0.15942895412445068,-0.14352889358997345
1683129964388603600,19.291603759765625,0.05802345275878906,-0.06366944313049316,0.2054048329591751
1683129964406439400,19.309439453125,-0.001300811767578125,-0.04089820384979248,-0.07856591045856476
1683129964424281300,19.32728125,-0.15140819549560547,0.16664791107177734,-0.1066443920135498
1683129964442118400,19.345118408203124,0.15573978424072266,-0.3971288204193115,0.09971950948238373
1683129964459957000,19.36295703125,-0.2371816635131836,0.388126015663147,-0.08035749197006226
1683129964477790200,19.380790283203126,0.04878044128417969,-0.32729780673980713,0.11634942889213562
1683129964495633000,19.3986328125,-0.08125495910644531,0.20520544052124023,-0.09495452046394348
1683129964513473800,19.416473876953123,0.09228801727294922,-0.06731641292572021,0.21954971551895142
1683129964531309600,19.4343095703125,-0.004267692565917969,0.010587334632873535,-0.14554330706596375
1683129964549149400,19.4521494140625,-0.14589214324951172,0.08104610443115234,-0.05746236816048622
1683129964566984200,19.469984130859373,0.12235450744628906,-0.34498143196105957,0.07793916016817093
1683129964584821000,19.487821044921876,-0.24514484405517578,0.4159514904022217,-0.08769096434116364
1683129964602660600,19.50566064453125,0.07289600372314453,-0.36752140522003174,0.11535923182964325
1683129964620489700,19.52348974609375,-0.09047222137451172,0.2819972038269043,-0.07030169665813446
1683129964638338800,19.5413388671875,0.09964942932128906,-0.14027249813079834,0.21820920705795288
1683129964656176600,19.5591767578125,-0.020689010620117188,0.04535269737243652,-0.16177476942539215
1683129964674002200,19.577002197265625,-0.058241844177246094,0.033046603202819824,-0.04291999712586403
1683129964691855400,19.59485546875,0.050787925720214844,-0.3099316358566284,0.03460783511400223
1683129964709691100,19.612691162109375,-0.26151371002197266,0.3873072862625122,-0.0606541708111763
1683129964727529500,19.630529541015626,0.16766643524169922,-0.38515591621398926,0.13372671604156494
1683129964745367300,19.6483671875,-0.1514110565185547,0.3161892890930176,-0.061129141598939896
1683129964763205600,19.66620556640625,0.1068716049194336,-0.19296300411224365,0.177263543009758
1683129964781044000,19.6840439453125,-0.019593238830566406,0.07357776165008545,-0.21019144356250763
1683129964798885000,19.701885009765626,-0.08297061920166016,-0.028523802757263184,0.0427507683634758
1683129964816720400,19.719720458984376,-0.017957687377929688,-0.20195138454437256,0.008592793717980385
1683129964834558500,19.737558349609376,-0.20358657836914062,0.34097719192504883,-0.07040325552225113
1683129964852396500,19.755396484375,0.14636802673339844,-0.3984651565551758,0.13732272386550903
1683129964870223000,19.77322314453125,-0.14220905303955078,0.37751126289367676,-0.0686594694852829
1683129964888061000,19.79106103515625,0.14270496368408203,-0.2585095167160034,0.09207834303379059
1683129964905900000,19.808900146484376,-0.08117866516113281,0.10117363929748535,-0.2119927704334259
1683129964923748400,19.826748291015626,0.02120494842529297,-0.07735633850097656,0.12907913327217102
1683129964941574700,19.84457470703125,-0.06735897064208984,-0.13836979866027832,-0.04435282200574875
1683129964959425800,19.86242578125,-0.23230266571044922,0.2908893823623657,-0.11460335552692413
1683129964977267000,19.880266845703126,0.20337486267089844,-0.37816321849823,0.13569539785385132
1683129964995096800,19.898096923828124,-0.23633575439453125,0.4040747880935669,-0.04837419092655182
1683129965012943400,19.915943359375,0.14934921264648438,-0.29016566276550293,0.10132503509521484
1683129965030781200,19.93378125,-0.08980464935302734,0.16440093517303467,-0.1503555029630661
1683129965048617200,19.9516171875,0.011315345764160156,-0.1356593370437622,0.15982367098331451
1683129965066455000,19.969455078125,-0.019074440002441406,-0.07862365245819092,-0.10864147543907166
1683129965084281600,19.987281494140625,-0.1711435317993164,0.2350553274154663,-0.050663869827985764
1683129965102131200,20.005131103515627,0.11024093627929688,-0.38158077001571655,0.11579258739948273
1683129965119969300,20.02296923828125,-0.2222614288330078,0.4071546792984009,-0.04563497006893158
1683129965137807400,20.040807373046874,0.1479654312133789,-0.29281747341156006,0.11307139694690704
1683129965155645700,20.058645751953126,-0.11622142791748047,0.24184107780456543,-0.132400780916214
1683129965173483800,20.07648388671875,0.04772377014160156,-0.18717610836029053,0.16134043037891388
1683129965191323100,20.0943232421875,-0.04985618591308594,-0.0047266483306884766,-0.1386997103691101
1683129965209160200,20.11216015625,-0.20184803009033203,0.13048553466796875,-0.02006058767437935
1683129965226998500,20.12999853515625,0.08798980712890625,-0.3573496341705322,0.07694131135940552
1683129965244830500,20.14783056640625,-0.2162637710571289,0.39641273021698,-0.05471741780638695
1683129965262674700,20.1656748046875,0.1483297348022461,-0.3168739080429077,0.1043018102645874
1683129965280514000,20.18351416015625,-0.05390644073486328,0.27161478996276855,-0.11960519105195999
1683129965298351000,20.20135107421875,0.020277976989746094,-0.19681847095489502,0.18500164151191711
1683129965316187600,20.219187744140626,-0.07242774963378906,0.0448002815246582,-0.17302626371383667
1683129965334028500,20.237028564453126,-0.12079143524169922,0.08770668506622314,0.009609140455722809
1683129965351870000,20.254869873046875,0.04633808135986328,-0.33491694927215576,0.03296267241239548
1683129965369691400,20.27269140625,-0.18599319458007812,0.3854144811630249,-0.05688415467739105
1683129965387530200,20.2905302734375,0.17358875274658203,-0.3283421993255615,0.12858153879642487
1683129965405368600,20.30836865234375,-0.13025569915771484,0.3026326894760132,-0.11673407256603241
1683129965423206100,20.3262060546875,0.07164764404296875,-0.2404019832611084,0.1535511612892151
1683129965441057300,20.344057373046876,-0.05872058868408203,0.047386765480041504,-0.20013943314552307
1683129965458882800,20.3618828125,-0.12021446228027344,0.028252720832824707,0.049996137619018555
1683129965476735200,20.3797353515625,0.016814231872558594,-0.24315547943115234,0.020671293139457703
1683129965494570500,20.397570556640623,-0.1928873062133789,0.3339974880218506,-0.03475482761859894
1683129965512410000,20.41541015625,0.20017719268798828,-0.3451927900314331,0.12708882987499237
1683129965530250200,20.433250244140623,-0.12116050720214844,0.3422647714614868,-0.10873017460107803
1683129965548085500,20.45108544921875,0.0792684555053711,-0.2986844778060913,0.11362603306770325
1683129965565916000,20.468916015625,-0.08493232727050781,0.07318770885467529,-0.18984051048755646
1683129965583762400,20.486762451171874,-0.10246753692626953,-0.07363450527191162,0.09954977035522461
1683129965601599200,20.50459912109375,-0.02532482147216797,-0.17272567749023438,-0.030749063938856125
1683129965619437800,20.522437744140625,-0.17149829864501953,0.31929469108581543,-0.010990194976329803
1683129965637271600,20.540271484375,0.2157726287841797,-0.3406248092651367,0.11291772127151489
1683129965655114000,20.558114013671876,-0.1680288314819336,0.3531835079193115,-0.0896405354142189
1683129965672952600,20.57595263671875,0.17242431640625,-0.3326026201248169,0.05278954282402992
1683129965690787600,20.59378759765625,-0.12466716766357422,0.1585623025894165,-0.15790437161922455
1683129965708628700,20.611628662109375,-0.023642539978027344,-0.15049242973327637,0.16586972773075104
1683129965726466800,20.629466796875,0.008875846862792969,-0.09579980373382568,-0.11167047917842865
1683129965744305000,20.647304931640626,-0.18208026885986328,0.27001726627349854,-0.0034523531794548035
1683129965762144300,20.665144287109374,0.1983957290649414,-0.3388078212738037,0.08861913532018661
1683129965779981600,20.682981689453126,-0.19709396362304688,0.3734663724899292,-0.08504456281661987
1683129965797819600,20.700819580078125,0.18487262725830078,-0.37735652923583984,0.049740225076675415
1683129965815658000,20.718657958984377,-0.14902210235595703,0.2436528205871582,-0.10668538510799408
1683129965833497000,20.7364970703125,-0.00804901123046875,-0.19202446937561035,0.17655372619628906
1683129965851334100,20.754334228515624,-0.04136371612548828,-0.03870272636413574,-0.16316616535186768
1683129965869172200,20.772172119140624,-0.14610004425048828,0.2054603099822998,0.047809794545173645
1683129965886998500,20.78999853515625,0.1587076187133789,-0.2822035551071167,0.06127644330263138
1683129965904845800,20.807845703125,-0.14917755126953125,0.35007739067077637,-0.12326500564813614
1683129965922688300,20.825688232421875,0.1591796875,-0.35718727111816406,0.09856811165809631
1683129965940525800,20.84352587890625,-0.11583423614501953,0.2659047842025757,-0.11173517256975174
1683129965958346800,20.8613466796875,-0.004535675048828125,-0.27275967597961426,0.12437914311885834
1683129965976201200,20.879201171875,-0.07633781433105469,0.0010818243026733398,-0.21914412081241608
1683129965994043600,20.897043701171874,-0.061305999755859375,0.10803782939910889,0.09323760867118835
1683129966011876400,20.91487646484375,0.0886240005493164,-0.2522159814834595,0.034833136945962906
1683129966029720000,20.932719970703126,-0.10153675079345703,0.3389378786087036,-0.0922059714794159
1683129966047554000,20.950553955078124,0.18973636627197266,-0.3868509531021118,0.13043253123760223
1683129966065394200,20.968394287109376,-0.15659236907958984,0.3251199722290039,-0.14155052602291107
1683129966083231500,20.9862314453125,0.03683757781982422,-0.2820848226547241,0.08960112929344177
1683129966101068500,21.004068603515623,-0.08055877685546875,0.023832321166992188,-0.2259945273399353
1683129966118906400,21.02190625,-0.05682849884033203,0.07076919078826904,0.14650721848011017
1683129966136744400,21.039744384765626,0.060357093811035156,-0.1872345209121704,-0.013598043471574783
1683129966154583600,21.05758349609375,-0.051659584045410156,0.30688583850860596,-0.06813783943653107
1683129966172420900,21.0754208984375,0.21968555450439453,-0.36029648780822754,0.08927710354328156
1683129966190259200,21.09325927734375,-0.19240188598632812,0.3215841054916382,-0.17015217244625092
1683129966208097300,21.11109716796875,0.0675058364868164,-0.3443171977996826,0.08806851506233215
1683129966225935400,21.128935302734376,-0.10835456848144531,0.10600805282592773,-0.1715143918991089
1683129966243777300,21.14677734375,-0.05087471008300781,-0.06724035739898682,0.18071448802947998
1683129966261610800,21.16461083984375,0.031912803649902344,-0.11267518997192383,-0.08199204504489899
1683129966279449600,21.18244970703125,-0.0028896331787109375,0.24447011947631836,-0.0030143223702907562
1683129966297287700,21.20028759765625,0.18925952911376953,-0.31509077548980713,0.06546733528375626
1683129966315123000,21.218123046875,-0.18796348571777344,0.32099854946136475,-0.16966308653354645
1683129966332963000,21.235963134765626,0.10230541229248047,-0.4069451093673706,0.06746421754360199
1683129966350802700,21.253802734375,-0.15144824981689453,0.21796000003814697,-0.1009490042924881
1683129966368640500,21.271640625,-0.012960433959960938,-0.1614924669265747,0.20816585421562195
1683129966386470100,21.28947021484375,0.03101825714111328,-0.038904428482055664,-0.15705223381519318
1683129966404317700,21.307317626953125,-0.005646705627441406,0.17987465858459473,0.05237008258700371
1683129966422151700,21.325151611328124,0.1693410873413086,-0.28368449211120605,0.037190575152635574
1683129966439992800,21.342992919921876,-0.14775943756103516,0.3509500026702881,-0.15390759706497192
1683129966457831200,21.3608310546875,0.14435577392578125,-0.4185311794281006,0.09181621670722961
1683129966475670300,21.378670166015624,-0.11859512329101562,0.2962554693222046,-0.10848135501146317
1683129966493510700,21.3965107421875,-0.07930850982666016,-0.23786544799804688,0.15524618327617645
1683129966511345700,21.414345703125,0.005480766296386719,-0.055033206939697266,-0.21759995818138123
1683129966529188400,21.432188232421876,0.0027751922607421875,0.13770627975463867,0.11674883961677551
1683129966547022000,21.45002197265625,0.16548824310302734,-0.20796597003936768,0.021570369601249695
1683129966564860000,21.46785986328125,-0.08754444122314453,0.24252808094024658,-0.17908263206481934
1683129966582698500,21.485698486328126,0.20480728149414062,-0.4219288229942322,0.11175274848937988
1683129966600537300,21.503537353515625,-0.18654155731201172,0.3467139005661011,-0.1394440084695816
1683129966618376000,21.5213759765625,-0.025208473205566406,-0.28990209102630615,0.07839519530534744
1683129966636212500,21.53921240234375,-0.03900432586669922,0.04103553295135498,-0.2082633078098297
1683129966654044700,21.557044677734375,0.00373077392578125,0.07454991340637207,0.19958645105361938
1683129966671889000,21.574888916015624,0.09058189392089844,-0.13998210430145264,-0.030611541122198105
1683129966689727000,21.59272705078125,-0.053206443786621094,0.22828209400177002,-0.125026673078537
1683129966707565600,21.610565673828123,0.2551765441894531,-0.3969482183456421,0.1042761504650116
1683129966725403400,21.6284033203125,-0.24653244018554688,0.3579143285751343,-0.16568560898303986
1683129966743241500,21.646241455078126,0.02960681915283203,-0.3762086033821106,0.05428024381399155
1683129966761079600,21.66407958984375,-0.055171966552734375,0.12916529178619385,-0.126585453748703
1683129966778920400,21.68192041015625,-0.004323005676269531,-0.017510294914245605,0.238222137093544
1683129966796756200,21.699756103515625,0.03838348388671875,-0.10215067863464355,-0.0892735943198204
1683129966814594000,21.717593994140625,0.02603912353515625,0.1700294017791748,-0.08782229572534561
1683129966832432400,21.735432373046876,0.14820575714111328,-0.35823535919189453,0.04959569126367569
1683129966850273500,21.7532734375,-0.29283714294433594,0.37701523303985596,-0.15032272040843964
1683129966868108500,21.771108642578124,0.0720052719116211,-0.397402286529541,0.11381644010543823
1683129966885943600,21.788943603515627,-0.06400108337402344,0.24409902095794678,-0.09024623036384583
