time,seconds_elapsed,z,y,x
1683132934442494500,0.096494384765625,9.385847091674805,1.573280930519104,0.06281159073114395
1683132934460151300,0.1141513671875,9.970293998718262,0.836291491985321,-0.18544375896453857
1683132934477999400,0.131999267578125,9.556933403015137,1.8185452222824097,0.25363919138908386
1683132934495832300,0.149832275390625,9.702896118164062,0.7016952633857727,-0.005982056725770235
1683132934513676800,0.1676767578125,9.561718940734863,1.827518343925476,0.12502498924732208
1683132934531511600,0.185511474609375,9.912267684936523,0.7932206988334656,-0.03349951654672623
1683132934549356800,0.203356689453125,9.372088432312012,1.784447431564331,0.0526420995593071
1683132934567191300,0.22119140625,9.869196891784668,0.7740781307220459,0.09032905846834183
1683132934585030100,0.239030029296875,9.476176261901855,1.7892330884933472,0.07238288223743439
1683132934602865400,0.256865478515625,9.77826976776123,0.7692924737930298,0.1657029688358307
1683132934620710400,0.27471044921875,9.515059471130371,1.7413766384124756,-0.05144568532705307
1683132934638547200,0.292547119140625,9.830911636352539,0.8410771489143372,0.1902294009923935
1683132934656385300,0.31038525390625,9.495916366577148,1.6019947528839111,-0.14656038582324982
1683132934674222800,0.328222900390625,9.726225852966309,0.9517452120780945,0.27038896083831787
1683132934692061400,0.3460615234375,9.562317848205566,1.4919248819351196,-0.1788634955883026
1683132934709889500,0.3638896484375,9.716654777526855,1.0139585733413696,0.29371899366378784
1683132934727728000,0.38172802734375,9.667003631591797,1.4775680303573608,-0.24047867953777313
1683132934745577200,0.3995771484375,9.740582466125488,1.0857433080673218,0.3032902777194977
1683132934763416800,0.417416748046875,9.719047546386719,1.3722838163375854,-0.21176479756832123
1683132934781254400,0.43525439453125,9.641280174255371,1.272383451461792,0.26440688967704773
1683132934799094000,0.453093994140625,9.894919395446777,1.2478569746017456,-0.19621145725250244
1683132934816931600,0.470931640625,9.6795654296875,1.3441680669784546,0.2554338276386261
1683132934834771500,0.488771484375,9.842277526855469,1.1665010452270508,-0.15314064919948578
1683132934852608800,0.50660888671875,9.585049629211426,1.44945228099823,0.13519448041915894
1683132934870449000,0.524448974609375,9.908080101013184,0.9990034699440002,-0.06699903309345245
1683132934888285000,0.542284912109375,9.55214786529541,1.6839489936828613,0.1824527233839035
1683132934906126800,0.560126953125,9.993623733520508,0.8697910308837891,-0.0568295381963253
1683132934923960000,0.5779599609375,9.53779125213623,1.7270197868347168,0.12023933976888657
1683132934941805000,0.59580517578125,9.931410789489746,0.8027920126914978,0.009571290574967861
1683132934959641900,0.613641845703125,9.495318412780762,1.7461622953414917,0.11545369029045105
1683132934977480400,0.63148046875,9.926624298095703,0.7645068168640137,0.038285162299871445
1683132934995317800,0.64931787109375,9.424132347106934,1.846660852432251,0.09571290761232376
1683132935013153000,0.667153076171875,9.92124080657959,0.7597211599349976,0.10468599200248718
1683132935030996700,0.684996826171875,9.504889488220215,1.8035900592803955,0.03469592705368996
1683132935048833500,0.70283349609375,9.826126098632812,0.8219345808029175,0.1663011759519577
1683132935066672000,0.720672119140625,9.514460563659668,1.6354942321777344,-0.06999006122350693
1683132935084512000,0.738511962890625,9.80219841003418,0.9182456731796265,0.251844584941864
1683132935102349300,0.756349365234375,9.54796028137207,1.5828521251678467,-0.15074782073497772
1683132935120189400,0.774189453125,9.759725570678711,0.966102123260498,0.2799602448940277
1683132935138026800,0.79202685546875,9.600603103637695,1.506281852722168,-0.19800607860088348
1683132935155855000,0.809855224609375,9.745368003845215,1.0713863372802734,0.3032902777194977
1683132935173703700,0.82770361328125,9.581459999084473,1.3860424757003784,-0.25064817070961
1683132935191543300,0.845543212890625,9.736394882202148,1.1479566097259521,0.2841476798057556
1683132935209381000,0.863381103515625,9.719047546386719,1.3435698747634888,-0.2350948303937912
1683132935227220700,0.881220703125,9.669994354248047,1.2484551668167114,0.2883351147174835
1683132935245058600,0.89905859375,9.861420631408691,1.2382856607437134,-0.16749759018421173
1683132935262890000,0.916889892578125,9.561120986938477,1.4159528017044067,0.19740787148475647
1683132935280738000,0.934738037109375,9.923035621643066,1.0707881450653076,-0.09571290761232376
1683132935298574800,0.952574951171875,9.651450157165527,1.5499508380889893,0.18783657252788544
1683132935316412400,0.970412353515625,9.89850902557373,0.9750752449035645,-0.08135596662759781
1683132935334247700,0.98824755859375,9.55214786529541,1.5978072881698608,0.09212367236614227
1683132935352089000,1.006089111328125,9.9409818649292,0.8458628058433533,0.019142581149935722
1683132935369929500,1.023929443359375,9.442676544189453,1.7796618938446045,0.14356936514377594
1683132935387764200,1.04176416015625,10.0073823928833,0.7549355626106262,-0.004187439568340778
1683132935405610000,1.05960986328125,9.476176261901855,1.8370895385742188,0.12502498924732208
1683132935423444000,1.07744384765625,9.883553504943848,0.7405785918235779,0.0568295381963253
1683132935441283800,1.095283935546875,9.490532875061035,1.755733609199524,0.048454657196998596
1683132935459121700,1.11312158203125,9.854840278625488,0.7740781307220459,0.11425728350877762
1683132935476949000,1.130948974609375,9.462417602539062,1.7365909814834595,0.0011964113218709826
1683132935494798600,1.148798583984375,9.77826976776123,0.8458628058433533,0.2183450609445572
1683132935512638500,1.166638427734375,9.552745819091797,1.6546368598937988,-0.11306086927652359
1683132935530474200,1.18447412109375,9.845269203186035,0.8889335989952087,0.23270200192928314
1683132935548316000,1.20231591796875,9.543174743652344,1.5254244804382324,-0.17946170270442963
1683132935566154000,1.220154052734375,9.716654777526855,1.028315544128418,0.31764721870422363
1683132935583988000,1.237988037109375,9.638289451599121,1.4536397457122803,-0.2309073805809021
1683132935601825000,1.255824951171875,9.707083702087402,1.0809576511383057,0.3367897868156433
1683132935619669800,1.273669677734375,9.657432556152344,1.3818551301956177,-0.24047867953777313
1683132935637507300,1.29150732421875,9.731609344482422,1.1958130598068237,0.26500511169433594
1683132935655342000,1.309342041015625,9.795019149780273,1.2717852592468262,-0.19202402234077454
1683132935673184800,1.327184814453125,9.6795654296875,1.3728820085525513,0.24586252868175507
1683132935691024100,1.345024169921875,9.870991706848145,1.1665010452270508,-0.14835500717163086
1683132935708850000,1.362849853515625,9.589237213134766,1.4111671447753906,0.19740787148475647
1683132935726702300,1.380702392578125,9.91286563873291,1.0660024881362915,-0.07657032459974289
1683132935744535000,1.39853515625,9.53779125213623,1.5882359743118286,0.13040883839130402
1683132935762382300,1.41638232421875,9.945767402648926,0.9032905697822571,0
1683132935780214000,1.434214111328125,9.504889488220215,1.7653049230575562,0.14895321428775787
1683132935798058200,1.452058349609375,10.012167930603027,0.7932206988334656,-0.03290131315588951
1683132935815893000,1.46989306640625,9.480961799621582,1.76051926612854,0.09631111472845078
1683132935833720800,1.487720947265625,9.91705322265625,0.778863787651062,0.05742774158716202
1683132935851570400,1.5055703125,9.485747337341309,1.7940187454223633,0.06759724020957947
1683132935869410300,1.523410400390625,9.90269660949707,0.7549355626106262,0.0568295381963253
1683132935887247600,1.54124755859375,9.44327449798584,1.827518343925476,0.06281159073114395
1683132935905079800,1.559079833984375,9.887741088867188,0.7501499056816101,0.14775680005550385
1683132935922924500,1.576924560546875,9.53360366821289,1.7222341299057007,-0.05563312768936157
1683132935940767200,1.594767333984375,9.77408218383789,0.8458628058433533,0.1704886108636856
1683132935958581200,1.612581298828125,9.476774215698242,1.5780665874481201,-0.10348957777023315
1683132935976433700,1.63043359375,9.750154495239258,0.9421738982200623,0.28953152894973755
1683132935994279000,1.64827880859375,9.638289451599121,1.5445669889450073,-0.20757736265659332
1683132936012119000,1.666119140625,9.773484230041504,1.0091729164123535,0.3326023519039154
1683132936029955300,1.683955322265625,9.614361763000488,1.444068431854248,-0.21714866161346436
1683132936047797200,1.70179736328125,9.740582466125488,1.1383854150772095,0.29850462079048157
1683132936065633500,1.719633544921875,9.733404159545898,1.353141188621521,-0.23988047242164612
1683132936083461600,1.737461669921875,9.65085220336914,1.210170030593872,0.2787638306617737
1683132936101310200,1.755310302734375,9.78544807434082,1.2813565731048584,-0.20159530639648438
1683132936119142400,1.773142333984375,9.68913745880127,1.2867404222488403,0.20757736265659332
1683132936136988000,1.79098779296875,9.808777809143066,1.176072359085083,-0.09631111472845078
1683132936154827500,1.80882763671875,9.5324068069458,1.51166570186615,0.19202402234077454
1683132936172663000,1.8266630859375,10.012765884399414,1.022931694984436,-0.07118647545576096
1683132936190509300,1.84450927734375,9.561120986938477,1.6217355728149414,0.17288143932819366
1683132936208323300,1.8623232421875,9.955338478088379,0.9367900490760803,-0.04307080805301666
1683132936226178000,1.880177978515625,9.53779125213623,1.6600207090377808,0.08733802288770676
1683132936244020000,1.89802001953125,9.90269660949707,0.8171489238739014,0.03349951654672623
1683132936261858800,1.91585888671875,9.438488960266113,1.827518343925476,0.11006984114646912
1683132936279697000,1.93369677734375,10.02173900604248,0.7549355626106262,0.005383851006627083
1683132936297537800,1.951537841796875,9.448060035705566,1.851446509361267,0.10049854964017868
1683132936315372300,1.969372314453125,9.864411354064941,0.7357929348945618,0.06161518394947052
1683132936333213400,1.98721337890625,9.514460563659668,1.7413766384124756,0.015553346835076809
1683132936351038200,2.0050380859375,9.845269203186035,0.8075776696205139,0.14715859293937683
1683132936368892000,2.022891845703125,9.44327449798584,1.6977076530456543,-0.013160524889826775
1683132936386728200,2.040728271484375,9.845269203186035,0.875174880027771,0.23270200192928314
1683132936404565000,2.05856494140625,9.562317848205566,1.6211373805999756,-0.13639089465141296
1683132936422408700,2.07640869140625,9.778867721557617,0.9080761671066284,0.24227328598499298
1683132936440244700,2.09424462890625,9.552745819091797,1.5302101373672485,-0.16031911969184875
1683132936458082300,2.112082275390625,9.697511672973633,1.0474581718444824,0.32243284583091736
1683132936475922200,2.129922119140625,9.638289451599121,1.4249259233474731,-0.24047867953777313
1683132936493756000,2.147755859375,9.759725570678711,1.1240284442901611,0.3367897868156433
1683132936511599000,2.16559912109375,9.643074989318848,1.357926845550537,-0.2356930375099182
1683132936529434000,2.18343408203125,9.717252731323242,1.210170030593872,0.26500511169433594
1683132936547279600,2.201279541015625,9.7998046875,1.2765709161758423,-0.20159530639648438
1683132936565114400,2.2191142578125,9.641280174255371,1.3250255584716797,0.21714866161346436
1683132936582953700,2.23695361328125,9.861420631408691,1.176072359085083,-0.15314064919948578
1683132936600791600,2.25479150390625,9.589237213134766,1.4159528017044067,0.19262222945690155
1683132936618622200,2.272622314453125,9.965508460998535,1.042074203491211,-0.08135596662759781
1683132936636469000,2.290468994140625,9.533005714416504,1.5978072881698608,0.14895321428775787
1683132936654305300,2.30830517578125,9.950552940368652,0.8937192559242249,-0.009571290574967861
1683132936672142300,2.326142333984375,9.533005714416504,1.7461622953414917,0.16331014037132263
1683132936689988000,2.343988037109375,9.960124015808105,0.7980063557624817,-0.028115665540099144
1683132936707823000,2.361822998046875,9.500103950500488,1.755733609199524,0.09631111472845078
1683132936725659600,2.37965966796875,9.964311599731445,0.7645068168640137,0.038285162299871445
1683132936743502600,2.397502685546875,9.424132347106934,1.8035900592803955,0.08614161610603333
1683132936761339600,2.415339599609375,9.907482147216797,0.7549355626106262,0.0568295381963253
1683132936779174400,2.43317431640625,9.476774215698242,1.8370895385742188,0.08195417374372482
1683132936797020000,2.45102001953125,9.878767967224121,0.7597211599349976,0.14775680005550385
1683132936814854400,2.4688544921875,9.476774215698242,1.7216359376907349,-0.04187439754605293
1683132936832690200,2.486690185546875,9.811769485473633,0.8602197170257568,0.18005990982055664
1683132936850531300,2.50453125,9.500103950500488,1.6163517236709595,-0.0891326442360878
1683132936868370700,2.52237060546875,9.759725570678711,0.9565308690071106,0.28953152894973755
1683132936886209500,2.54020947265625,9.600603103637695,1.5589239597320557,-0.20757736265659332
1683132936904049000,2.558048828125,9.806983947753906,0.9804590940475464,0.3086741268634796
1683132936921886200,2.57588623046875,9.591031074523926,1.4344971179962158,-0.21236300468444824
1683132936939727400,2.593727294921875,9.717252731323242,1.1001001596450806,0.28893333673477173
1683132936957561300,2.611561279296875,9.723833084106445,1.3435698747634888,-0.2350948303937912
1683132936975389200,2.62938916015625,9.664610862731934,1.1958130598068237,0.3026920557022095
1683132936993235500,2.6472353515625,9.766305923461914,1.3052847385406494,-0.19202402234077454
1683132937011080200,2.665080078125,9.636494636535645,1.2819547653198242,0.24526432156562805
1683132937028917800,2.682917724609375,9.823135375976562,1.1856436729431152,-0.12502498924732208
1683132937046757400,2.70075732421875,9.622735977172852,1.4590235948562622,0.18783657252788544
1683132937064593400,2.718593505859375,9.92243766784668,1.046859860420227,-0.07178468257188797
1683132937082435600,2.736435546875,9.618548393249512,1.5738791227340698,0.16869398951530457
1683132937100271900,2.75427197265625,9.951150894165039,0.9607182741165161,-0.04785645380616188
1683132937118112000,2.772112060546875,9.480961799621582,1.6313068866729736,0.1010967567563057
1683132937135949300,2.78994921875,9.936196327209473,0.8458628058433533,0.019142581149935722
1683132937153789000,2.807788818359375,9.476176261901855,1.82273268699646,0.129810631275177
1683132937171626200,2.825626220703125,9.964311599731445,0.7405785918235779,0.0005982056609354913
1683132937189466400,2.84346630859375,9.448060035705566,1.8418751955032349,0.11006984114646912
1683132937207303200,2.86130322265625,9.940383911132812,0.7310073375701904,0.062213387340307236
1683132937225131800,2.8791318359375,9.480961799621582,1.7509479522705078,0.03409772366285324
1683132937242980400,2.89698046875,9.869196891784668,0.778863787651062,0.11904292553663254
1683132937260814300,2.914814453125,9.476774215698242,1.7461622953414917,0.02512463741004467
1683132937278658000,2.932657958984375,9.840482711791992,0.8219345808029175,0.21415762603282928
1683132937296497700,2.95049755859375,9.528818130493164,1.6737794876098633,-0.09391828626394272
1683132937314330000,2.968330078125,9.806983947753906,0.908674418926239,0.22791635990142822
1683132937332175600,2.986175537109375,9.519247055053711,1.5445669889450073,-0.16031911969184875
1683132937350012400,3.004012451171875,9.726225852966309,1.028315544128418,0.31764721870422363
1683132937367852300,3.021852294921875,9.629316329956055,1.506281852722168,-0.22193430364131927
1683132937385689300,3.039689453125,9.716654777526855,1.095314621925354,0.32721850275993347
1683132937403529000,3.057529052734375,9.686145782470703,1.4105689525604248,-0.25004997849464417
1683132937421366500,3.075366455078125,9.707681655883789,1.1670992374420166,0.26500511169433594
1683132937439204900,3.093204833984375,9.804591178894043,1.2957134246826172,-0.21595224738121033
1683132937457045800,3.111045654296875,9.684351921081543,1.2915260791778564,0.24107688665390015
1683132937474871000,3.12887109375,9.827920913696289,1.2047861814498901,-0.17228323221206665
1683132937492710100,3.146710205078125,9.66520881652832,1.3776676654815674,0.22193430364131927
1683132937510563000,3.16456298828125,9.860821723937988,1.109073281288147,-0.08195417374372482
1683132937528386000,3.182385986328125,9.542576789855957,1.578664779663086,0.1495514214038849
1683132937546238000,3.200238037109375,9.979267120361328,0.9320043921470642,-0.019142581149935722
1683132937564072700,3.21807275390625,9.509077072143555,1.7174484729766846,0.1585244983434677
1683132937581914000,3.2359140625,9.974481582641602,0.8315058946609497,-0.018544375896453857
1683132937599752400,3.25375244140625,9.504889488220215,1.7270197868347168,0.08673982322216034
1683132937617592000,3.271592041015625,9.897911071777344,0.7932206988334656,0.02392822690308094
1683132937635415600,3.28941552734375,9.466604232788086,1.784447431564331,0.07238288223743439
1683132937653272000,3.30727197265625,9.931410789489746,0.7405785918235779,0.02392822690308094
1683132937671106300,3.325106201171875,9.424132347106934,1.8035900592803955,0.09571290761232376
1683132937688947500,3.342947509765625,9.845269203186035,0.7166503667831421,0.09990034252405167
1683132937706784300,3.3607841796875,9.543174743652344,1.7222341299057007,-0.022133609279990196
1683132937724620800,3.378620849609375,9.78843879699707,0.8075776696205139,0.15194423496723175
1683132937742462700,3.396462646484375,9.462417602539062,1.6163517236709595,-0.061016976833343506
1683132937760300300,3.41430029296875,9.759725570678711,0.9373882412910461,0.275174617767334
1683132937778139600,3.4321396484375,9.528818130493164,1.5589239597320557,-0.18424734473228455
1683132937795977500,3.4499775390625,9.79262638092041,0.966102123260498,0.29431718587875366
1683132937813816300,3.46781640625,9.5862455368042,1.4727823734283447,-0.20757736265659332
1683132937831655700,3.48565576171875,9.716654777526855,1.0857433080673218,0.29371899366378784
1683132937849491200,3.5034912109375,9.695717811584473,1.3722838163375854,-0.24047867953777313
1683132937867317800,3.52131787109375,9.68375301361084,1.1766705513000488,0.3122633695602417
1683132937885170200,3.539170166015625,9.723833084106445,1.3196417093276978,-0.22073788940906525
1683132937903010000,3.557010009765625,9.717252731323242,1.272383451461792,0.2554338276386261
1683132937920844500,3.574844482421875,9.80937671661377,1.2239288091659546,-0.17288143932819366
1683132937938677000,3.592677001953125,9.579665184020996,1.4111671447753906,0.19262222945690155
1683132937956513000,3.610512939453125,9.91825008392334,1.089930772781372,-0.09092725813388824
1683132937974355200,3.628355224609375,9.604191780090332,1.5308083295822144,0.18783657252788544
1683132937992195600,3.646195556640625,9.888937950134277,0.9750752449035645,-0.05742774158716202
1683132938010029800,3.66402978515625,9.485747337341309,1.6217355728149414,0.09152546525001526
1683132938027867400,3.681867431640625,9.979267120361328,0.8554341197013855,0.009571290574967861
1683132938045721900,3.699721923828125,9.42891788482666,1.7892330884933472,0.1052841991186142
1683132938063546000,3.717546142578125,10.012167930603027,0.7692924737930298,-0.028115665540099144
1683132938081385000,3.735385009765625,9.500103950500488,1.8083757162094116,0.1010967567563057
1683132938099228400,3.753228515625,9.88833999633789,0.745364248752594,0.0568295381963253
1683132938117062700,3.771062744140625,9.467203140258789,1.76051926612854,0.019740786403417587
1683132938134902500,3.788902587890625,9.88833999633789,0.7549355626106262,0.09511470049619675
1683132938152749300,3.806749267578125,9.44327449798584,1.784447431564331,0.03409772366285324
1683132938170579500,3.824579345703125,9.854840278625488,0.8075776696205139,0.18065811693668365
1683132938188427500,3.842427490234375,9.619147300720215,1.7030915021896362,-0.0364905446767807
1683132938206254600,3.860254638671875,9.797411918640137,0.8697910308837891,0.22791635990142822
1683132938224090000,3.878090087890625,9.476774215698242,1.5397813320159912,-0.1417747437953949
1683132938241942000,3.89594189453125,9.740582466125488,0.9804590940475464,0.28953152894973755
1683132938259779000,3.913779052734375,9.591031074523926,1.5014961957931519,-0.2315055876970291
1683132938277612500,3.931612548828125,9.721440315246582,1.0378868579864502,0.32243284583091736
1683132938295459600,3.94945947265625,9.633503913879395,1.3962119817733765,-0.25004997849464417
1683132938313296400,3.96729638671875,9.79801082611084,1.1383854150772095,0.28953152894973755
1683132938331122000,3.985121826171875,9.704689979553223,1.3196417093276978,-0.23988047242164612
1683132938348977000,4.002976806640625,9.626923561096191,1.2436695098876953,0.25004997849464417
1683132938366813700,4.020813720703125,9.7998046875,1.2813565731048584,-0.17766708135604858
1683132938384648200,4.038648193359375,9.6795654296875,1.3298112154006958,0.2267199456691742
1683132938402493400,4.056493408203125,9.81356430053711,1.1521440744400024,-0.11066804826259613
1683132938420328400,4.074328369140625,9.54197883605957,1.4829518795013428,0.13040883839130402
1683132938438164200,4.092164306640625,10.02712345123291,0.9846464991569519,-0.047258246690034866
1683132938456006100,4.110006103515625,9.542576789855957,1.6408780813217163,0.1537388563156128
1683132938473848300,4.127848388671875,9.93679428100586,0.8793623447418213,-0.062213387340307236
1683132938491682800,4.145682861328125,9.542576789855957,1.6265212297439575,0.05383851006627083
1683132938509522700,4.163522705078125,9.91705322265625,0.8315058946609497,0.03349951654672623
1683132938527349000,4.181348876953125,9.381061553955078,1.7988044023513794,0.12921242415905
1683132938545199600,4.19919970703125,9.945767402648926,0.7357929348945618,0
1683132938563032800,4.21703271484375,9.462417602539062,1.8849459886550903,0.11964113265275955
1683132938580881400,4.23488134765625,9.921838760375977,0.7405785918235779,0.06699903309345245
1683132938598714600,4.252714599609375,9.42891788482666,1.7700905799865723,0.03409772366285324
1683132938616553700,4.2705537109375,9.869196891784668,0.7740781307220459,0.11425728350877762
1683132938634391800,4.288391845703125,9.476176261901855,1.6839489936828613,-0.003589233849197626
1683132938652230000,4.30622998046875,9.797411918640137,0.8554341197013855,0.22791635990142822
1683132938670070000,4.324070068359375,9.515059471130371,1.6498512029647827,-0.1178465187549591
1683132938687908900,4.341908935546875,9.845269203186035,0.8943174481391907,0.24227328598499298
1683132938705746000,4.359745849609375,9.491130828857422,1.5445669889450073,-0.1698904037475586
1683132938723581200,4.377581298828125,9.726225852966309,1.0235298871994019,0.28893333673477173
1683132938741423000,4.395423095703125,9.619147300720215,1.439282774925232,-0.21714866161346436
1683132938759262700,4.4132626953125,9.745368003845215,1.090528964996338,0.3080759048461914
1683132938777100500,4.4311005859375,9.671789169311523,1.4009976387023926,-0.25004997849464417
1683132938794940700,4.448940673828125,9.740582466125488,1.1527422666549683,0.3080759048461914
1683132938812773400,4.4667734375,9.723833084106445,1.262213945388794,-0.22073788940906525
1683132938830619000,4.484618896484375,9.66520881652832,1.3154542446136475,0.23629122972488403
1683132938848457500,4.50245751953125,9.89013385772705,1.176072359085083,-0.17228323221206665
1683132938866284000,4.520283935546875,9.637093544006348,1.3728820085525513,0.21176479756832123
1683132938884129300,4.53812939453125,9.799206733703613,1.1042876243591309,-0.12502498924732208
1683132938901959400,4.55595947265625,9.5802640914917,1.4973087310791016,0.0975075215101242
1683132938919809300,4.573809326171875,9.955338478088379,0.9607182741165161,-0.014356935396790504
1683132938937649400,4.5916494140625,9.499505996704102,1.688734531402588,0.1537388563156128
1683132938955489800,4.60948974609375,9.945767402648926,0.836291491985321,-0.0568295381963253
1683132938973322000,4.627322021484375,9.514460563659668,1.7700905799865723,0.09631111472845078
1683132938991164000,4.645163818359375,9.973882675170898,0.7597211599349976,-0.008973085321485996
1683132939008999000,4.6629990234375,9.419346809387207,1.7509479522705078,0.10049854964017868
1683132939026840800,4.6808408203125,9.893125534057617,0.745364248752594,0.0568295381963253
1683132939044673300,4.69867333984375,9.414560317993164,1.8323038816452026,0.09571290761232376
1683132939062521000,4.71652099609375,9.869196891784668,0.7214360237121582,0.09032905846834183
1683132939080358100,4.734358154296875,9.438488960266113,1.8083757162094116,0.03888336941599846
1683132939098196000,4.752196044921875,9.864411354064941,0.7692924737930298,0.1333998590707779
1683132939116034800,4.770034912109375,9.438488960266113,1.659422516822815,-0.07058826833963394
1683132939133877800,4.787877685546875,9.764511108398438,0.8841479420661926,0.20877377688884735
1683132939151712500,4.80571240234375,9.538389205932617,1.592423439025879,-0.11724831163883209
1683132939169549300,4.82354931640625,9.81655502319336,0.9134600162506104,0.2709871530532837
1683132939187395600,4.8413955078125,9.543174743652344,1.5302101373672485,-0.21236300468444824
1683132939205227300,4.859227294921875,9.77408218383789,1.028315544128418,0.28953152894973755
1683132939223060500,4.877060546875,9.619147300720215,1.420140266418457,-0.21236300468444824
1683132939240907300,4.8949072265625,9.659825325012207,1.1623135805130005,0.3074777126312256
1683132939258749400,4.91274951171875,9.747760772705078,1.353141188621521,-0.24466611444950104
1683132939276581600,4.93058154296875,9.778867721557617,1.2005987167358398,0.32243284583091736
1683132939294417200,4.948417236328125,9.704689979553223,1.2861422300338745,-0.19262222945690155
1683132939312259300,4.96625927734375,9.641879081726074,1.3202399015426636,0.18843477964401245
1683132939330099000,4.984098876953125,9.899106979370117,1.1617153882980347,-0.15314064919948578
1683132939347934700,5.001934814453125,9.551549911499023,1.4638092517852783,0.19262222945690155
1683132939365773000,5.01977294921875,9.917651176452637,1.0325030088424683,-0.07657032459974289
1683132939383613700,5.03761376953125,9.613762855529785,1.5547364950180054,0.12083754688501358
1683132939401453600,5.05545361328125,9.960124015808105,0.9080761671066284,-0.038285162299871445
1683132939419289600,5.07328955078125,9.452247619628906,1.7078771591186523,0.12023933976888657
1683132939437132000,5.091132080078125,9.926624298095703,0.8315058946609497,0.02392822690308094
1683132939454968300,5.10896826171875,9.433703422546387,1.827518343925476,0.14835500717163086
1683132939472801300,5.12680126953125,10.016953468322754,0.7549355626106262,0.024526432156562805
1683132939490647000,5.14464697265625,9.471389770507812,1.8131613731384277,0.10588239878416061
1683132939508486400,5.162486328125,9.830911636352539,0.7357929348945618,0.07597211748361588
1683132939526323000,5.180322998046875,9.481559753417969,1.7796618938446045,0.015553346835076809
1683132939544162600,5.19816259765625,9.864411354064941,0.7740781307220459,0.09990034252405167
1683132939562000000,5.215999755859375,9.448060035705566,1.7940187454223633,0.03409772366285324
1683132939579839500,5.233839599609375,9.911669731140137,0.8273184299468994,0.18065811693668365
1683132939597677300,5.25167724609375,9.491130828857422,1.6498512029647827,-0.09870393574237823
1683132939615512000,5.269511962890625,9.764511108398438,0.9176474809646606,0.21355941891670227
1683132939633354500,5.2873544921875,9.552745819091797,1.5445669889450073,-0.13639089465141296
1683132939651201800,5.305201904296875,9.745368003845215,1.0235298871994019,0.32243284583091736
1683132939669019600,5.32301953125,9.605388641357422,1.4919248819351196,-0.24107688665390015
1683132939686867200,5.3408671875,9.797411918640137,1.0713863372802734,0.355932354927063
1683132939704706000,5.3587060546875,9.628718376159668,1.3962119817733765,-0.2356930375099182
1683132939722551600,5.376551513671875,9.66939640045166,1.1766705513000488,0.2745763957500458
1683132939740384800,5.394384765625,9.80937671661377,1.3196417093276978,-0.23449662327766418
1683132939758224600,5.412224609375,9.641280174255371,1.2580264806747437,0.26919254660606384
1683132939776062000,5.43006201171875,9.747162818908691,1.2574282884597778,-0.17766708135604858
1683132939793894700,5.447894775390625,9.698708534240723,1.3728820085525513,0.16929219663143158
1683132939811739600,5.46573974609375,9.870393753051758,1.109073281288147,-0.11485548317432404
1683132939829581800,5.483581787109375,9.53779125213623,1.5499508380889893,0.1495514214038849
1683132939847418000,5.501418212890625,9.993623733520508,0.9990034699440002,-0.03349951654672623
1683132939865257700,5.5192578125,9.533005714416504,1.6552350521087646,0.16331014037132263
1683132939883094300,5.53709423828125,9.955338478088379,0.9320043921470642,-0.02392822690308094
1683132939900931800,5.554931884765625,9.490532875061035,1.6983058452606201,0.08673982322216034
1683132939918773500,5.5727734375,9.931410789489746,0.8267202377319336,0.019142581149935722
1683132939936607500,5.590607421875,9.438488960266113,1.8323038816452026,0.10049854964017868
1683132939954450200,5.6084501953125,9.945767402648926,0.745364248752594,0
1683132939972289000,5.6262890625,9.409774780273438,1.846660852432251,0.10049854964017868
1683132939990127400,5.64412744140625,9.907482147216797,0.7262216806411743,0.06699903309345245
1683132940007967200,5.66196728515625,9.471988677978516,1.7365909814834595,-0.013160524889826775
1683132940025792300,5.679792236328125,9.864411354064941,0.8075776696205139,0.11904292553663254
1683132940043644200,5.69764404296875,9.538389205932617,1.6983058452606201,-0.012562318705022335
1683132940061480700,5.715480712890625,9.830911636352539,0.8656035661697388,0.24227328598499298
1683132940079322600,5.733322509765625,9.538389205932617,1.6307085752487183,-0.13160525262355804
1683132940097158700,5.75115869140625,9.835697174072266,0.8895317912101746,0.2183450609445572
1683132940114998500,5.76899853515625,9.514460563659668,1.5158531665802002,-0.1698904037475586
1683132940132831700,5.786831787109375,9.716654777526855,1.028315544128418,0.3080759048461914
1683132940150676000,5.804676025390625,9.610174179077148,1.4344971179962158,-0.25004997849464417
1683132940168501500,5.82250146484375,9.678967475891113,1.090528964996338,0.32243284583091736
1683132940186353200,5.840353271484375,9.667003631591797,1.3722838163375854,-0.25004997849464417
1683132940204191200,5.858191162109375,9.769296646118164,1.1623135805130005,0.2799602448940277
1683132940222030300,5.8760302734375,9.795019149780273,1.2861422300338745,-0.22073788940906525
1683132940239868000,5.893867919921875,9.579665184020996,1.3154542446136475,0.2356930375099182
1683132940257707800,5.911707763671875,9.861420631408691,1.1808580160140991,-0.16749759018421173
1683132940275533300,5.929533203125,9.684351921081543,1.358525037765503,0.21714866161346436
1683132940293385000,5.947385009765625,9.760921478271484,1.0947163105010986,-0.1010967567563057
1683132940311222800,5.965222900390625,9.53779125213623,1.516451358795166,0.10648060590028763
1683132940329050400,5.98305029296875,9.955338478088379,0.9511470198631287,-0.03349951654672623
1683132940346899700,6.000899658203125,9.523433685302734,1.7078771591186523,0.1585244983434677
1683132940364739300,6.0187392578125,9.988838195800781,0.836291491985321,-0.03290131315588951
1683132940382577400,6.036577392578125,9.55214786529541,1.731805443763733,0.07776673883199692
1683132940400416800,6.054416748046875,9.969097137451172,0.7836494445800781,0.02871387079358101
1683132940418253800,6.07225390625,9.404989242553711,1.8035900592803955,0.08614161610603333
1683132940436080600,6.09008056640625,9.954740524291992,0.7405785918235779,0.03349951654672623
1683132940453927200,6.10792724609375,9.452845573425293,1.8418751955032349,0.10588239878416061
1683132940471770600,6.1257705078125,9.90269660949707,0.7405785918235779,0.09511470049619675
1683132940489610000,6.14360986328125,9.476774215698242,1.7461622953414917,0.020338991656899452
1683132940507449000,6.161448974609375,9.835697174072266,0.778863787651062,0.13280165195465088
1683132940525286400,6.179286376953125,9.467203140258789,1.6354942321777344,-0.06999006122350693
1683132940543122400,6.197122314453125,9.769296646118164,0.8841479420661926,0.2231307178735733
1683132940560967400,6.214967529296875,9.509675025939941,1.6067804098129272,-0.10827522724866867
1683132940578803200,6.23280322265625,9.845269203186035,0.9230313301086426,0.2709871530532837
1683132940596640800,6.250640869140625,9.538389205932617,1.5493526458740234,-0.1986042857170105
1683132940614481000,6.26848095703125,9.77408218383789,1.0378868579864502,0.2991028428077698
1683132940632318200,6.286318115234375,9.623932838439941,1.4344971179962158,-0.2356930375099182
1683132940650157800,6.30415771484375,9.698110580444336,1.1479566097259521,0.3080759048461914
1683132940667995400,6.321995361328125,9.652647018432617,1.3818551301956177,-0.2548356056213379
1683132940685834800,6.339834716796875,9.793225288391113,1.186241865158081,0.32243284583091736
1683132940703668500,6.35766845703125,9.723833084106445,1.2717852592468262,-0.21595224738121033
1683132940721512200,6.37551220703125,9.570094108581543,1.3298112154006958,0.2069791555404663
1683132940739350000,6.39335009765625,9.913464546203613,1.1808580160140991,-0.15314064919948578
1683132940757190000,6.41118994140625,9.627521514892578,1.4398809671401978,0.19740787148475647
1683132940775022600,6.429022705078125,9.846465110778809,1.0995019674301147,-0.1010967567563057
1683132940792866800,6.44686669921875,9.623334884643555,1.4925230741500854,0.07357929646968842
1683132940810692000,6.464692138671875,9.945767402648926,0.9559326171875,-0.014356935396790504
1683132940828544500,6.48254443359375,9.442676544189453,1.7078771591186523,0.13459627330303192
1683132940846383600,6.500383544921875,10.055238723754883,0.836291491985321,-0.03768695518374443
1683132940864210000,6.5182099609375,9.433703422546387,1.8035900592803955,0.11485548317432404
1683132940882059300,6.536059326171875,9.978668212890625,0.7740781307220459,0.014955141581594944
1683132940899896000,6.55389599609375,9.56650447845459,1.7892330884933472,0.10648060590028763
1683132940917745400,6.571745361328125,9.859625816345215,0.7597211599349976,0.06161518394947052
1683132940935575600,6.589575439453125,9.452845573425293,1.784447431564331,0.04366901144385338
1683132940953414100,6.6074140625,9.940383911132812,0.745364248752594,0.09571290761232376
1683132940971239400,6.625239501953125,9.480961799621582,1.82273268699646,0.06759724020957947
1683132940989079600,6.64307958984375,9.878767967224121,0.7645068168640137,0.15254244208335876
1683132941006922500,6.660922607421875,9.509675025939941,1.6648063659667969,-0.06520441919565201
1683132941024763600,6.678763671875,9.806983947753906,0.8841479420661926,0.1944168359041214
1683132941042609700,6.696609619140625,9.500103950500488,1.573280930519104,-0.11306086927652359
1683132941060445700,6.71444580078125,9.745368003845215,0.9421738982200623,0.2847459018230438
1683132941078284800,6.732284912109375,9.643074989318848,1.5397813320159912,-0.20757736265659332
1683132941096119600,6.75011962890625,9.783055305480957,0.9996016621589661,0.3326023519039154
1683132941113963300,6.76796337890625,9.562317848205566,1.444068431854248,-0.2027917206287384
1683132941131799600,6.785799560546875,9.750154495239258,1.1335997581481934,0.3032902777194977
1683132941149626600,6.803626708984375,9.723833084106445,1.3674981594085693,-0.24945175647735596
1683132941167459600,6.82145947265625,9.659825325012207,1.186241865158081,0.29312077164649963
1683132941185320400,6.839320556640625,9.747760772705078,1.3004990816116333,-0.22073788940906525
1683132941203154000,6.85715380859375,9.66520881652832,1.3010972738265991,0.21236300468444824
1683132941220996400,6.874996337890625,9.832706451416016,1.1904292106628418,-0.14416755735874176
1683132941238832400,6.892832275390625,9.594620704650879,1.4398809671401978,0.15912270545959473
1683132941256672000,6.910672119140625,9.955936431884766,1.0660024881362915,-0.08135596662759781
1683132941274509800,6.928509765625,9.599406242370605,1.540379524230957,0.15912270545959473
1683132941292335600,6.946335693359375,9.893723487854004,0.9511470198631287,-0.0526420995593071
1683132941310187300,6.964187255859375,9.513862609863281,1.6169499158859253,0.08255238085985184
1683132941328027000,6.98202685546875,9.974481582641602,0.8697910308837891,0.02392822690308094
1683132941345859800,6.99985986328125,9.457033157348633,1.8035900592803955,0.12921242415905
1683132941363690500,7.0176904296875,9.983454704284668,0.7692924737930298,-0.023330021649599075
1683132941381543400,7.03554345703125,9.44327449798584,1.8131613731384277,0.1010967567563057
1683132941399381800,7.0533818359375,9.949954986572266,0.745364248752594,0.0526420995593071
1683132941417205500,7.07120556640625,9.504889488220215,1.7700905799865723,0.04905286431312561
1683132941435050800,7.08905078125,9.835697174072266,0.7645068168640137,0.07597211748361588
1683132941452876300,7.106876220703125,9.433703422546387,1.784447431564331,0.053240302950143814
1683132941470730200,7.124730224609375,9.902098655700684,0.7932206988334656,0.16689938306808472
1683132941488561700,7.142561767578125,9.500701904296875,1.7030915021896362,-0.050847481936216354
1683132941506410200,7.16041015625,9.826126098632812,0.8506484627723694,0.18544375896453857
1683132941524244000,7.178243896484375,9.514460563659668,1.597209095954895,-0.10348957777023315
1683132941542077700,7.19607763671875,9.711869239807129,0.9421738982200623,0.27038896083831787
1683132941559922000,7.213921875,9.53360366821289,1.5206388235092163,-0.21236300468444824
1683132941577760300,7.23176025390625,9.778867721557617,1.0091729164123535,0.3038884699344635
1683132941595598300,7.249598388671875,9.633503913879395,1.444068431854248,-0.2309073805809021
1683132941613433300,7.267433349609375,9.78843879699707,1.119242787361145,0.28953152894973755
1683132941631266800,7.285266845703125,9.657432556152344,1.3435698747634888,-0.2548356056213379
1683132941649111800,7.30311181640625,9.660423278808594,1.2149556875228882,0.2745763957500458
1683132941666950400,7.320950439453125,9.795019149780273,1.26699960231781,-0.20159530639648438
1683132941684792600,7.33879248046875,9.660423278808594,1.2675977945327759,0.29312077164649963
1683132941702626300,7.356626220703125,9.799206733703613,1.2095718383789062,-0.1585244983434677
1683132941720480300,7.374480224609375,9.57069206237793,1.430309772491455,0.13998012244701385
1683132941738314500,7.392314453125,9.89432144165039,1.0325030088424683,-0.08135596662759781
1683132941756155600,7.41015576171875,9.565906524658203,1.583450436592102,0.16869398951530457
1683132941773992400,7.427992431640625,9.946365356445312,0.9415757060050964,-0.062213387340307236
1683132941791830500,7.44583056640625,9.556933403015137,1.6121642589569092,0.058624155819416046
1683132941809668400,7.46366845703125,9.979267120361328,0.8458628058433533,0.004785645287483931
1683132941827495700,7.48149560546875,9.44746208190918,1.7700905799865723,0.11066804826259613
1683132941845348000,7.49934814453125,9.960124015808105,0.7836494445800781,0
1683132941863187200,7.517187255859375,9.409774780273438,1.8705891370773315,0.14835500717163086
1683132941881029000,7.535029052734375,9.964311599731445,0.7405785918235779,0.0526420995593071
1683132941898862600,7.552862548828125,9.45763111114502,1.8131613731384277,0.0771685317158699
1683132941916701700,7.57070166015625,9.859625816345215,0.7645068168640137,0.08075776696205139
1683132941934531300,7.58853125,9.476774215698242,1.7078771591186523,-0.008374879136681557
1683132941952379000,7.60637890625,9.859625816345215,0.8075776696205139,0.1663011759519577
1683132941970219500,7.624219482421875,9.44327449798584,1.688734531402588,-0.04187439754605293
1683132941988053800,7.6420537109375,9.873982429504395,0.8368897438049316,0.20937198400497437
1683132942005899800,7.659899658203125,9.543174743652344,1.6115660667419434,-0.13639089465141296
1683132942023733800,7.677733642578125,9.721440315246582,0.9421738982200623,0.24167509377002716
1683132942041573600,7.69557373046875,9.57188892364502,1.5014961957931519,-0.1788634955883026
1683132942059399400,7.7133994140625,9.787840843200684,1.0809576511383057,0.33738797903060913
1683132942077250800,7.731250732421875,9.600603103637695,1.439282774925232,-0.23629122972488403
1683132942095088600,7.749088623046875,9.759725570678711,1.1096714735031128,0.3320041298866272
1683132942112924000,7.766923828125,9.681360244750977,1.357926845550537,-0.2356930375099182
1683132942130763000,7.784762939453125,9.68913745880127,1.272383451461792,0.2554338276386261
1683132942148608800,7.80260888671875,9.828518867492676,1.2382856607437134,-0.2105683982372284
1683132942166443300,7.820443359375,9.641280174255371,1.334596872329712,0.24047867953777313
1683132942184271000,7.83827099609375,9.80399227142334,1.1808580160140991,-0.14416755735874176
1683132942202120700,7.85612060546875,9.594620704650879,1.4063814878463745,0.12143574655056
1683132942219960600,7.873960693359375,9.893723487854004,1.042074203491211,-0.038285162299871445
1683132942237798400,7.89179833984375,9.533005714416504,1.6265212297439575,0.1585244983434677
1683132942255637800,7.9096376953125,10.012765884399414,0.9134600162506104,-0.018544375896453857
1683132942273474300,7.927474365234375,9.495318412780762,1.6983058452606201,0.10588239878416061
1683132942291321000,7.945321044921875,9.988838195800781,0.8410771489143372,-0.018544375896453857
1683132942309141200,7.963141357421875,9.509675025939941,1.7174484729766846,0.1010967567563057
1683132942326986800,7.98098681640625,9.936196327209473,0.7884350419044495,0.0526420995593071
1683132942344830000,7.998829833984375,9.404989242553711,1.8370895385742188,0.08614161610603333
1683132942362666000,8.016666015625,9.959526062011719,0.7310073375701904,0.038285162299871445
1683132942380507400,8.03450732421875,9.424132347106934,1.846660852432251,0.08614161610603333
1683132942398346200,8.05234619140625,9.864411354064941,0.7214360237121582,0.08554340898990631
1683132942416185600,8.070185546875,9.509675025939941,1.6791633367538452,-0.050847481936216354
1683132942434022100,8.088022216796874,9.793225288391113,0.8602197170257568,0.15194423496723175
1683132942451862300,8.1058623046875,9.471988677978516,1.6163517236709595,-0.06041877344250679
1683132942469702400,8.123702392578124,9.830911636352539,0.8991031050682068,0.2566302418708801
1683132942487535000,8.14153515625,9.54796028137207,1.6211373805999756,-0.1698904037475586
1683132942505379300,8.15937939453125,9.806983947753906,0.9373882412910461,0.2566302418708801
1683132942523214300,8.17721435546875,9.55753231048584,1.4871392250061035,-0.18364913761615753
1683132942541059600,8.1950595703125,9.692726135253906,1.090528964996338,0.3320041298866272
1683132942558893000,8.21289306640625,9.710074424743652,1.4105689525604248,-0.2638086974620819
1683132942576735200,8.2307353515625,9.726225852966309,1.1383854150772095,0.3320041298866272
1683132942594559700,8.248559814453126,9.657432556152344,1.3435698747634888,-0.24526432156562805
1683132942612411600,8.26641162109375,9.698110580444336,1.1958130598068237,0.2315055876970291
1683132942630249500,8.28424951171875,9.82373332977295,1.2430713176727295,-0.19142581522464752
1683132942648089000,8.302089111328126,9.617950439453125,1.3537393808364868,0.21176479756832123
1683132942665926400,8.319926513671875,9.823135375976562,1.1473584175109863,-0.10588239878416061
1683132942683763500,8.337763427734375,9.594022750854492,1.430309772491455,0.16869398951530457
1683132942701607200,8.355607177734376,9.879964828491211,1.0516455173492432,-0.062213387340307236
1683132942719443500,8.373443359375,9.457033157348633,1.5355939865112305,0.1010967567563057
1683132942737281500,8.391281494140625,9.969695091247559,0.9134600162506104,0.004785645287483931
1683132942755116300,8.4091162109375,9.518648147583008,1.7365909814834595,0.14895321428775787
1683132942772958000,8.4269580078125,9.988838195800781,0.8123632669448853,-0.03290131315588951
1683132942790799600,8.444799560546874,9.500103950500488,1.76051926612854,0.08195417374372482
1683132942808635000,8.462634765625,9.945767402648926,0.7645068168640137,0.03349951654672623
1683132942826476800,8.480476806640626,9.476176261901855,1.7748762369155884,0.0771685317158699
1683132942844313900,8.49831396484375,9.912267684936523,0.7262216806411743,0.04307080805301666
1683132942862153200,8.5161533203125,9.424132347106934,1.8179470300674438,0.11485548317432404
1683132942879989500,8.533989501953124,9.954740524291992,0.745364248752594,0.09092725813388824
1683132942897832400,8.55183251953125,9.481559753417969,1.7700905799865723,0.02512463741004467
1683132942915667700,8.569667724609374,9.826126098632812,0.7884350419044495,0.12323036789894104
1683132942933507600,8.587507568359374,9.500103950500488,1.6313068866729736,-0.06520441919565201
1683132942951346000,8.605345947265626,9.77826976776123,0.875174880027771,0.24227328598499298
1683132942969188000,8.62318798828125,9.471988677978516,1.592423439025879,-0.1417747437953949
1683132942987026000,8.64102587890625,9.81655502319336,0.9421738982200623,0.26620152592658997
1683132943004859600,8.658859619140625,9.591031074523926,1.5158531665802002,-0.19800607860088348
1683132943022699500,8.676699462890625,9.745368003845215,1.0474581718444824,0.3128615617752075
1683132943040540200,8.6945400390625,9.633503913879395,1.4249259233474731,-0.2309073805809021
1683132943058376700,8.712376708984374,9.716654777526855,1.1288141012191772,0.32721850275993347
1683132943076214000,8.730214111328126,9.681360244750977,1.3914263248443604,-0.25004997849464417
1683132943094055200,8.74805517578125,9.77408218383789,1.1910275220870972,0.32243284583091736
1683132943111895000,8.76589501953125,9.766305923461914,1.3148560523986816,-0.20159530639648438
1683132943129731600,8.783731689453125,9.631709098815918,1.3202399015426636,0.21714866161346436
1683132943147571200,8.8015712890625,9.870991706848145,1.1904292106628418,-0.15314064919948578
1683132943165409800,8.819409912109375,9.651450157165527,1.4159528017044067,0.19800607860088348
1683132943183246800,8.837246826171874,9.827920913696289,1.0995019674301147,-0.11545369029045105
1683132943201089000,8.855089111328125,9.599406242370605,1.4973087310791016,0.0975075215101242
1683132943218916600,8.87291650390625,9.993623733520508,1.0091729164123535,-0.019142581149935722
1683132943236764400,8.890764404296876,9.471389770507812,1.6648063659667969,0.129810631275177
1683132943254601700,8.908601806640625,10.03131103515625,0.8895317912101746,0.0005982056609354913
1683132943272445200,8.926445068359374,9.485747337341309,1.7796618938446045,0.12502498924732208
1683132943290282200,8.9442822265625,9.936196327209473,0.7597211599349976,0
1683132943308119600,8.96211962890625,9.53779125213623,1.7748762369155884,0.11066804826259613
1683132943325959200,8.979959228515625,9.949954986572266,0.7501499056816101,0.04785645380616188
1683132943343796700,8.997796630859375,9.352945327758789,1.7940187454223633,0.07178468257188797
1683132943361636600,9.01563671875,9.91705322265625,0.7549355626106262,0.05742774158716202
1683132943379471600,9.0334716796875,9.467203140258789,1.8418751955032349,0.08195417374372482
1683132943397316900,9.05131689453125,9.864411354064941,0.7357929348945618,0.1333998590707779
1683132943415151600,9.069151611328126,9.481559753417969,1.7270197868347168,-0.037088751792907715
1683132943432991200,9.0869912109375,9.826126098632812,0.841675341129303,0.17587246000766754
1683132943450815700,9.104815673828124,9.481559753417969,1.6408780813217163,-0.07477571070194244
1683132943468672300,9.12267236328125,9.731011390686035,0.9230313301086426,0.28953152894973755
1683132943486504700,9.140504638671874,9.5862455368042,1.5828521251678467,-0.1740778535604477
1683132943504336400,9.15833642578125,9.80219841003418,0.9421738982200623,0.2847459018230438
1683132943522182700,9.1761826171875,9.53360366821289,1.4775680303573608,-0.2315055876970291
1683132943540024800,9.19402490234375,9.711869239807129,1.0713863372802734,0.29850462079048157
1683132943557861000,9.211861083984376,9.686145782470703,1.3962119817733765,-0.25004997849464417
1683132943575701000,9.229700927734376,9.678967475891113,1.1288141012191772,0.32243284583091736
1683132943593538800,9.247538818359375,9.704689979553223,1.353141188621521,-0.23988047242164612
1683132943611378400,9.26537841796875,9.722038269042969,1.205384373664856,0.29371899366378784
1683132943629204500,9.28320458984375,9.766305923461914,1.26699960231781,-0.23030917346477509
1683132943647056000,9.301055908203125,9.613164901733398,1.3537393808364868,0.19740787148475647
1683132943664893400,9.3188935546875,9.860821723937988,1.1425727605819702,-0.11485548317432404
1683132943682730000,9.33672998046875,9.684351921081543,1.44945228099823,0.2267199456691742
1683132943700562200,9.354562255859374,9.841679573059082,1.0803594589233398,-0.1052841991186142
1683132943718411000,9.372410888671874,9.556933403015137,1.4877375364303589,0.07836493849754333
1683132943736248000,9.390248046875,9.960124015808105,0.9750752449035645,-0.019142581149935722
1683132943754087200,9.408087158203125,9.494720458984375,1.7030915021896362,0.14895321428775787
1683132943771924700,9.4259248046875,10.002596855163574,0.8458628058433533,-0.008973085321485996
1683132943789764900,9.443764892578125,9.495318412780762,1.784447431564331,0.13459627330303192
1683132943807593200,9.46159326171875,9.993025779724121,0.7597211599349976,0.010169495828449726
1683132943825442800,9.47944287109375,9.490532875061035,1.7796618938446045,0.09631111472845078
1683132943843273000,9.49727294921875,9.91705322265625,0.7740781307220459,0.0526420995593071
1683132943861123300,9.515123291015625,9.376275062561035,1.8131613731384277,0.07178468257188797
1683132943878957600,9.53295751953125,9.949954986572266,0.7549355626106262,0.07657032459974289
1683132943896797400,9.55079736328125,9.476176261901855,1.8179470300674438,0.08673982322216034
1683132943914632400,9.568632568359375,9.859625816345215,0.7405785918235779,0.10468599200248718
1683132943932479200,9.586479248046874,9.509675025939941,1.6983058452606201,-0.046061836183071136
1683132943950312000,9.60431201171875,9.869196891784668,0.8560323119163513,0.15672987699508667
1683132943968152600,9.622152587890625,9.481559753417969,1.6360924243927002,-0.06041877344250679
1683132943985990100,9.639990234375,9.845269203186035,0.9038887619972229,0.26620152592658997
1683132944003816400,9.65781640625,9.538389205932617,1.592423439025879,-0.1746760457754135
1683132944021670400,9.67567041015625,9.797411918640137,0.9373882412910461,0.26620152592658997
1683132944039506400,9.69350634765625,9.57188892364502,1.4727823734283447,-0.2027917206287384
1683132944057344500,9.711344482421875,9.65503978729248,1.0809576511383057,0.32183465361595154
1683132944075184600,9.7291845703125,9.66221809387207,1.3962119817733765,-0.26440688967704773
1683132944093017600,9.747017578125,9.726225852966309,1.1048858165740967,0.3320041298866272
1683132944110861800,9.76486181640625,9.686145782470703,1.3722838163375854,-0.2309073805809021
1683132944128700000,9.782699951171875,9.741181373596191,1.1958130598068237,0.2841476798057556
1683132944146539500,9.80053955078125,9.78544807434082,1.2526426315307617,-0.23449662327766418
1683132944164369400,9.818369384765624,9.641280174255371,1.339382529258728,0.2267199456691742
1683132944182220000,9.836219970703125,9.837491989135742,1.1665010452270508,-0.13878370821475983
1683132944200054300,9.85405419921875,9.6795654296875,1.4063814878463745,0.2267199456691742
1683132944217894100,9.87189404296875,9.832706451416016,1.0995019674301147,-0.10588239878416061
1683132944235718700,9.88971875,9.54197883605957,1.4733805656433105,0.10169496387243271
1683132944253571600,9.907571533203125,9.969695091247559,0.9559326171875,-0.04307080805301666
1683132944271389700,9.9253896484375,9.46181869506836,1.6504493951797485,0.129810631275177
1683132944289251000,9.9432509765625,10.017552375793457,0.8458628058433533,-0.052043892443180084
1683132944307088000,9.961087890625,9.556933403015137,1.7222341299057007,0.10648060590028763
1683132944324926500,9.978926513671874,9.969695091247559,0.8027920126914978,-0.008973085321485996
1683132944342760700,9.9967607421875,9.452247619628906,1.7365909814834595,0.08673982322216034
1683132944360592100,10.014592041015625,9.973882675170898,0.7740781307220459,0.04307080805301666
1683132944378441700,10.032441650390625,9.357730865478516,1.8658034801483154,0.1052841991186142
1683132944396278500,10.050278564453125,9.930811882019043,0.7597211599349976,0.06699903309345245
1683132944414117000,10.0681171875,9.476176261901855,1.8131613731384277,0.09152546525001526
1683132944431958800,10.085958740234375,9.859625816345215,0.7501499056816101,0.09032905846834183
1683132944449796600,10.103796630859375,9.524032592773438,1.693520188331604,-0.04127619042992592
1683132944467623400,10.12162353515625,9.845269203186035,0.8267202377319336,0.15194423496723175
1683132944485468200,10.13946826171875,9.495318412780762,1.6648063659667969,-0.0323031060397625
1683132944503302700,10.157302734375,9.835697174072266,0.8895317912101746,0.2566302418708801
1683132944521154000,10.175154052734374,9.567103385925293,1.6163517236709595,-0.13160525262355804
1683132944538990300,10.192990234375,9.806983947753906,0.9421738982200623,0.26620152592658997
1683132944556829200,10.2108291015625,9.576674461364746,1.5254244804382324,-0.16450655460357666
1683132944574668300,10.228668212890625,9.745368003845215,1.0713863372802734,0.32721850275993347
1683132944592502800,10.246502685546876,9.610174179077148,1.4488540887832642,-0.25004997849464417
1683132944610344400,10.264344482421874,9.759725570678711,1.1048858165740967,0.34636107087135315
1683132944628184800,10.282184814453124,9.657432556152344,1.353141188621521,-0.26440688967704773
1683132944646020600,10.3000205078125,9.736394882202148,1.181456208229065,0.2560320198535919
1683132944663852500,10.3178525390625,9.752547264099121,1.2765709161758423,-0.24466611444950104
1683132944681703200,10.335703125,9.598808288574219,1.2819547653198242,0.22612173855304718
1683132944699538000,10.353537841796875,9.861420631408691,1.2382856607437134,-0.14356936514377594
1683132944717367000,10.371366943359375,9.669994354248047,1.358525037765503,0.25064817070961
1683132944735211000,10.3892109375,9.799206733703613,1.1330015659332275,-0.11066804826259613
1683132944753055200,10.40705517578125,9.565906524658203,1.4829518795013428,0.11605189740657806
1683132944770893600,10.4248935546875,9.960124015808105,0.989432156085968,-0.03349951654672623
1683132944788733400,10.4427333984375,9.53779125213623,1.6552350521087646,0.1537388563156128
1683132944806564900,10.46056494140625,9.964909553527832,0.8697910308837891,-0.0568295381963253
1683132944824411600,10.47841162109375,9.533005714416504,1.6648063659667969,0.07776673883199692
1683132944842248200,10.496248291015625,10.002596855163574,0.8315058946609497,0.0005982056609354913
1683132944860086300,10.514086181640625,9.46181869506836,1.755733609199524,0.08195417374372482
1683132944877926100,10.531926025390625,9.945767402648926,0.7884350419044495,0.02392822690308094
1683132944895765000,10.549764892578125,9.400203704833984,1.8801604509353638,0.1339980661869049
1683132944913593600,10.567593505859374,9.964311599731445,0.7262216806411743,0.06699903309345245
1683132944931431000,10.585430908203126,9.476176261901855,1.8083757162094116,0.08195417374372482
1683132944949271300,10.603271240234376,9.90269660949707,0.7692924737930298,0.08075776696205139
1683132944967108900,10.62110888671875,9.462417602539062,1.7078771591186523,-0.0323031060397625
1683132944984951300,10.638951416015624,9.883553504943848,0.841675341129303,0.1381855010986328
1683132945002793200,10.656793212890625,9.467203140258789,1.731805443763733,-0.003589233849197626
1683132945020626000,10.6746259765625,9.830911636352539,0.8321040868759155,0.2231307178735733
1683132945038465300,10.69246533203125,9.510273933410645,1.6498512029647827,-0.1178465187549591
1683132945056302300,10.71030224609375,9.869196891784668,0.966102123260498,0.2189432680606842
1683132945074143700,10.728143798828125,9.519247055053711,1.5014961957931519,-0.1746760457754135
1683132945091979000,10.74597900390625,9.673583984375,1.052243709564209,0.35114672780036926
1683132945109818400,10.763818359375,9.705288887023926,1.4536397457122803,-0.2356930375099182
1683132945127656400,10.781656494140625,9.759725570678711,1.0761719942092896,0.35114672780036926
1683132945145499600,10.799499755859374,9.623932838439941,1.3866406679153442,-0.259621262550354
1683132945163337200,10.817337158203125,9.759725570678711,1.1670992374420166,0.27038896083831787
1683132945181169700,10.835169677734376,9.77109146118164,1.3100703954696655,-0.23030917346477509
1683132945199025400,10.853025390625,9.646066665649414,1.272383451461792,0.26919254660606384
1683132945216861700,10.87086181640625,9.847063064575195,1.2574282884597778,-0.17706887423992157
1683132945234699500,10.888699462890624,9.641280174255371,1.3441680669784546,0.24047867953777313
1683132945252536000,10.9065361328125,9.80399227142334,1.1617153882980347,-0.14895321428775787
1683132945270379500,10.924379638671875,9.585049629211426,1.4638092517852783,0.13519448041915894
1683132945288202000,10.942201904296875,9.970293998718262,1.0043872594833374,-0.0526420995593071
1683132945306057000,10.960056884765624,9.561120986938477,1.607378602027893,0.15912270545959473
1683132945323891000,10.977890869140625,9.964909553527832,0.898504912853241,-0.047258246690034866
1683132945341734700,10.995734619140626,9.585647583007812,1.6265212297439575,0.06400800496339798
1683132945359571700,11.01357177734375,9.964909553527832,0.8506484627723694,0.009571290574967861
1683132945377397000,11.03139697265625,9.395418167114258,1.7700905799865723,0.11485548317432404
1683132945395249200,11.049249267578125,10.026525497436523,0.7836494445800781,0.014955141581594944
1683132945413086200,11.067086181640626,9.419346809387207,1.851446509361267,0.12442677468061447
1683132945430924300,11.08492431640625,9.945169448852539,0.7214360237121582,0.02392822690308094
1683132945448766200,11.10276611328125,9.538389205932617,1.7700905799865723,0.07776673883199692
1683132945466603800,11.120603759765626,9.897911071777344,0.745364248752594,0.07597211748361588
1683132945484441000,11.138441162109375,9.404989242553711,1.7174484729766846,0.0005982056609354913
1683132945502268400,11.156268310546874,9.926026344299316,0.7836494445800781,0.12382857501506805
1683132945520120000,11.1741201171875,9.495318412780762,1.7509479522705078,0.029910283163189888
1683132945537958700,11.191958740234375,9.854840278625488,0.8225327730178833,0.20937198400497437
1683132945555796000,11.2097958984375,9.481559753417969,1.6402798891067505,-0.10348957777023315
1683132945573631000,11.227630859375,9.821340560913086,0.9326026439666748,0.21355941891670227
1683132945591473400,11.245473388671876,9.524032592773438,1.5445669889450073,-0.14117653667926788
1683132945609301500,11.263301513671875,9.683155059814453,1.0043872594833374,0.32721850275993347
1683132945627150800,11.28115087890625,9.591031074523926,1.4775680303573608,-0.2315055876970291
1683132945644990700,11.29899072265625,9.869196891784668,1.052243709564209,0.3326023519039154
1683132945662824200,11.31682421875,9.609575271606445,1.3914263248443604,-0.24526432156562805
1683132945680670000,11.334669921875,9.659825325012207,1.1479566097259521,0.2793620526790619
1683132945698504200,11.352504150390626,9.776474952697754,1.353141188621521,-0.24945175647735596
1683132945716345300,11.370345458984374,9.655637741088867,1.2149556875228882,0.2745763957500458
1683132945734183400,11.388183349609376,9.737591743469238,1.2765709161758423,-0.1824527233839035
1683132945752018700,11.406018798828125,9.684351921081543,1.3010972738265991,0.2602194547653198
1683132945769860600,11.423860595703125,9.842277526855469,1.171286702156067,-0.1579262912273407
1683132945787688700,11.441688720703125,9.546764373779297,1.454237937927246,0.1543370634317398
1683132945805537800,11.459537841796875,9.93679428100586,1.042074203491211,-0.062213387340307236
1683132945823373000,11.477373046875,9.641879081726074,1.5547364950180054,0.17347964644432068
1683132945841215200,11.49521533203125,9.88415241241455,0.9607182741165161,-0.038285162299871445
1683132945859043600,11.513043701171876,9.56650447845459,1.5978072881698608,0.06819544732570648
1683132945876892400,11.530892333984376,9.984052658081055,0.865005373954773,0.014356935396790504
1683132945894727400,11.5487275390625,9.390632629394531,1.7796618938446045,0.11006984114646912
1683132945912570400,11.5665703125,9.974481582641602,0.7692924737930298,-0.018544375896453857
1683132945930410000,11.584409912109376,9.46181869506836,1.8323038816452026,0.11545369029045105
1683132945948246500,11.60224658203125,9.978668212890625,0.7357929348945618,0.014955141581594944
1683132945966088200,11.620088134765625,9.485747337341309,1.7796618938446045,0.06759724020957947
1683132945983924700,11.6379248046875,9.93559741973877,0.7645068168640137,0.07178468257188797
1683132946001752800,11.6557529296875,9.414560317993164,1.7700905799865723,0.029312077909708023
1683132946019599600,11.673599609375,9.92124080657959,0.7836494445800781,0.14297115802764893
1683132946037445000,11.691445068359375,9.452845573425293,1.7796618938446045,0.029312077909708023
1683132946055279600,11.709279541015626,9.878767967224121,0.7932206988334656,0.15672987699508667
1683132946073118500,11.727118408203125,9.567103385925293,1.669592022895813,-0.06999006122350693
1683132946090958300,11.744958251953125,9.80219841003418,0.9038887619972229,0.19920247793197632
1683132946108797000,11.762796875,9.509675025939941,1.568495273590088,-0.13639089465141296
1683132946126634200,11.78063427734375,9.787840843200684,0.9996016621589661,0.31824541091918945
1683132946144469800,11.7984697265625,9.624530792236328,1.5302101373672485,-0.20757736265659332
1683132946162312200,11.816312255859375,9.835697174072266,1.057029366493225,0.3565305769443512
1683132946180151600,11.834151611328124,9.610174179077148,1.4536397457122803,-0.2309073805809021
1683132946197988900,11.85198876953125,9.68375301361084,1.1527422666549683,0.3032902777194977
1683132946215824400,11.869824462890625,9.757332801818848,1.3770694732666016,-0.23988047242164612
1683132946233666600,11.88766650390625,9.702896118164062,1.205384373664856,0.3128615617752075
1683132946251506700,11.905506591796875,9.690333366394043,1.3100703954696655,-0.21176479756832123
1683132946269343000,11.923343017578125,9.713065147399902,1.2915260791778564,0.21714866161346436
1683132946287185200,11.94118505859375,9.818349838256836,1.176072359085083,-0.16271193325519562
1683132946305021400,11.959021484375,9.537193298339844,1.4207384586334229,0.16869398951530457
1683132946322860300,11.9768603515625,9.970293998718262,1.0666006803512573,-0.08554340898990631
1683132946340700000,11.994699951171874,9.613762855529785,1.516451358795166,0.17347964644432068
1683132946358538500,12.01253857421875,9.836894035339355,0.9750752449035645,-0.05802594870328903
1683132946376376600,12.03037646484375,9.556933403015137,1.607378602027893,0.06819544732570648
1683132946394201300,12.048201416015624,9.969695091247559,0.8943174481391907,0.038285162299871445
1683132946412053500,12.066053466796875,9.390632629394531,1.7700905799865723,0.12921242415905
1683132946429894100,12.08389404296875,9.997811317443848,0.7692924737930298,-0.047258246690034866
1683132946447715000,12.101715087890625,9.543174743652344,1.8131613731384277,0.09690931439399719
1683132946465570000,12.119570068359375,9.964311599731445,0.7357929348945618,0.010169495828449726
1683132946483408400,12.137408447265624,9.414560317993164,1.76051926612854,0.0771685317158699
1683132946501248300,12.155248291015624,9.91705322265625,0.7405785918235779,0.062213387340307236
1683132946519074000,12.173073974609375,9.424132347106934,1.8035900592803955,0.08195417374372482
1683132946536925700,12.19092578125,9.869196891784668,0.7501499056816101,0.12861421704292297
1683132946554763000,12.208762939453125,9.495318412780762,1.7653049230575562,0.029910283163189888
1683132946572600000,12.22660009765625,9.878767967224121,0.7692924737930298,0.12382857501506805
1683132946590442800,12.24444287109375,9.504889488220215,1.6307085752487183,-0.0891326442360878
1683132946608274400,12.2622744140625,9.793225288391113,0.9038887619972229,0.19920247793197632
1683132946626121000,12.280120849609375,9.55753231048584,1.5876377820968628,-0.10289137065410614
1683132946643956700,12.297956787109374,9.806983947753906,0.9613165259361267,0.3086741268634796
1683132946661796000,12.315796142578124,9.576674461364746,1.5302101373672485,-0.19800607860088348
1683132946679632100,12.333632080078125,9.830911636352539,1.0139585733413696,0.3278166949748993
1683132946697475800,12.351475830078124,9.5862455368042,1.4584254026412964,-0.22193430364131927
1683132946715312400,12.3693125,9.674181938171387,1.1335997581481934,0.3361915946006775
1683132946733150000,12.38714990234375,9.747760772705078,1.3722838163375854,-0.25423741340637207
1683132946750983200,12.404983154296875,9.726823806762695,1.2005987167358398,0.32243284583091736
1683132946768827600,12.42282763671875,9.704689979553223,1.2957134246826172,-0.23988047242164612
1683132946786662400,12.440662353515625,9.655637741088867,1.2436695098876953,0.24107688665390015
1683132946804505300,12.45850537109375,9.875777244567871,1.2287144660949707,-0.1579262912273407
1683132946822342000,12.476341796875,9.603593826293945,1.4015958309173584,0.2021935135126114
1683132946840185000,12.49418505859375,9.899106979370117,1.1234302520751953,-0.08135596662759781
1683132946858022100,12.512022216796876,9.651450157165527,1.4781662225723267,0.19322042167186737
1683132946875847700,12.52984765625,9.879964828491211,1.01814603805542,-0.05742774158716202
1683132946893699300,12.54769921875,9.523433685302734,1.5547364950180054,0.07776673883199692
1683132946911536000,12.5655361328125,9.979267120361328,0.9272187948226929,-0.004785645287483931
1683132946929378300,12.58337841796875,9.485747337341309,1.7509479522705078,0.14416755735874176
1683132946947214300,12.60121435546875,9.993025779724121,0.7836494445800781,-0.023330021649599075
1683132946965056800,12.619056884765625,9.509675025939941,1.7892330884933472,0.1010967567563057
1683132946982888700,12.636888671875,10.03131103515625,0.7740781307220459,0.005383851006627083
1683132947000734500,12.654734375,9.433703422546387,1.7892330884933472,0.0771685317158699
1683132947018569000,12.67256884765625,9.940383911132812,0.7645068168640137,0.0526420995593071
1683132947036397000,12.69039697265625,9.480961799621582,1.8562321662902832,0.11545369029045105
1683132947054246700,12.70824658203125,9.873982429504395,0.7262216806411743,0.12382857501506805
1683132947072086500,12.72608642578125,9.476774215698242,1.8083757162094116,0.05802594870328903
1683132947089920800,12.743920654296875,9.91705322265625,0.7740781307220459,0.09032905846834183
1683132947107767300,12.761767333984375,9.467203140258789,1.6354942321777344,-0.07477571070194244
1683132947125601300,12.779601318359376,9.821340560913086,0.8656035661697388,0.18544375896453857
1683132947143439600,12.797439697265625,9.552745819091797,1.6169499158859253,-0.07956135272979736
1683132947161278500,12.815278564453125,9.806983947753906,0.9230313301086426,0.2757728099822998
1683132947179104000,12.83310400390625,9.528818130493164,1.5780665874481201,-0.16510476171970367
1683132947196947200,12.850947265625,9.806983947753906,1.033101201057434,0.275174617767334
1683132947214796000,12.868796142578125,9.591031074523926,1.4871392250061035,-0.2027917206287384
1683132947232633300,12.88663330078125,9.693324089050293,1.1288141012191772,0.34636107087135315
1683132947250461400,12.90446142578125,9.686145782470703,1.415354609489441,-0.24526432156562805
1683132947268310300,12.922310302734376,9.764511108398438,1.1335997581481934,0.355932354927063
1683132947286151700,12.940151611328124,9.690333366394043,1.3387842178344727,-0.23030917346477509
1683132947303988000,12.957988037109375,9.684351921081543,1.2245270013809204,0.2267199456691742
1683132947321827800,12.975827880859375,9.833304405212402,1.2574282884597778,-0.19142581522464752
1683132947339662600,12.99366259765625,9.637093544006348,1.358525037765503,0.22612173855304718
1683132947357508900,13.0115087890625,9.818349838256836,1.1569297313690186,-0.10588239878416061
1683132947375342800,13.0293427734375,9.665806770324707,1.4159528017044067,0.18843477964401245
1683132947393183000,13.047182861328125,9.870393753051758,1.0803594589233398,-0.06759724020957947
1683132947411008300,13.06500830078125,9.489934921264648,1.5355939865112305,0.10648060590028763
1683132947428860400,13.0828603515625,9.960124015808105,0.9320043921470642,-0.004785645287483931
1683132947446697700,13.10069775390625,9.542576789855957,1.7461622953414917,0.129810631275177
1683132947464534300,13.1185341796875,9.993623733520508,0.8219345808029175,-0.03290131315588951
1683132947482378000,13.1363779296875,9.543174743652344,1.7126628160476685,0.04905286431312561
1683132947500214800,13.15421484375,9.997811317443848,0.7836494445800781,0.005383851006627083
1683132947518041900,13.172041748046874,9.490532875061035,1.755733609199524,0.07238288223743439
1683132947535883500,13.189883544921875,9.969097137451172,0.7645068168640137,0.038285162299871445
1683132947553725400,13.207725341796875,9.419346809387207,1.8801604509353638,0.14356936514377594
1683132947571568400,13.225568359375,9.959526062011719,0.7214360237121582,0.08614161610603333
1683132947589408800,13.24340869140625,9.53360366821289,1.7988044023513794,0.058624155819416046
1683132947607247000,13.2612470703125,9.864411354064941,0.7836494445800781,0.1094716340303421
1683132947625084400,13.27908447265625,9.500103950500488,1.6648063659667969,-0.0364905446767807
1683132947642922000,13.296921875,9.878767967224121,0.8273184299468994,0.18544375896453857
1683132947660752600,13.314752685546875,9.462417602539062,1.6450655460357666,-0.07058826833963394
1683132947678600400,13.332600341796875,9.845269203186035,0.8847461938858032,0.2470589429140091
1683132947696440800,13.35044091796875,9.610174179077148,1.5541383028030396,-0.18843477964401245
1683132947714279200,13.368279052734374,9.77408218383789,0.9900303483009338,0.2512463629245758
1683132947732117000,13.386116943359376,9.57188892364502,1.4727823734283447,-0.19800607860088348
1683132947749956600,13.40395654296875,9.754940032958984,1.0809576511383057,0.34636107087135315
1683132947767794200,13.421794189453125,9.66221809387207,1.4344971179962158,-0.259621262550354
1683132947785633800,13.4396337890625,9.77408218383789,1.1096714735031128,0.3607180118560791
1683132947803471400,13.457471435546875,9.667003631591797,1.3387842178344727,-0.24047867953777313
1683132947821311000,13.47531103515625,9.66520881652832,1.2484551668167114,0.2554338276386261
1683132947839148800,13.493148681640625,9.82373332977295,1.2478569746017456,-0.22013968229293823
1683132947856985600,13.510985595703126,9.660423278808594,1.334596872329712,0.24107688665390015
1683132947874824400,13.528824462890626,9.861420631408691,1.1904292106628418,-0.12921242415905
1683132947892665600,13.54666552734375,9.651450157165527,1.4015958309173584,0.19322042167186737
1683132947910503200,13.564503173828125,9.899106979370117,1.0803594589233398,-0.09571290761232376
1683132947928342500,13.582342529296875,9.5802640914917,1.5547364950180054,0.13040883839130402
1683132947946181600,13.600181640625,9.927223205566406,0.9463613629341125,-0.004785645287483931
1683132947964019000,13.61801904296875,9.542576789855957,1.7030915021896362,0.1537388563156128
1683132947981851000,13.635850830078125,10.055238723754883,0.8554341197013855,-0.01375873014330864
1683132947999684600,13.6536845703125,9.53779125213623,1.693520188331604,0.06340979784727097
1683132948017538300,13.671538330078125,9.955338478088379,0.7884350419044495,0.014356935396790504
1683132948035375400,13.689375244140624,9.485747337341309,1.7940187454223633,0.10588239878416061
1683132948053213200,13.707213134765626,9.969097137451172,0.7357929348945618,0.010169495828449726
1683132948071053000,13.725052978515626,9.448060035705566,1.8658034801483154,0.14356936514377594
1683132948088890400,13.742890380859375,9.964311599731445,0.7214360237121582,0.062213387340307236
1683132948106730000,13.76072998046875,9.519247055053711,1.7892330884933472,0.06819544732570648
1683132948124564500,13.778564453125,9.859625816345215,0.7645068168640137,0.09511470049619675
1683132948142396400,13.796396484375,9.476774215698242,1.693520188331604,-0.017946170642971992
1683132948160231700,13.814231689453125,9.864411354064941,0.8273184299468994,0.20458634197711945
1683132948178087700,13.832087646484375,9.504889488220215,1.6983058452606201,-0.046061836183071136
1683132948195917600,13.84991748046875,9.835697174072266,0.8703892230987549,0.2231307178735733
1683132948213755600,13.867755615234374,9.538389205932617,1.6211373805999756,-0.16510476171970367
1683132948231596500,13.885596435546875,9.740582466125488,0.9565308690071106,0.2225325107574463
1683132948249442000,13.903442138671876,9.538389205932617,1.4727823734283447,-0.19800607860088348
1683132948267278300,13.9212783203125,9.764511108398438,1.0713863372802734,0.32243284583091736
1683132948285122600,13.93912255859375,9.628718376159668,1.4297115802764893,-0.24047867953777313
1683132948302954500,13.95695458984375,9.769296646118164,1.1288141012191772,0.34636107087135315
1683132948320792800,13.974792724609374,9.704689979553223,1.3818551301956177,-0.23030917346477509
1683132948338633000,13.992633056640624,9.641280174255371,1.2340983152389526,0.27397820353507996
1683132948356471800,14.010471923828124,9.80937671661377,1.26699960231781,-0.22013968229293823
1683132948374308900,14.028308837890625,9.712467193603516,1.3202399015426636,0.26979073882102966
1683132948392145200,14.046145263671875,9.790233612060547,1.2191431522369385,-0.16331014037132263
1683132948409976800,14.063976806640625,9.598808288574219,1.3728820085525513,0.15493527054786682
1683132948427814700,14.081814697265624,9.93679428100586,1.089930772781372,-0.09571290761232376
1683132948445655300,14.0996552734375,9.561120986938477,1.5499508380889893,0.13998012244701385
1683132948463493600,14.11749365234375,10.022337913513184,0.9517452120780945,-0.023330021649599075
1683132948481329400,14.135329345703125,9.589835166931152,1.6648063659667969,0.15912270545959473
1683132948499170300,14.15317041015625,9.950552940368652,0.8841479420661926,-0.02392822690308094
1683132948517008000,14.1710078125,9.528220176696777,1.6791633367538452,0.0729810893535614
1683132948534850800,14.188850830078126,9.969097137451172,0.8027920126914978,0.02871387079358101
1683132948552685000,14.20668505859375,9.457033157348633,1.8083757162094116,0.11545369029045105
1683132948570525000,14.22452490234375,10.016953468322754,0.7214360237121582,0.014955141581594944
1683132948588361200,14.242361328125,9.471389770507812,1.851446509361267,0.1339980661869049
1683132948606208000,14.2602080078125,9.973882675170898,0.6975077986717224,0.0526420995593071
1683132948624038700,14.27803857421875,9.476176261901855,1.7748762369155884,0.04366901144385338
1683132948641880600,14.295880615234376,9.88833999633789,0.7501499056816101,0.08075776696205139
1683132948659720200,14.31372021484375,9.480961799621582,1.7270197868347168,0.039481572806835175
1683132948677555200,14.33155517578125,9.873982429504395,0.8177471160888672,0.1950150430202484
1683132948695407600,14.34940771484375,9.495916366577148,1.688734531402588,-0.06999006122350693
1683132948713243600,14.36724365234375,9.80219841003418,0.8602197170257568,0.19920247793197632
1683132948731084000,14.385083984375,9.504889488220215,1.573280930519104,-0.13639089465141296
1683132948748922600,14.402922607421875,9.793225288391113,0.9613165259361267,0.24227328598499298
1683132948766759700,14.420759765625,9.57188892364502,1.511067509651184,-0.1788634955883026
1683132948784597500,14.438597412109376,9.759725570678711,1.0474581718444824,0.32721850275993347
1683132948802442000,14.45644189453125,9.591031074523926,1.4679967164993286,-0.25064817070961
1683132948820277200,14.47427734375,9.764511108398438,1.090528964996338,0.3367897868156433
1683132948838111700,14.49211181640625,9.638289451599121,1.3866406679153442,-0.2356930375099182
1683132948855963400,14.50996337890625,9.622138023376465,1.210170030593872,0.2883351147174835
1683132948873792000,14.5277919921875,9.804591178894043,1.3004990816116333,-0.22013968229293823
1683132948891630300,14.54563037109375,9.688538551330566,1.2867404222488403,0.3026920557022095
1683132948909471500,14.563471435546875,9.78544807434082,1.2478569746017456,-0.18723836541175842
1683132948927306800,14.581306640625,9.669994354248047,1.358525037765503,0.1788634955883026
1683132948945146400,14.599146484375,9.847063064575195,1.1330015659332275,-0.12442677468061447
1683132948962982000,14.61698193359375,9.533005714416504,1.5308083295822144,0.1543370634317398
1683132948980822500,14.634822509765625,9.979267120361328,1.0235298871994019,-0.019142581149935722
1683132948998665000,14.6526650390625,9.561120986938477,1.5978072881698608,0.1543370634317398
1683132949016501000,14.6705009765625,9.93679428100586,0.9224331378936768,-0.038285162299871445
1683132949034341000,14.688341064453125,9.518648147583008,1.6360924243927002,0.0729810893535614
1683132949052178400,14.706178466796874,9.964909553527832,0.836291491985321,0.019142581149935722
1683132949070018000,14.72401806640625,9.480961799621582,1.8083757162094116,0.129810631275177
1683132949087851800,14.741851806640625,9.993025779724121,0.7166503667831421,0.005383851006627083
1683132949105697300,14.759697265625,9.44327449798584,1.8323038816452026,0.1052841991186142
1683132949123536100,14.7775361328125,9.978668212890625,0.7310073375701904,0.03349951654672623
1683132949141373000,14.795373046875,9.467203140258789,1.7700905799865723,0.053240302950143814
1683132949159210000,14.8132099609375,9.907482147216797,0.7692924737930298,0.07597211748361588
1683132949177050400,14.83105029296875,9.452845573425293,1.7940187454223633,0.07238288223743439
1683132949194888000,14.848887939453125,9.897313117980957,0.7932206988334656,0.15254244208335876
1683132949212724000,14.866723876953126,9.495916366577148,1.7126628160476685,-0.04187439754605293
1683132949230565400,14.8845654296875,9.830911636352539,0.8458628058433533,0.1663011759519577
1683132949248395300,14.902395263671876,9.53360366821289,1.5828521251678467,-0.12203395366668701
1683132949266243000,14.9202431640625,9.759725570678711,0.9326026439666748,0.24646073579788208
1683132949284075300,14.9380751953125,9.543174743652344,1.5397813320159912,-0.16031911969184875
1683132949301922300,14.95592236328125,9.81655502319336,0.9900303483009338,0.31824541091918945
1683132949319760000,14.973759765625,9.581459999084473,1.482353687286377,-0.23629122972488403
1683132949337597400,14.991597412109375,9.759725570678711,1.0713863372802734,0.3086741268634796
1683132949355437000,15.00943701171875,9.609575271606445,1.353141188621521,-0.2309073805809021
1683132949373273900,15.02727392578125,9.664610862731934,1.1958130598068237,0.32183465361595154
1683132949391115500,15.045115478515624,9.7998046875,1.32921302318573,-0.22073788940906525
1683132949408950800,15.06295068359375,9.688538551330566,1.2197413444519043,0.3080759048461914
1683132949426792400,15.08079248046875,9.723833084106445,1.262213945388794,-0.19202402234077454
1683132949444626200,15.098626220703125,9.641879081726074,1.3489537239074707,0.18364913761615753
1683132949462472000,15.116471923828126,9.879964828491211,1.1282159090042114,-0.08614161610603333
1683132949480306400,15.134306396484375,9.546764373779297,1.5212370157241821,0.17347964644432068
1683132949498146000,15.15214599609375,9.979865074157715,1.052243709564209,-0.0526420995593071
1683132949515982300,15.169982421875,9.604191780090332,1.5595221519470215,0.13519448041915894
1683132949533820200,15.187820068359375,9.932008743286133,0.9320043921470642,-0.02392822690308094
1683132949551661600,15.20566162109375,9.518648147583008,1.669592022895813,0.09690931439399719
1683132949569501200,15.223501220703126,9.978668212890625,0.8315058946609497,0.03349951654672623
1683132949587346200,15.24134619140625,9.424132347106934,1.8323038816452026,0.14356936514377594
1683132949605173500,15.259173583984374,10.03131103515625,0.7501499056816101,0.005383851006627083
1683132949623016000,15.277015869140625,9.53360366821289,1.7940187454223633,0.11066804826259613
1683132949640855300,15.294855224609375,9.940383911132812,0.7597211599349976,0.04785645380616188
1683132949658691800,15.31269189453125,9.485747337341309,1.7653049230575562,0.04366901144385338
1683132949676534300,15.3305341796875,9.930811882019043,0.7501499056816101,0.062213387340307236
1683132949694358800,15.34835888671875,9.438488960266113,1.7940187454223633,0.0771685317158699
1683132949712210200,15.366210205078126,9.882955551147461,0.7692924737930298,0.1663011759519577
1683132949730047000,15.384046875,9.54796028137207,1.7270197868347168,-0.03170489892363548
1683132949747885600,15.401885498046875,9.850054740905762,0.8602197170257568,0.14715859293937683
1683132949765727700,15.419727783203125,9.476774215698242,1.6067804098129272,-0.1178465187549591
1683132949783564800,15.437564697265625,9.79262638092041,0.9469595551490784,0.26560330390930176
1683132949801402400,15.45540234375,9.552745819091797,1.5493526458740234,-0.16510476171970367
1683132949819241700,15.47324169921875,9.811769485473633,0.9900303483009338,0.2991028428077698
1683132949837079800,15.491079833984376,9.576674461364746,1.4727823734283447,-0.24107688665390015
1683132949854914800,15.508914794921875,9.778867721557617,1.0761719942092896,0.31345975399017334
1683132949872750000,15.52675,9.647860527038574,1.3770694732666016,-0.25004997849464417
1683132949890600000,15.544599853515624,9.688538551330566,1.181456208229065,0.3314059376716614
1683132949908434200,15.56243408203125,9.78544807434082,1.3387842178344727,-0.22073788940906525
1683132949926269400,15.58026953125,9.769296646118164,1.2681959867477417,0.3320041298866272
1683132949944111400,15.598111328125,9.738189697265625,1.2765709161758423,-0.2111666053533554
1683132949961951500,15.615951416015625,9.6466646194458,1.3441680669784546,0.1788634955883026
1683132949979787800,15.633787841796876,9.879964828491211,1.1665010452270508,-0.12442677468061447
1683132949997626600,15.651626708984375,9.585049629211426,1.4685949087142944,0.18783657252788544
1683132950015469300,15.66946923828125,9.932008743286133,1.0660024881362915,-0.08135596662759781
1683132950033306000,15.68730615234375,9.642477035522461,1.5451651811599731,0.09272187948226929
1683132950051142400,15.705142333984375,9.941579818725586,0.9511470198631287,-0.02392822690308094
1683132950068984300,15.722984375,9.495318412780762,1.6648063659667969,0.09631111472845078
1683132950086821000,15.740821044921875,9.973882675170898,0.8315058946609497,0.02871387079358101
1683132950104658000,15.758657958984376,9.485747337341309,1.7748762369155884,0.12023933976888657
1683132950122500900,15.7765009765625,9.960124015808105,0.745364248752594,-0.01375873014330864
1683132950140337700,15.794337646484376,9.495318412780762,1.7700905799865723,0.08195417374372482
1683132950158175200,15.81217529296875,9.954740524291992,0.7692924737930298,0.02392822690308094
1683132950176007000,15.8300068359375,9.438488960266113,1.7509479522705078,0.048454657196998596
1683132950193852700,15.847852783203125,9.912267684936523,0.745364248752594,0.08075776696205139
1683132950211692300,15.8656923828125,9.438488960266113,1.8083757162094116,0.10049854964017868
1683132950229530000,15.883530029296875,9.902098655700684,0.7310073375701904,0.1381855010986328
1683132950247358000,15.90135791015625,9.524032592773438,1.7365909814834595,-0.003589233849197626
1683132950265207600,15.91920751953125,9.850054740905762,0.8410771489143372,0.14715859293937683
1683132950283044900,15.937044921875,9.495318412780762,1.6115660667419434,-0.06520441919565201
1683132950300873500,15.95487353515625,9.773484230041504,0.9326026439666748,0.275174617767334
1683132950318725600,15.9727255859375,9.55753231048584,1.573280930519104,-0.1459621787071228
1683132950336562200,15.990562255859375,9.811769485473633,0.9565308690071106,0.26620152592658997
1683132950354401500,16.008401611328125,9.576674461364746,1.4967105388641357,-0.2267199456691742
1683132950372224500,16.026224609375,9.764511108398438,1.0426725149154663,0.29431718587875366
1683132950390078000,16.044077880859376,9.695717811584473,1.420140266418457,-0.22133609652519226
1683132950407920400,16.06192041015625,9.688538551330566,1.1479566097259521,0.31764721870422363
1683132950425756000,16.079755859375,9.686145782470703,1.357926845550537,-0.24047867953777313
1683132950443599600,16.097599609375,9.736394882202148,1.205384373664856,0.32243284583091736
1683132950461433600,16.11543359375,9.714262008666992,1.3004990816116333,-0.21595224738121033
1683132950479271200,16.133271240234375,9.627521514892578,1.334596872329712,0.22612173855304718
1683132950497111000,16.151111083984375,9.842277526855469,1.1904292106628418,-0.16271193325519562
1683132950514948600,16.168948486328127,9.641879081726074,1.4446666240692139,0.22133609652519226
1683132950532784400,16.186784423828126,9.865608215332031,1.0947163105010986,-0.12442677468061447
1683132950550625800,16.204625732421874,9.594620704650879,1.5020943880081177,0.09272187948226929
1683132950568450000,16.222449951171875,9.969695091247559,0.989432156085968,-0.02392822690308094
1683132950586303000,16.240302978515626,9.533005714416504,1.6552350521087646,0.1256231814622879
1683132950604144000,16.25814404296875,10.026525497436523,0.8895317912101746,0.019740786403417587
1683132950621977900,16.275977783203125,9.514460563659668,1.784447431564331,0.14416755735874176
1683132950639817000,16.29381689453125,9.974481582641602,0.7884350419044495,-0.004187439568340778
1683132950657661700,16.31166162109375,9.485747337341309,1.7796618938446045,0.08673982322216034
1683132950675497200,16.329497314453125,9.9409818649292,0.7597211599349976,0.02871387079358101
1683132950693330200,16.347330078125,9.424132347106934,1.7988044023513794,0.06281159073114395
1683132950711171800,16.365171875,9.940383911132812,0.7645068168640137,0.0526420995593071
1683132950729013800,16.383013671875,9.42891788482666,1.8323038816452026,0.09092725813388824
1683132950746851800,16.400851806640624,9.911669731140137,0.7214360237121582,0.07657032459974289
1683132950764686600,16.4186865234375,9.514460563659668,1.7413766384124756,-0.0323031060397625
1683132950782531800,16.43653173828125,9.873982429504395,0.8171489238739014,0.13280165195465088
1683132950800359000,16.45435888671875,9.452845573425293,1.659422516822815,-0.0323031060397625
1683132950818206700,16.472206787109375,9.81655502319336,0.9182456731796265,0.2709871530532837
1683132950836032000,16.490031982421876,9.524032592773438,1.597209095954895,-0.13160525262355804
1683132950853883600,16.507883544921874,9.806983947753906,0.9421738982200623,0.251844584941864
1683132950871721200,16.52572119140625,9.581459999084473,1.511067509651184,-0.22193430364131927
1683132950889558300,16.543558349609373,9.745368003845215,1.0139585733413696,0.26081767678260803
1683132950907397600,16.561397705078125,9.600603103637695,1.4249259233474731,-0.24047867953777313
1683132950925238300,16.57923828125,9.726225852966309,1.114457130432129,0.3320041298866272
1683132950943070500,16.597070556640624,9.704689979553223,1.3722838163375854,-0.23988047242164612
1683132950960915700,16.614915771484377,9.721440315246582,1.1766705513000488,0.3367897868156433
1683132950978753300,16.632753173828124,9.7669038772583,1.2861422300338745,-0.23988047242164612
1683132950996592600,16.650592529296876,9.613164901733398,1.3106685876846313,0.22612173855304718
1683132951014425900,16.66842578125,9.866206169128418,1.2143574953079224,-0.1579262912273407
1683132951032270000,16.68627001953125,9.655637741088867,1.3920245170593262,0.2309073805809021
1683132951050108000,16.70410791015625,9.818349838256836,1.1186445951461792,-0.11066804826259613
1683132951067947300,16.721947265625,9.547362327575684,1.4685949087142944,0.08255238085985184
1683132951085785300,16.739785400390623,9.955936431884766,1.0133603811264038,-0.04785645380616188
1683132951103624700,16.757624755859375,9.499505996704102,1.6360924243927002,0.14895321428775787
1683132951121462500,16.775462646484375,10.026525497436523,0.8889335989952087,0.005383851006627083
1683132951139301600,16.793301513671874,9.55214786529541,1.7413766384124756,0.12502498924732208
1683132951157139500,16.811139404296874,10.0073823928833,0.8075776696205139,-0.004187439568340778
1683132951174979000,16.82897900390625,9.55214786529541,1.731805443763733,0.09212367236614227
1683132951192805400,16.846805419921875,9.945767402648926,0.7597211599349976,0.03349951654672623
1683132951210656500,16.864656494140625,9.395418167114258,1.8179470300674438,0.09092725813388824
1683132951228493800,16.882493896484377,9.978668212890625,0.7262216806411743,0.0526420995593071
1683132951246334000,16.900333984375,9.476176261901855,1.8323038816452026,0.11545369029045105
1683132951264157700,16.91815771484375,9.916455268859863,0.7166503667831421,0.07178468257188797
1683132951282011000,16.936010986328125,9.45763111114502,1.7365909814834595,-0.017946170642971992
1683132951299848200,16.95384814453125,9.854840278625488,0.8171489238739014,0.12801600992679596
1683132951317688600,16.9716884765625,9.500103950500488,1.6600207090377808,-0.013160524889826775
1683132951335521300,16.989521240234374,9.821340560913086,0.875174880027771,0.24227328598499298
1683132951353365200,17.007365234375,9.543174743652344,1.6115660667419434,-0.12203395366668701
1683132951371203300,17.025203369140623,9.859625816345215,0.8847461938858032,0.21415762603282928
1683132951389032700,17.04303271484375,9.5862455368042,1.534995675086975,-0.16450655460357666
1683132951406878500,17.06087841796875,9.68375301361084,1.033101201057434,0.29850462079048157
1683132951424720100,17.07872021484375,9.5862455368042,1.4488540887832642,-0.2315055876970291
1683132951442560300,17.096560302734375,9.79262638092041,1.1001001596450806,0.34636107087135315
1683132951460397600,17.1143974609375,9.600603103637695,1.3860424757003784,-0.2548356056213379
1683132951478225000,17.132224853515623,9.754940032958984,1.1575279235839844,0.31764721870422363
1683132951496062700,17.150062744140627,9.7669038772583,1.3100703954696655,-0.24466611444950104
1683132951513904600,17.167904541015623,9.636494636535645,1.2867404222488403,0.259621262550354
1683132951531753000,17.1857529296875,9.866206169128418,1.2143574953079224,-0.17706887423992157
1683132951549588700,17.203588623046876,9.65085220336914,1.3680963516235352,0.24047867953777313
1683132951567428900,17.221428955078125,9.784850120544434,1.1330015659332275,-0.14416755735874176
1683132951585262000,17.239261962890627,9.585049629211426,1.4350954294204712,0.11186445504426956
1683132951603103500,17.257103515625,9.927223205566406,1.0612168312072754,-0.04785645380616188
1683132951620946700,17.27494677734375,9.533005714416504,1.6313068866729736,0.16331014037132263
1683132951638783200,17.292783203125,9.988838195800781,0.9080761671066284,-0.028115665540099144
1683132951656609000,17.310609130859376,9.561718940734863,1.688734531402588,0.11126625537872314
1683132951674453000,17.328452880859373,9.979267120361328,0.8267202377319336,0.004785645287483931
1683132951692298200,17.34629833984375,9.514460563659668,1.7078771591186523,0.08255238085985184
1683132951710137000,17.36413720703125,9.945767402648926,0.7932206988334656,0.0526420995593071
1683132951727977000,17.38197705078125,9.385847091674805,1.8610178232192993,0.1052841991186142
1683132951745815300,17.399815185546874,9.993025779724121,0.745364248752594,0.010169495828449726
1683132951763652900,17.41765283203125,9.480961799621582,1.851446509361267,0.10588239878416061
1683132951781492700,17.43549267578125,9.897911071777344,0.711864709854126,0.0526420995593071
1683132951799330000,17.453330078125,9.45763111114502,1.7126628160476685,-0.003589233849197626
1683132951817170000,17.471169921875,9.850054740905762,0.7980063557624817,0.1136590763926506
1683132951835007500,17.489007568359376,9.509675025939941,1.7078771591186523,0.0011964113218709826
1683132951852843500,17.506843505859376,9.878170013427734,0.8464609980583191,0.22851456701755524
1683132951870684700,17.5246845703125,9.53360366821289,1.6498512029647827,-0.07477571070194244
1683132951888509700,17.542509765625,9.845269203186035,0.8943174481391907,0.2231307178735733
1683132951906356000,17.56035595703125,9.495916366577148,1.5397813320159912,-0.16031911969184875
1683132951924190200,17.578190185546877,9.716654777526855,1.0091729164123535,0.2793620526790619
1683132951942029000,17.596029052734377,9.595816612243652,1.4727823734283447,-0.22193430364131927
1683132951959869700,17.61386962890625,9.745368003845215,1.0474581718444824,0.32721850275993347
1683132951977715700,17.6317158203125,9.681360244750977,1.4297115802764893,-0.24047867953777313
1683132951995544800,17.649544921875,9.817152976989746,1.1240284442901611,0.3086741268634796
1683132952013384200,17.66738427734375,9.66221809387207,1.3196417093276978,-0.268594354391098
1683132952031223300,17.685223388671876,9.698110580444336,1.2628121376037598,0.28893333673477173
1683132952049061000,17.70306103515625,9.842277526855469,1.2574282884597778,-0.17706887423992157
1683132952066899200,17.720899169921875,9.68913745880127,1.3202399015426636,0.29312077164649963
1683132952084737000,17.738737060546875,9.766305923461914,1.195214867591858,-0.1537388563156128
1683132952102575900,17.756575927734374,9.622735977172852,1.3872389793395996,0.12622138857841492
1683132952120419800,17.774419921875,9.903892517089844,1.0803594589233398,-0.08135596662759781
1683132952138253300,17.79225341796875,9.509077072143555,1.578664779663086,0.16809579730033875
1683132952156095200,17.81009521484375,10.003194808959961,0.9559326171875,-0.047258246690034866
1683132952173944800,17.82794482421875,9.57607650756836,1.6360924243927002,0.10648060590028763
1683132952191780000,17.845780029296876,10.036096572875977,0.898504912853241,-0.008973085321485996
1683132952209624300,17.863624267578125,9.514460563659668,1.7222341299057007,0.09631111472845078
1683132952227445200,17.8814453125,9.964311599731445,0.8027920126914978,0.03349951654672623
1683132952245297000,17.899296875,9.438488960266113,1.8705891370773315,0.14835500717163086
1683132952263134700,17.917134765625,10.0073823928833,0.7501499056816101,0.029312077909708023
1683132952280975400,17.934975341796875,9.46181869506836,1.827518343925476,0.11066804826259613
1683132952298810400,17.952810302734374,9.954740524291992,0.745364248752594,0.019142581149935722
1683132952316651300,17.9706513671875,9.495318412780762,1.7461622953414917,0.02512463741004467
1683132952334488800,17.98848876953125,9.878767967224121,0.7740781307220459,0.09511470049619675
1683132952352327400,18.006327392578125,9.495318412780762,1.7940187454223633,0.07238288223743439
1683132952370167300,18.024167236328125,9.959526062011719,0.7980063557624817,0.17647066712379456
1683132952388005600,18.042005615234373,9.500103950500488,1.7222341299057007,-0.017946170642971992
1683132952405843500,18.059843505859376,9.854840278625488,0.8219345808029175,0.15194423496723175
1683132952423683000,18.07768310546875,9.543174743652344,1.573280930519104,-0.11246266216039658
1683132952441507000,18.095507080078125,9.754940032958984,0.9373882412910461,0.2799602448940277
1683132952459360300,18.1133603515625,9.509675025939941,1.5158531665802002,-0.16510476171970367
1683132952477198000,18.131197998046876,9.797411918640137,1.0043872594833374,0.31824541091918945
1683132952495037400,18.149037353515624,9.600603103637695,1.482353687286377,-0.2267199456691742
1683132952512875000,18.166875,9.77408218383789,1.0761719942092896,0.31345975399017334
1683132952530714600,18.184714599609375,9.623932838439941,1.3962119817733765,-0.259621262550354
1683132952548549600,18.202549560546874,9.712467193603516,1.1958130598068237,0.32243284583091736
1683132952566394000,18.22039404296875,9.78126049041748,1.3435698747634888,-0.23030917346477509
1683132952584217600,18.238217529296875,9.707681655883789,1.2436695098876953,0.3409772217273712
1683132952602069200,18.2560693359375,9.69511890411377,1.2717852592468262,-0.21176479756832123
1683132952619904300,18.273904296875,9.655637741088867,1.3106685876846313,0.1740778535604477
1683132952637749200,18.291749267578126,9.870991706848145,1.1617153882980347,-0.14356936514377594
1683132952655583700,18.309583740234373,9.608379364013672,1.44945228099823,0.18305093050003052
1683132952673419000,18.3274189453125,9.903892517089844,1.0755738019943237,-0.07657032459974289
1683132952691261400,18.345261474609377,9.5802640914917,1.51166570186615,0.13040883839130402
1683132952709100800,18.363100830078125,9.970293998718262,0.989432156085968,-0.0526420995593071
1683132952726938000,18.380938232421876,9.533005714416504,1.6552350521087646,0.09690931439399719
1683132952744777700,18.39877783203125,9.91705322265625,0.8889335989952087,0.019142581149935722
1683132952762613000,18.416613037109375,9.452247619628906,1.784447431564331,0.15314064919948578
1683132952780458200,18.434458251953124,10.06002426147461,0.8027920126914978,-0.01375873014330864
1683132952798291700,18.452291748046875,9.504889488220215,1.7700905799865723,0.08195417374372482
1683132952816133400,18.47013330078125,9.964311599731445,0.7549355626106262,0.004785645287483931
1683132952833970200,18.48797021484375,9.448060035705566,1.7796618938446045,0.053240302950143814
1683132952851809800,18.505809814453126,9.936196327209473,0.745364248752594,0.03349951654672623
1683132952869647000,18.523647216796874,9.42891788482666,1.851446509361267,0.12442677468061447
1683132952887487000,18.541487060546874,9.93559741973877,0.7692924737930298,0.11904292553663254
1683132952905321500,18.559321533203125,9.495318412780762,1.7700905799865723,0.029910283163189888
1683132952923167200,18.577167236328126,9.878767967224121,0.7932206988334656,0.11904292553663254
1683132952941001700,18.595001708984373,9.514460563659668,1.6402798891067505,-0.07956135272979736
1683132952958826200,18.612826171875,9.806983947753906,0.8602197170257568,0.21355941891670227
1683132952976678700,18.6306787109375,9.500701904296875,1.6163517236709595,-0.11306086927652359
1683132952994506500,18.648506591796874,9.878170013427734,0.9038887619972229,0.26141586899757385
1683132953012355800,18.66635595703125,9.500701904296875,1.5397813320159912,-0.20338992774486542
1683132953030197000,18.684197021484376,9.783653259277344,1.0187442302703857,0.27038896083831787
1683132953048030500,18.702030517578127,9.623932838439941,1.4632110595703125,-0.21236300468444824
1683132953065874700,18.719874755859376,9.66939640045166,1.1096714735031128,0.3409772217273712
1683132953083709000,18.737708984375,9.7005033493042,1.3962119817733765,-0.24945175647735596
1683132953101551400,18.75555126953125,9.826126098632812,1.1479566097259521,0.3655036687850952
1683132953119386400,18.773386474609374,9.709476470947266,1.2957134246826172,-0.25423741340637207
1683132953137228500,18.791228515625,9.65085220336914,1.2197413444519043,0.2315055876970291
1683132953155061500,18.8090615234375,9.847063064575195,1.2335001230239868,-0.1818545162677765
1683132953172908000,18.826907958984375,9.655637741088867,1.3441680669784546,0.2309073805809021
1683132953190742000,18.844741943359374,9.842277526855469,1.176072359085083,-0.11066804826259613
1683132953208567300,18.8625673828125,9.669994354248047,1.4159528017044067,0.21236300468444824
1683132953226422300,18.88042236328125,9.870393753051758,1.085145115852356,-0.09092725813388824
1683132953244259000,18.898259033203125,9.547362327575684,1.5451651811599731,0.11605189740657806
1683132953262096600,18.9160966796875,9.936196327209473,0.9463613629341125,0.004785645287483931
1683132953279933400,18.933933349609376,9.547362327575684,1.7222341299057007,0.17288143932819366
1683132953297776600,18.951776611328125,10.06002426147461,0.836291491985321,-0.028115665540099144
1683132953315608600,18.969608642578127,9.53360366821289,1.7222341299057007,0.07776673883199692
1683132953333450500,18.987450439453124,10.02173900604248,0.7932206988334656,0.010169495828449726
1683132953351275800,19.00527587890625,9.46181869506836,1.7892330884933472,0.09152546525001526
1683132953369127200,19.023127197265627,9.955338478088379,0.778863787651062,0.02392822690308094
1683132953386968800,19.04096875,9.448060035705566,1.8610178232192993,0.14356936514377594
1683132953404793600,19.058793701171876,10.012167930603027,0.745364248752594,0.062213387340307236
1683132953422645200,19.076645263671875,9.42891788482666,1.7988044023513794,0.06759724020957947
1683132953440481000,19.09448095703125,9.873982429504395,0.745364248752594,0.06161518394947052
1683132953458322400,19.112322509765626,9.562317848205566,1.7270197868347168,-0.026919255033135414
1683132953476160800,19.130160888671874,9.821340560913086,0.8075776696205139,0.1663011759519577
1683132953493999600,19.14799951171875,9.476774215698242,1.7030915021896362,-0.008374879136681557
1683132953511834400,19.16583447265625,9.911669731140137,0.8943174481391907,0.21415762603282928
1683132953529680000,19.183679931640626,9.462417602539062,1.6067804098129272,-0.16091732680797577
1683132953547494700,19.20149462890625,9.783653259277344,0.9367900490760803,0.2183450609445572
1683132953565354800,19.219354736328125,9.54796028137207,1.5206388235092163,-0.16031911969184875
1683132953583189800,19.237189697265624,9.697511672973633,1.057029366493225,0.3367897868156433
1683132953601034000,19.255033935546876,9.643074989318848,1.439282774925232,-0.2548356056213379
1683132953618868500,19.272868408203124,9.81655502319336,1.0809576511383057,0.36610186100006104
1683132953636706800,19.290706787109375,9.619147300720215,1.3716856241226196,-0.26440688967704773
1683132953654546000,19.3085458984375,9.726823806762695,1.1431710720062256,0.26500511169433594
1683132953672382500,19.326382568359374,9.742975234985352,1.3196417093276978,-0.23030917346477509
1683132953690224000,19.34422412109375,9.660423278808594,1.2580264806747437,0.26919254660606384
1683132953708064000,19.36206396484375,9.795019149780273,1.26699960231781,-0.16331014037132263
1683132953725900000,19.379900146484374,9.6795654296875,1.334596872329712,0.24586252868175507
1683132953743740000,19.397739990234374,9.81356430053711,1.1617153882980347,-0.13459627330303192
1683132953761576000,19.415575927734373,9.599406242370605,1.4733805656433105,0.13998012244701385
1683132953779415300,19.433415283203125,9.941579818725586,1.0277173519134521,-0.05742774158716202
1683132953797257200,19.45125732421875,9.585049629211426,1.5930216312408447,0.1543370634317398
1683132953815089700,19.469089599609376,9.960124015808105,0.9032905697822571,-0.0568295381963253
1683132953832936200,19.486936279296874,9.556933403015137,1.607378602027893,0.04905286431312561
1683132953850771000,19.50477099609375,9.997811317443848,0.8315058946609497,-0.004187439568340778
1683132953868609000,19.522609130859376,9.438488960266113,1.7700905799865723,0.1010967567563057
1683132953886436400,19.540436279296873,10.016953468322754,0.7884350419044495,0.019740786403417587
1683132953904286000,19.558285888671875,9.419346809387207,1.8562321662902832,0.16271193325519562
1683132953922125800,19.576125732421875,9.997811317443848,0.7262216806411743,0.0526420995593071
1683132953939960000,19.5939599609375,9.519247055053711,1.7988044023513794,0.11066804826259613
1683132953957805800,19.611805908203124,9.897911071777344,0.7549355626106262,0.0568295381963253
1683132953975640300,19.629640380859374,9.462417602539062,1.755733609199524,0.014955141581594944
1683132953993480200,19.647480224609374,9.940383911132812,0.778863787651062,0.10468599200248718
1683132954011317500,19.6653173828125,9.500103950500488,1.7748762369155884,0.04426721855998039
1683132954029158400,19.683158447265626,9.859625816345215,0.8123632669448853,0.1663011759519577
1683132954046993700,19.70099365234375,9.54796028137207,1.6785650253295898,-0.09870393574237823
1683132954064832300,19.718832275390625,9.821340560913086,0.898504912853241,0.19920247793197632
1683132954082670800,19.7366708984375,9.486345291137695,1.568495273590088,-0.13220344483852386
1683132954100511500,19.754511474609377,9.783055305480957,1.0187442302703857,0.3326023519039154
1683132954118348000,19.77234814453125,9.552745819091797,1.506281852722168,-0.21236300468444824
1683132954136178000,19.790177978515626,9.830911636352539,1.0043872594833374,0.3278166949748993
1683132954154026500,19.808026611328124,9.619745254516602,1.4105689525604248,-0.259621262550354
1683132954171866400,19.825866455078124,9.693324089050293,1.0857433080673218,0.2745763957500458
1683132954189703400,19.843703369140623,9.699904441833496,1.3483555316925049,-0.24466611444950104
1683132954207543000,19.86154296875,9.702896118164062,1.205384373664856,0.3128615617752075
1683132954225380600,19.879380615234375,9.719047546386719,1.2717852592468262,-0.2111666053533554
1683132954243208400,19.89720849609375,9.68375301361084,1.2867404222488403,0.29790642857551575
1683132954261057500,19.9150576171875,9.818947792053223,1.2239288091659546,-0.19142581522464752
1683132954278897700,19.932897705078126,9.603593826293945,1.4015958309173584,0.18305093050003052
1683132954296735200,19.9507353515625,9.884750366210938,1.1234302520751953,-0.07238288223743439
1683132954314574600,19.96857470703125,9.627521514892578,1.5068800449371338,0.19740787148475647
1683132954332412200,19.986412109375,9.903294563293457,1.01814603805542,-0.05742774158716202
1683132954350247400,20.004247314453124,9.571290969848633,1.5690934658050537,0.08255238085985184
1683132954368078300,20.022078369140626,10.012765884399414,0.9272187948226929,0
1683132954385929200,20.03992919921875,9.490532875061035,1.7509479522705078,0.129810631275177
1683132954403758600,20.057758544921874,9.997811317443848,0.836291491985321,0.005383851006627083
1683132954421609200,20.075609130859377,9.466604232788086,1.82273268699646,0.1579262912273407
1683132954439443500,20.093443359375,10.069596290588379,0.7836494445800781,0.010169495828449726
1683132954457283300,20.111283447265624,9.490532875061035,1.7988044023513794,0.08195417374372482
1683132954475121000,20.129120849609375,9.945767402648926,0.7692924737930298,0.019142581149935722
1683132954492956700,20.146956787109374,9.45763111114502,1.8083757162094116,0.03409772366285324
1683132954510798000,20.164798095703127,9.88833999633789,0.7501499056816101,0.08554340898990631
1683132954528636700,20.18263671875,9.467203140258789,1.827518343925476,0.09152546525001526
1683132954546476500,20.2004765625,9.93559741973877,0.7645068168640137,0.12382857501506805
1683132954564307500,20.218307373046876,9.481559753417969,1.683350682258606,-0.061016976833343506
1683132954582152200,20.236152099609374,9.826126098632812,0.8554341197013855,0.15672987699508667
1683132954599992300,20.253992431640626,9.514460563659668,1.6163517236709595,-0.06999006122350693
1683132954617817300,20.2718173828125,9.830911636352539,0.9469595551490784,0.2991028428077698
1683132954635666700,20.289666748046876,9.543174743652344,1.5541383028030396,-0.16031911969184875
1683132954653502200,20.307502197265624,9.783055305480957,0.9613165259361267,0.3038884699344635
1683132954671346400,20.325346435546876,9.54796028137207,1.4727823734283447,-0.22193430364131927
1683132954689184000,20.34318408203125,9.778867721557617,1.0761719942092896,0.28953152894973755
1683132954707020000,20.36102001953125,9.614361763000488,1.3962119817733765,-0.2356930375099182
1683132954724859400,20.378859375,9.66939640045166,1.1527422666549683,0.3409772217273712
1683132954742694700,20.396694580078126,9.714262008666992,1.3674981594085693,-0.24466611444950104
1683132954760540400,20.41454052734375,9.741181373596191,1.205384373664856,0.3032902777194977
1683132954778376400,20.43237646484375,9.738189697265625,1.2526426315307617,-0.22552353143692017
1683132954796216600,20.450216552734375,9.617950439453125,1.363310694694519,0.2021935135126114
1683132954814055200,20.46805517578125,9.903892517089844,1.1521440744400024,-0.12921242415905
1683132954831889700,20.4858896484375,9.66102123260498,1.430309772491455,0.2069791555404663
1683132954849734000,20.50373388671875,9.841679573059082,1.0947163105010986,-0.09152546525001526
1683132954867570700,20.52157080078125,9.5802640914917,1.4877375364303589,0.08793623000383377
1683132954885409300,20.5394091796875,9.974481582641602,0.9846464991569519,-0.014356935396790504
1683132954903246800,20.557246826171873,9.44746208190918,1.693520188331604,0.12023933976888657
1683132954921086200,20.575086181640625,10.050453186035156,0.8697910308837891,-0.008973085321485996
1683132954938924000,20.592924072265625,9.55214786529541,1.7222341299057007,0.13459627330303192
1683132954956763600,20.610763671875,9.983454704284668,0.8027920126914978,0.004785645287483931
1683132954974596400,20.628596435546875,9.533005714416504,1.731805443763733,0.1010967567563057
1683132954992440600,20.646440673828124,9.950552940368652,0.7740781307220459,0.038285162299871445
1683132955010278100,20.664278076171875,9.395418167114258,1.827518343925476,0.09092725813388824
1683132955028117800,20.68211767578125,9.988240242004395,0.7501499056816101,0.05742774158716202
1683132955045950700,20.69995068359375,9.44327449798584,1.8418751955032349,0.11485548317432404
1683132955063783400,20.717783447265624,9.926026344299316,0.7501499056816101,0.08075776696205139
1683132955081633000,20.735633056640626,9.524032592773438,1.7365909814834595,-0.013160524889826775
1683132955099470800,20.753470947265626,9.869196891784668,0.8267202377319336,0.12801600992679596
1683132955117306400,20.771306396484373,9.485747337341309,1.6737794876098633,-0.008374879136681557
1683132955135154000,20.78915380859375,9.835697174072266,0.8602197170257568,0.251844584941864
1683132955152985600,20.806985595703125,9.509675025939941,1.6163517236709595,-0.10827522724866867
1683132955170825500,20.824825439453125,9.859625816345215,0.9134600162506104,0.24227328598499298
1683132955188665300,20.842665283203125,9.552745819091797,1.5158531665802002,-0.18903298676013947
1683132955206503700,20.860503662109377,9.735796928405762,0.9996016621589661,0.26081767678260803
1683132955224331500,20.87833154296875,9.5862455368042,1.4488540887832642,-0.21714866161346436
1683132955242180600,20.8961806640625,9.769296646118164,1.0666006803512573,0.3367897868156433
1683132955260007200,20.914007080078125,9.657432556152344,1.4105689525604248,-0.25004997849464417
1683132955277854000,20.93185400390625,9.77408218383789,1.1575279235839844,0.35114672780036926
1683132955295690800,20.949690673828126,9.686145782470703,1.3094722032546997,-0.2590230405330658
1683132955313535200,20.96753515625,9.684351921081543,1.2675977945327759,0.2554338276386261
1683132955331372300,20.985372314453127,9.790233612060547,1.2526426315307617,-0.16809579730033875
1683132955349212400,21.00321240234375,9.70349407196045,1.3298112154006958,0.2745763957500458
1683132955367039700,21.021039794921876,9.780662536621094,1.200000524520874,-0.13459627330303192
1683132955384877600,21.038877685546876,9.561120986938477,1.3962119817733765,0.11605189740657806
1683132955402723300,21.056723388671877,9.960722923278809,1.085145115852356,-0.06699903309345245
1683132955420565500,21.0745654296875,9.513862609863281,1.5978072881698608,0.1537388563156128
1683132955438405000,21.092405029296874,9.964909553527832,0.9320043921470642,-0.004785645287483931
1683132955456243700,21.11024365234375,9.613762855529785,1.6504493951797485,0.13519448041915894
1683132955474081000,21.1280810546875,9.974481582641602,0.9032905697822571,-0.02392822690308094
1683132955491919600,21.145919677734376,9.490532875061035,1.6791633367538452,0.08195417374372482
1683132955509759500,21.163759521484376,9.950552940368652,0.8171489238739014,0.038285162299871445
1683132955527586300,21.18158642578125,9.466604232788086,1.8179470300674438,0.14356936514377594
1683132955545435400,21.199435302734376,9.993025779724121,0.745364248752594,0.024526432156562805
1683132955563275500,21.217275634765624,9.448060035705566,1.8562321662902832,0.12921242415905
1683132955581112300,21.2351123046875,9.93559741973877,0.7357929348945618,0.04307080805301666
1683132955598952000,21.252951904296875,9.471389770507812,1.7653049230575562,0.048454657196998596
1683132955616785200,21.27078515625,9.921838760375977,0.7884350419044495,0.07597211748361588
1683132955634617300,21.288617431640624,9.495318412780762,1.7461622953414917,0.039481572806835175
1683132955652466700,21.306466796875,9.850054740905762,0.8123632669448853,0.19980068504810333
1683132955670296000,21.324296142578124,9.54796028137207,1.688734531402588,-0.04127619042992592
1683132955688144100,21.34214404296875,9.850054740905762,0.8458628058433533,0.1902294009923935
1683132955705983500,21.3599833984375,9.462417602539062,1.568495273590088,-0.13220344483852386
1683132955723820800,21.37782080078125,9.797411918640137,0.9421738982200623,0.251844584941864
1683132955741659400,21.395659423828125,9.57188892364502,1.5158531665802002,-0.1746760457754135
1683132955759499300,21.413499267578125,9.740582466125488,1.033101201057434,0.3367897868156433
1683132955777339100,21.431339111328125,9.591031074523926,1.4727823734283447,-0.23629122972488403
1683132955795163400,21.449163330078125,9.806983947753906,1.090528964996338,0.355932354927063
1683132955813010200,21.46701025390625,9.643074989318848,1.3962119817733765,-0.22133609652519226
1683132955830851800,21.484851806640624,9.631709098815918,1.2149556875228882,0.3170489966869354
1683132955848691500,21.50269140625,9.804591178894043,1.3244273662567139,-0.22552353143692017
1683132955866531000,21.520531005859375,9.726823806762695,1.2580264806747437,0.3128615617752075
1683132955884369200,21.538369140625,9.742377281188965,1.2430713176727295,-0.2111666053533554
1683132955902207000,21.55620703125,9.66520881652832,1.3441680669784546,0.18843477964401245
1683132955920028200,21.574028076171874,9.884750366210938,1.1377872228622437,-0.1052841991186142
1683132955937884200,21.59188427734375,9.561120986938477,1.4877375364303589,0.16869398951530457
1683132955955721000,21.609720947265625,9.917651176452637,1.046859860420227,-0.05742774158716202
1683132955973560600,21.627560546875,9.642477035522461,1.5547364950180054,0.15912270545959473
1683132955991403500,21.645403564453126,9.908080101013184,0.9655039310455322,-0.02871387079358101
1683132956009238300,21.66323828125,9.495318412780762,1.6408780813217163,0.06819544732570648
1683132956027077600,21.68107763671875,9.997811317443848,0.8410771489143372,0.014356935396790504
1683132956044918300,21.698918212890625,9.414560317993164,1.8035900592803955,0.1339980661869049
1683132956062751500,21.71675146484375,10.036096572875977,0.7405785918235779,-0.01375873014330864
1683132956080592600,21.734592529296876,9.524032592773438,1.7988044023513794,0.1010967567563057
1683132956098429000,21.752428955078123,9.973882675170898,0.7405785918235779,0.009571290574967861
1683132956116272400,21.7702724609375,9.452845573425293,1.7796618938446045,0.07238288223743439
1683132956134104300,21.788104248046874,9.93559741973877,0.7405785918235779,0.0526420995593071
1683132956151947000,21.805947021484375,9.424132347106934,1.8131613731384277,0.10049854964017868
1683132956169785900,21.823785888671875,9.902098655700684,0.7549355626106262,0.1333998590707779
1683132956187623700,21.841623779296874,9.467203140258789,1.76051926612854,0.024526432156562805
1683132956205460700,21.859460693359374,9.864411354064941,0.7932206988334656,0.12323036789894104
1683132956223303700,21.8773037109375,9.514460563659668,1.6354942321777344,-0.09870393574237823
1683132956241140200,21.89514013671875,9.787840843200684,0.8745766878128052,0.2183450609445572
1683132956258977800,21.912977783203125,9.53360366821289,1.568495273590088,-0.11724831163883209
1683132956276817400,21.9308173828125,9.859625816345215,0.9517452120780945,0.30927231907844543
1683132956294655000,21.948655029296877,9.491130828857422,1.5493526458740234,-0.21296121180057526
1683132956312494600,21.96649462890625,9.826126098632812,1.0139585733413696,0.28953152894973755
1683132956330317600,21.984317626953125,9.647860527038574,1.4679967164993286,-0.22612173855304718
1683132956348174600,22.002174560546877,9.631111145019531,1.119242787361145,0.32662028074264526
1683132956366009300,22.02000927734375,9.710074424743652,1.3818551301956177,-0.268594354391098
1683132956383844400,22.03784423828125,9.807581901550293,1.1718848943710327,0.3607180118560791
1683132956401676300,22.05567626953125,9.667003631591797,1.319043517112732,-0.24047867953777313
1683132956419526000,22.07352587890625,9.712467193603516,1.2245270013809204,0.24586252868175507
1683132956437363700,22.09136376953125,9.861420631408691,1.2287144660949707,-0.1818545162677765
1683132956455198500,22.109198486328125,9.608379364013672,1.3489537239074707,0.2021935135126114
1683132956473040600,22.12704052734375,9.860821723937988,1.1617153882980347,-0.1010967567563057
1683132956490878700,22.144878662109374,9.656235694885254,1.4207384586334229,0.19322042167186737
1683132956508717800,22.1627177734375,9.812965393066406,1.0516455173492432,-0.08195417374372482
1683132956526558500,22.180558349609374,9.53779125213623,1.5212370157241821,0.08255238085985184
1683132956544383500,22.198383544921874,9.964909553527832,0.9463613629341125,-0.014356935396790504
1683132956562234600,22.216234619140625,9.499505996704102,1.7078771591186523,0.14895321428775787
1683132956580072400,22.234072509765625,10.012167930603027,0.8506484627723694,-0.023330021649599075
1683132956597912000,22.251912109375,9.57607650756836,1.731805443763733,0.09690931439399719
1683132956615748900,22.269748779296876,10.002596855163574,0.7836494445800781,-0.004187439568340778
1683132956633588700,22.287588623046876,9.480961799621582,1.76051926612854,0.09152546525001526
1683132956651426000,22.305426025390624,9.997811317443848,0.7549355626106262,0.04307080805301666
1683132956669266200,22.32326611328125,9.400203704833984,1.8658034801483154,0.11485548317432404
1683132956687103000,22.34110302734375,9.988240242004395,0.7501499056816101,0.06699903309345245
1683132956704938000,22.35893798828125,9.471389770507812,1.8323038816452026,0.11066804826259613
1683132956722776800,22.37677685546875,9.912267684936523,0.7405785918235779,0.07597211748361588
1683132956740607200,22.394607177734375,9.462417602539062,1.6929219961166382,-0.04187439754605293
1683132956758460400,22.41246044921875,9.840482711791992,0.8267202377319336,0.12801600992679596
1683132956776292400,22.430292236328125,9.581459999084473,1.7030915021896362,-0.012562318705022335
1683132956794134800,22.448134765625,9.821340560913086,0.8841479420661926,0.23748764395713806
1683132956811957000,22.46595703125,9.567103385925293,1.6354942321777344,-0.12203395366668701
1683132956829810400,22.483810546875,9.859625816345215,0.9224331378936768,0.22791635990142822
1683132956847654000,22.50165380859375,9.486345291137695,1.5158531665802002,-0.16510476171970367
1683132956865486800,22.51948681640625,9.70229721069336,1.033101201057434,0.32721850275993347
1683132956883328800,22.537328857421876,9.623932838439941,1.4584254026412964,-0.2267199456691742
1683132956901165800,22.555165771484376,9.68794059753418,1.0809576511383057,0.3409772217273712
1683132956919005700,22.573005615234376,9.66221809387207,1.3812568187713623,-0.2835494875907898
1683132956936834600,22.59083447265625,9.8267240524292,1.1527422666549683,0.2991028428077698
1683132956954682600,22.6086826171875,9.690333366394043,1.319043517112732,-0.24945175647735596
1683132956972516900,22.626516845703126,9.698110580444336,1.2675977945327759,0.2793620526790619
1683132956990350800,22.644350830078125,9.847063064575195,1.2526426315307617,-0.1818545162677765
1683132957008194300,22.6621943359375,9.636494636535645,1.3154542446136475,0.27397820353507996
1683132957026031400,22.68003125,9.775876998901367,1.1808580160140991,-0.1537388563156128
1683132957043873300,22.697873291015625,9.627521514892578,1.4015958309173584,0.12143574655056
1683132957061700600,22.71570068359375,9.889535903930664,1.0564311742782593,-0.05802594870328903
1683132957079551500,22.733551513671873,9.57069206237793,1.607378602027893,0.15912270545959473
1683132957097388300,22.75138818359375,9.998409271240234,0.9511470198631287,-0.03290131315588951
